#timestamp	accel_x	accel_y	accel_z	accel_mag	temperature	mag_x	mag_y	mag_z	azimuth	pitch	roll
1276776465076	3.1054392	0.23154591	9.697687	0.37875652	0.0	-33.25	3.125	-40.25	2.8561332	1.2600833	-1.4963727
1276776465106	3.173541	0.27240697	9.302697	0.026241302	0.0	-32.5	2.375	-41.5	2.847659	1.2409111	-1.4851693
1276776465148	3.173541	0.3405087	9.152874	-0.1132288	0.0	-31.75	1.375	-42.0	2.850008	1.2352656	-1.4639091
1276776465186	3.2961242	0.27240697	9.384419	0.14352417	0.0	-31.5	1.125	-42.25	2.9059775	1.2319573	-1.4883391
1276776465216	3.3778462	0.14982383	9.384419	0.16829967	0.0	-32.25	2.125	-42.25	2.9218223	1.2249788	-1.5264705
1276776465246	3.336985	0.14982383	9.234595	0.013516426	0.0	-32.25	2.375	-42.0	2.9060037	1.2237179	-1.5259285
1276776465276	3.3778462	0.14982383	9.343558	0.12986755	0.0	-32.5	2.625	-42.0	2.8948555	1.2235849	-1.5264705
1276776465316	3.255263	0.14982383	9.425281	0.16606808	0.0	-32.75	2.625	-41.75	2.9055626	1.2379204	-1.5248036
1276776465356	3.255263	0.19068487	9.507003	0.2440319	0.0	-33.25	2.125	-41.5	2.9172254	1.2403767	-1.5122858
1276776465386	3.214402	0.23154591	9.575105	0.2962513	0.0	-33.5	2.125	-42.0	2.8968723	1.2461324	-1.4988866
1276776465416	3.336985	0.19068487	9.507003	0.27079678	0.0	-33.5	1.875	-42.25	2.9279575	1.2327187	-1.5137155
1276776465456	3.2961242	0.27240697	9.656827	0.40084457	0.0	-33.75	2.125	-42.25	2.8754528	1.240828	-1.4883391
1276776465496	3.1463003	0.27240697	9.724928	0.41820335	0.0	-33.75	1.875	-42.75	2.8903787	1.2567998	-1.4844316
1276776465526	3.173541	0.38136974	9.425281	0.14587307	0.0	-33.25	1.125	-42.5	2.8586566	1.24384	-1.4511982
1276776465556	2.9556155	0.50395286	9.302697	-0.032714844	0.0	-33.25	0.875	-42.75	2.796436	1.2590072	-1.4019135
1276776465586	2.8738933	0.42223078	9.343558	-0.021987915	0.0	-32.5	0.125	-42.5	2.879498	1.2693863	-1.4249206
1276776465626	3.2961242	0.040861044	9.888372	0.6166897	0.0	-31.75	0.375	-42.5	3.095531	1.2490228	-1.5584003
1276776465667	3.173541	-0.10896278	9.80665	0.50128937	0.0	-32.0	0.875	-42.25	-3.1287727	1.2576487	-1.6051176
1276776465706	2.5333846	0.6946377	9.724928	0.266819	0.0	-31.75	1.375	-42.0	2.6522834	1.3069731	-1.30318
1276776465746	2.1792557	0.53119355	10.651112	1.0780869	0.0	-31.25	1.625	-42.25	2.731002	1.3632352	-1.3317087
1276776465786	2.6832085	0.6946377	9.656827	0.24006271	0.0	-31.0	1.125	-42.5	2.6575878	1.2912934	-1.3174746
1276776465826	2.8738933	0.88532263	8.853226	-0.4566412	0.0	-30.25	0.375	-43.25	2.5352488	1.2433542	-1.2719643
1276776465866	2.6832085	0.7218784	9.302697	-0.09784508	0.0	-29.75	0.125	-43.75	2.6587734	1.280542	-1.3079836
1276776465906	2.8738933	0.61291564	9.302697	-0.05087757	0.0	-30.5	-0.375	-44.0	2.7673805	1.2648362	-1.3606741
1276776465946	3.0237172	0.92618364	8.812365	-0.44404125	0.0	-30.75	-0.375	-43.0	2.5634763	1.2262523	-1.273564
1276776465986	3.336985	0.5720546	9.534244	0.31088543	0.0	-31.75	0.125	-42.0	2.7995765	1.2295803	-1.401018
1276776466016	3.718355	0.50395286	9.112013	0.047735214	0.0	-32.5	0.375	-41.0	2.8179624	1.1801568	-1.436086
1276776466057	3.7864566	0.5720546	9.084772	0.052232742	0.0	-32.75	1.125	-40.25	2.7377317	1.171876	-1.4208511
1276776466096	4.0588636	0.5720546	8.921328	0.0112781525	0.0	-33.5	1.375	-40.5	2.7086003	1.1401045	-1.430779
1276776466126	4.0180025	0.3405087	8.894087	-0.04114628	0.0	-34.25	1.125	-40.25	2.8693593	1.1451349	-1.4862525
1276776466156	3.8681788	0.38136974	9.152874	0.13736057	0.0	-35.0625	0.875	-40.0	2.8845882	1.1692069	-1.4725224
1276776466186	4.140586	0.50395286	8.853226	-0.020025253	0.0	-35.5625	0.625	-39.75	2.8233404	1.130499	-1.4496815
1276776466227	4.3312707	0.50395286	9.00305	0.19678879	0.0	-36.5625	0.625	-39.5	2.8367493	1.1197592	-1.454965
1276776466266	4.440233	0.19068487	8.689782	-0.046304703	0.0	-36.3125	1.125	-39.5	2.9558246	1.0980366	-1.5278779
1276776466306	4.099725	0.42223078	9.00305	0.094911575	0.0	-36.3125	1.125	-39.0	2.8563967	1.1414921	-1.4681681
1276776466356	4.0180025	0.42223078	9.152874	0.19823456	0.0	-36.3125	1.125	-39.25	2.861477	1.1551129	-1.4660958
1276776466386	4.140586	0.23154591	9.084772	0.17989826	0.0	-35.3125	1.125	-39.25	2.9471729	1.1425633	-1.5149335
1276776466416	4.099725	0.08172209	9.152874	0.22278309	0.0	-35.3125	1.125	-39.5	3.0281525	1.149602	-1.5508654
1276776466456	4.6036777	-0.14982383	9.084772	0.37909317	0.0	-35.0625	1.125	-40.25	-3.1403642	1.1015526	-1.6033292
1276776466486	3.8273177	-0.040861044	9.425281	0.36615372	0.0	-35.0625	1.625	-40.25	3.0696619	1.1850489	-1.581472
1276776466516	3.405087	0.23154591	9.507003	0.29440594	0.0	-35.3125	1.625	-40.5	2.9371226	1.2261324	-1.5029008
1276776466546	3.6774938	0.42223078	9.234595	0.14221859	0.0	-34.5	1.375	-40.75	2.830839	1.1895607	-1.456482
1276776466576	3.568531	0.42223078	9.234595	0.102458954	0.0	-34.0	1.375	-41.0	2.8265302	1.1996988	-1.4530233
1276776466606	3.1463003	0.88532263	9.275456	0.027834892	0.0	-33.5	0.875	-41.25	2.599955	1.2320027	-1.2965035
1276776466647	3.3778462	0.88532263	9.152874	-0.010286331	0.0	-33.5	0.125	-40.75	2.640348	1.206328	-1.3144653
1276776466686	3.5957718	0.8036005	9.234595	0.13583946	0.0	-34.5	-0.625	-40.5	2.7423737	1.1911643	-1.3509245
1276776466726	3.6774938	0.53119355	9.425281	0.32459068	0.0	-35.0625	-1.125	-39.5	2.9276614	1.1952803	-1.4273441
1276776466756	3.8273177	0.61291564	9.534244	0.4853773	0.0	-36.0625	-1.625	-38.5	2.9261477	1.1846617	-1.4120023
1276776466786	4.1814466	0.6946377	9.275456	0.39144325	0.0	-36.3125	-1.625	-38.0	2.8916104	1.1421483	-1.4061759
1276776466816	4.372132	0.7218784	8.771504	0.020655632	0.0	-36.0625	-2.125	-37.4375	2.8977523	1.1030008	-1.4071636
1276776466846	4.3312707	0.92618364	8.662541	-0.0774498	0.0	-36.8125	-2.875	-37.4375	2.8370142	1.0981467	-1.3601326
1276776466876	4.2904096	1.0760075	8.812365	0.053530693	0.0	-36.8125	-3.875	-37.4375	2.8268316	1.1055979	-1.3250709
1276776466906	4.3312707	1.334794	8.812365	0.102908134	0.0	-36.8125	-4.875	-37.4375	2.7606816	1.0957669	-1.2718555
1276776466936	4.1814466	1.7570249	8.580819	-0.10087395	0.0	-37.0625	-5.125	-37.4375	2.554216	1.0845518	-1.1730022
1276776466976	4.099725	1.879608	8.689782	-0.01619625	0.0	-36.8125	-6.125	-36.6875	2.5661025	1.0920584	-1.1409197
1276776467006	4.3312707	1.8387469	8.662541	0.05136776	0.0	-36.8125	-7.125	-37.1875	2.6458337	1.0731962	-1.1693254
1276776467046	4.2086873	1.920469	8.430995	-0.18984604	0.0	-36.8125	-7.875	-37.75	2.6182134	1.0689461	-1.1427069
1276776467086	3.990762	1.920469	8.580819	-0.15031338	0.0	-36.8125	-8.625	-37.4375	2.6588752	1.0943286	-1.1222782
1276776467116	4.1814466	1.879608	8.812365	0.12688828	0.0	-37.3125	-8.375	-38.0	2.6877096	1.0910943	-1.1483488
1276776467146	4.2086873	1.8387469	8.894087	0.20328617	0.0	-37.3125	-8.125	-37.4375	2.705856	1.0941222	-1.1588953
1276776467196	4.140586	1.879608	8.812365	0.10975742	0.0	-37.3125	-8.125	-36.9375	2.6826375	1.0944257	-1.1446646
1276776467226	4.140586	1.7570249	8.730643	0.014536858	0.0	-37.0625	-8.125	-37.1875	2.7320032	1.0950694	-1.1694831
1276776467266	4.2086873	1.56634	8.812365	0.083963394	0.0	-36.5625	-8.125	-37.4375	2.8319101	1.0995048	-1.2145106
1276776467306	4.2904096	1.56634	8.580819	-0.0859766	0.0	-36.5625	-7.875	-37.4375	2.8136501	1.0816603	-1.2207514
1276776467336	4.1814466	1.9885708	8.471856	-0.15205193	0.0	-36.8125	-7.625	-37.75	2.5721858	1.0706125	-1.1268829
1276776467366	4.2086873	2.1111538	8.390134	-0.18561268	0.0	-36.8125	-7.625	-37.75	2.5721858	1.0706125	-1.1268829
1276776467406	4.3312707	1.879608	8.539958	-0.048386574	0.0	-36.8125	-7.875	-37.75	2.6545799	1.0657486	-1.1613591
1276776467446	4.2904096	1.7297841	8.894087	0.21854591	0.0	-36.8125	-8.125	-38.0	2.7583373	1.0911828	-1.1875563
1276776467476	4.1814466	1.4573772	9.275456	0.4716053	0.0	-36.8125	-7.875	-37.75	2.8795326	1.1253881	-1.235428
1276776467516	4.2086873	1.2258313	9.193735	0.3786564	0.0	-37.0625	-7.375	-37.75	2.9585185	1.1258805	-1.2873751
1276776467556	4.2495484	1.1168685	8.894087	0.11357403	0.0	-36.8125	-6.875	-37.4375	2.9827516	1.1119432	-1.3137882
1276776467596	4.2086873	0.95342433	8.730643	-0.06774902	0.0	-37.0625	-6.375	-37.1875	3.027421	1.1117401	-1.3480192
1276776467626	4.2495484	0.9942854	8.499097	-0.2524929	0.0	-37.5625	-6.375	-36.6875	3.0047653	1.0964042	-1.3409566
1276776467676	4.399372	1.1441092	8.471856	-0.19229603	0.0	-37.8125	-6.625	-36.1875	2.9567316	1.0783257	-1.3163702
1276776467706	4.671779	1.56634	8.62168	0.12372303	0.0	-38.3125	-6.875	-36.1875	2.7910144	1.0515897	-1.2472975
1276776467736	5.053149	1.607201	8.689782	0.37321854	0.0	-38.3125	-7.375	-36.1875	2.829818	1.0229039	-1.2628548
1276776467766	5.09401	1.7297841	8.689782	0.41359425	0.0	-38.3125	-7.375	-36.6875	2.7664714	1.0164636	-1.2434413
1276776467796	4.862464	1.6889231	8.471856	0.10639	0.0	-38.8125	-6.625	-36.9375	2.708605	1.0248135	-1.2364942
1276776467826	4.7943625	0.9942854	8.771504	0.23893642	0.0	-39.0625	-5.875	-36.6875	3.0107017	1.0616685	-1.3663087
1276776467856	4.7943625	0.27240697	9.043911	0.43309784	0.0	-39.5625	-3.875	-36.1875	-3.0521266	1.0826766	-1.5140392
1276776467888	4.5628166	0.53119355	8.689782	0.022580147	0.0	-39.5625	-2.125	-35.4375	3.008445	1.0845121	-1.4549001
1276776467926	3.9499009	0.84446156	8.580819	-0.32270145	0.0	-39.8125	-0.625	-34.4375	2.7845793	1.130846	-1.3601741
1276776467968	4.2495484	0.3405087	8.662541	-0.15189838	0.0	-39.5625	0.375	-34.6875	2.96705	1.1134578	-1.490839
1276776468006	4.140586	0.313268	8.62168	-0.23711777	0.0	-39.3125	-0.375	-34.6875	3.014548	1.1219562	-1.4952823
1276776468046	5.09401	0.6537767	8.499097	0.12365723	0.0	-39.0625	-1.875	-35.9375	2.933996	1.0272393	-1.4431518
1276776468076	5.5571017	1.3075534	8.812365	0.6932945	0.0	-38.0625	-3.875	-37.1875	2.7392414	0.9959525	-1.3397057
1276776468106	5.407278	1.6889231	9.00305	0.8303623	0.0	-38.0625	-5.375	-37.75	2.6636505	1.0091678	-1.2680548
1276776468136	5.09401	1.3756552	8.894087	0.5348263	0.0	-38.5625	-5.375	-38.0	2.8034732	1.0353488	-1.3070346
1276776468166	4.7535014	0.53119355	9.043911	0.4241991	0.0	-38.3125	-4.625	-37.1875	-3.1211767	1.0843171	-1.4595102
1276776468198	4.630918	0.42223078	8.62168	-0.010883331	0.0	-38.8125	-2.875	-36.1875	3.102888	1.0761644	-1.4798713
1276776468236	4.399372	0.38136974	8.62168	-0.11989212	0.0	-39.5625	-1.375	-35.1875	3.0350869	1.0974505	-1.4843252
1276776468276	4.2495484	0.27240697	8.662541	-0.15406036	0.0	-39.5625	0.125	-34.9375	3.0096624	1.1139132	-1.5067813
1276776468308	5.366417	-0.3405087	8.349273	0.12434864	0.0	-40.3125	1.375	-34.4375	-3.0643382	0.99862707	-1.6341631
1276776468346	5.284695	-0.10896278	8.349273	0.07516289	0.0	-40.5625	1.125	-34.9375	3.12309	1.0064026	-1.591412
1276776468387	5.012288	0.42223078	8.539958	0.10456562	0.0	-40.0625	1.125	-35.4375	2.8736389	1.0385038	-1.4867556
1276776468426	5.053149	0.3405087	8.894087	0.4283409	0.0	-39.5625	0.375	-35.6875	2.9610298	1.0531541	-1.5035126
1276776468466	4.7943625	0.38136974	8.812365	0.232728	0.0	-39.0625	-0.625	-35.9375	2.9971154	1.0712082	-1.491418
1276776468496	4.6036777	0.61291564	8.812365	0.15463924	0.0	-38.5625	-0.625	-35.9375	2.886417	1.0857664	-1.4384387
1276776468526	4.5628166	0.53119355	8.771504	0.09490299	0.0	-38.3125	-0.875	-36.6875	2.9324837	1.0883694	-1.4549001
1276776468566	4.5628166	0.38136974	9.043911	0.330266	0.0	-38.0625	-1.125	-37.1875	3.0225108	1.1021394	-1.487408
1276776468596	4.4810944	0.7218784	8.962189	0.23935032	0.0	-38.0625	-0.875	-37.75	2.8384528	1.1020052	-1.4110743
1276776468626	4.4810944	0.8036005	8.853226	0.14852905	0.0	-38.0625	-0.625	-37.75	2.7803152	1.0958308	-1.3933512
1276776468666	4.5219555	0.88532263	8.894087	0.21016884	0.0	-38.3125	-0.875	-36.9375	2.767062	1.0927933	-1.3774587
1276776468706	4.4810944	0.84446156	9.152874	0.41921997	0.0	-38.3125	-0.875	-36.6875	2.799035	1.1085892	-1.3845309
1276776468746	4.630918	0.8036005	8.853226	0.21686077	0.0	-38.3125	-0.875	-36.9375	2.802998	1.0827402	-1.3989779
1276776468776	4.671779	0.84446156	8.499097	-0.07149315	0.0	-38.5625	-1.125	-37.1875	2.7791364	1.0613841	-1.3919692
1276776468816	4.5628166	0.53119355	8.539958	-0.109622	0.0	-38.5625	-0.875	-36.9375	2.9251173	1.0772913	-1.4549001
1276776468860	4.440233	0.50395286	8.662541	-0.05938053	0.0	-38.5625	-1.125	-36.9375	2.956233	1.0945339	-1.457783
1276776468916	4.372132	0.84446156	8.689782	-0.042380333	0.0	-38.8125	-1.125	-36.9375	2.7938592	1.0972513	-1.3799994
1276776468970	4.440233	0.9942854	8.730643	0.03857231	0.0	-38.3125	-1.625	-36.9375	2.749202	1.0903524	-1.350504
1276776469056	4.671779	0.92618364	8.853226	0.24635601	0.0	-37.5625	-1.875	-37.4375	2.7928839	1.077242	-1.3750833
1276776469087	4.630918	0.95342433	8.853226	0.22998428	0.0	-37.3125	-0.875	-37.1875	2.7202091	1.0802828	-1.3677511
1276776469127	4.6036777	0.9942854	8.771504	0.14934063	0.0	-36.5625	-0.375	-37.1875	2.656974	1.0780303	-1.3580872
1276776469156	4.5219555	0.88532263	8.730643	0.065330505	0.0	-36.5625	0.375	-37.4375	2.6614327	1.0851773	-1.3774587
1276776469186	4.399372	0.84446156	8.894087	0.15188217	0.0	-37.0625	1.125	-37.75	2.6561244	1.104217	-1.3811525
1276776469216	4.399372	0.7218784	8.921328	0.16659737	0.0	-37.0625	0.375	-38.25	2.7530258	1.1073694	-1.4081589
1276776469256	4.399372	0.7218784	8.662541	-0.06420612	0.0	-37.5625	0.375	-38.25	2.7448523	1.095495	-1.4081589
1276776469294	4.2904096	0.88532263	8.580819	-0.1722393	0.0	-37.3125	0.625	-38.5	2.6417203	1.098757	-1.3673033
1276776469326	4.2904096	0.95342433	8.689782	-0.06863403	0.0	-37.0625	0.875	-38.5	2.5986686	1.1025399	-1.3521274
1276776469374	4.2495484	1.0351465	8.853226	0.06805515	0.0	-36.8125	1.375	-38.75	2.5391695	1.1119316	-1.3318598
1276776469434	4.0588636	1.1168685	8.771504	-0.07725811	0.0	-36.3125	1.125	-39.25	2.4987934	1.1233319	-1.3022741
1276776469466	3.445948	1.4165162	9.234595	0.1512022	0.0	-35.8125	0.625	-39.25	2.4100559	1.1873162	-1.1807858
1276776469496	3.214402	1.6480621	8.771504	-0.32046127	0.0	-35.3125	0.375	-39.75	2.2675793	1.1801431	-1.097031
1276776469536	2.9147544	1.8387469	8.730643	-0.42044163	0.0	-34.5	0.625	-40.25	2.1376178	1.1948391	-1.0080076
1276776469586	2.0294318	1.879608	8.689782	-0.68722916	0.0	-33.25	0.875	-41.0	1.9859793	1.2626175	-0.8237069
1276776469637	2.982856	0.8036005	9.343558	0.034350395	0.0	-31.75	1.625	-42.75	2.5701914	1.2514857	-1.3076378
1276776469672	1.9885708	1.1849703	9.697687	0.1634903	0.0	-28.75	1.125	-45.0	2.2634578	1.3364792	-1.0334041
1276776469706	1.3075534	3.255263	9.575105	0.39085293	0.0	-26.0	-0.125	-46.75	1.2927208	1.219611	-0.38194835
1276776469736	1.0760075	3.405087	9.765789	0.59157276	0.0	-23.6875	-1.375	-48.25	1.1993856	1.2202308	-0.3060703
1276776469766	0.46309182	3.7864566	9.615966	0.53832436	0.0	-20.9375	-3.625	-48.5	1.0314122	1.1931366	-0.12169779
1276776469796	0.27240697	3.8681788	9.234595	0.20907497	0.0	-20.1875	-5.375	-48.25	1.0093024	1.1732395	-0.070306465
1276776469826	0.08172209	4.440233	8.689782	-0.04782486	0.0	-18.6875	-7.125	-48.5	0.87731785	1.0983412	-0.018402832
1276776469866	-0.38136974	6.0474343	9.00305	1.0456219	0.0	-16.4375	-9.125	-49.0	0.6878534	0.9783917	0.06297966
1276776469900	-2.2609777	7.3141265	8.240311	1.4410686	0.0	-14.875	-11.625	-49.5	0.5500946	0.82216424	0.29980698
1276776469936	-2.6832085	6.2789803	6.782933	-0.18202591	0.0	-11.125	-13.9375	-50.25	0.4864774	0.78206766	0.40384415
1276776469980	-2.4925237	5.09401	6.510526	-1.1724997	0.0	-7.375	-16.1875	-50.25	0.5113316	0.85419685	0.4550549
1276776470024	-2.6832085	5.243834	5.47538	-1.7644377	0.0	-3.3125	-18.6875	-49.5	0.41580957	0.74889535	0.47295442
1276776470056	-4.8216033	4.6036777	6.1700177	-0.7231035	0.0	1.4375	-20.1875	-49.0	0.48559278	0.7467431	0.8085154
1276776470096	-5.7477865	5.053149	7.6273947	0.99837303	0.0	5.75	-21.1875	-48.0	0.5217632	0.7837098	0.8496224
1276776470136	-5.407278	5.5162406	6.2108784	0.10508919	0.0	9.25	-21.4375	-47.5	0.34512582	0.67720646	0.7754234
1276776470176	-5.407278	4.140586	1.6480621	-2.7995667	0.0	12.5	-19.9375	-47.5	0.19818148	0.23742376	0.9172955
1276776470216	-5.366417	2.2201166	1.3075534	-3.8537478	0.0	14.25	-17.9375	-47.25	0.26078513	0.22145543	1.1785309
1276776470266	-3.173541	0.9942854	8.580819	-0.60391045	0.0	11.75	-16.4375	-48.0	1.3833399	1.2010527	1.2671785
1276776470306	-1.9885708	2.0294318	9.507003	0.11585522	0.0	10.0	-12.375	-49.5	2.1533098	1.2803817	0.77522904
1276776470346	-3.9499009	0.9942854	10.991621	1.9153824	0.0	7.5	-8.625	-50.75	0.63644767	1.2159187	1.3241956
1276776470386	-2.8330324	2.8738933	11.727119	2.5953932	0.0	5.25	-5.625	-51.75	0.021959743	1.2393714	0.7782384
1276776470426	-2.6832085	2.8330324	9.615966	0.57084846	0.0	6.5	-2.125	-51.75	-0.23044266	1.1853135	0.75824434
1276776470456	-2.6014864	3.2961242	9.043911	0.16453362	0.0	7.0	-1.875	-51.0	-0.26122436	1.136116	0.66815543
1276776470496	-2.7921712	3.336985	9.084772	0.26632214	0.0	8.25	-1.625	-50.25	-0.32263198	1.1241387	0.6967423
1276776470536	-2.8738933	3.255263	8.499097	-0.26250744	0.0	9.75	-2.125	-49.75	-0.36450675	1.0984516	0.723256
1276776470576	-2.8738933	3.445948	8.349273	-0.32803345	0.0	11.75	-2.875	-49.25	-0.45339358	1.0776621	0.69512695
1276776470616	-3.0237172	3.336985	9.043911	0.2963524	0.0	13.75	-3.125	-48.5	-0.62223554	1.1088139	0.73618734
1276776470656	-3.173541	2.9556155	8.921328	0.11288166	0.0	15.8125	-4.125	-47.75	-0.7737894	1.1183258	0.8209387
1276776470696	-3.0237172	2.9556155	8.962189	0.10290909	0.0	17.8125	-4.375	-47.0	-1.0166942	1.1299675	0.7967872
1276776470736	-2.3426998	2.9147544	8.853226	-0.19604969	0.0	19.3125	-4.875	-46.5	-1.2909986	1.1711375	0.67701626
1276776470776	-1.9477097	2.8738933	8.308413	-0.8020649	0.0	20.5625	-5.375	-46.25	-1.3541927	1.1749923	0.59561944
1276776470816	-1.6889231	3.173541	8.008764	-1.0280323	0.0	20.8125	-6.375	-45.5	-1.2814178	1.1488744	0.48906586
1276776470856	-1.9885708	3.568531	8.62168	-0.2660942	0.0	20.8125	-7.375	-45.75	-1.2645878	1.1283042	0.5083939
1276776470896	-2.1792557	4.099725	9.997335	1.216218	0.0	20.8125	-8.375	-45.25	-1.333579	1.1360173	0.48857683
1276776470936	-2.2201166	3.568531	10.923519	1.8974771	0.0	20.5625	-8.875	-45.0	-1.649867	1.203509	0.5565382
1276776470976	-1.879608	2.7240696	9.997335	0.72426605	0.0	20.3125	-9.125	-45.25	-1.8937236	1.2511033	0.603983
1276776471016	-1.879608	2.7240696	9.507003	0.2599573	0.0	20.0625	-8.875	-45.25	-1.8087337	1.2357948	0.603983
1276776471066	-2.3018389	2.2201166	9.507003	0.22382736	0.0	19.5625	-7.875	-45.25	-2.048893	1.2463006	0.8034685
1276776471096	-2.3426998	1.920469	8.894087	-0.410841	0.0	19.3125	-7.375	-45.5	-2.1078658	1.242526	0.8841177
1276776471136	-2.8330324	2.2609777	8.349273	-0.7045374	0.0	19.5625	-6.375	-45.0	-1.5366228	1.1612197	0.8972291
1276776471176	-2.8738933	2.2201166	8.471856	-0.58924675	0.0	19.8125	-5.125	-45.0	-1.5163575	1.165829	0.9130426
1276776471216	-3.2961242	2.070293	8.853226	-0.13555145	0.0	19.8125	-4.875	-45.0	-1.5117369	1.1565782	1.0099715
1276776471256	-3.636633	2.2201166	9.343558	0.4625311	0.0	19.5625	-4.125	-45.25	-1.3316381	1.1429561	1.0227015
1276776471296	-3.1463003	2.4516625	9.112013	0.14013958	0.0	19.3125	-3.375	-46.0	-1.2965424	1.1581823	0.90885466
1276776471336	-2.3426998	2.5333846	8.730643	-0.41886997	0.0	18.5625	-3.625	-46.0	-1.3325661	1.1944151	0.74631196
1276776471376	-1.9477097	2.6832085	8.730643	-0.46762943	0.0	18.3125	-2.625	-46.25	-1.2523421	1.2078543	0.6278902
1276776471416	-1.8387469	2.5606253	9.112013	-0.16473293	0.0	18.3125	-1.875	-46.0	-1.3216664	1.2377218	0.6227608
1276776471456	-1.9477097	2.4108016	9.084772	-0.20776367	0.0	17.8125	-1.125	-46.0	-1.3156409	1.2420263	0.6795453
1276776471486	-1.9477097	2.4108016	8.689782	-0.58071613	0.0	17.8125	0.125	-46.0	-1.2262211	1.2282023	0.6795453
1276776471526	-1.879608	2.3699405	8.539958	-0.7468252	0.0	17.5625	0.625	-46.25	-1.1929299	1.230388	0.67052156
1276776471566	-2.3426998	1.9477097	8.662541	-0.62397957	0.0	17.5625	1.375	-46.0	-1.3044876	1.2326086	0.87720287
1276776471606	-2.982856	2.2201166	9.575105	0.465106	0.0	18.0625	1.375	-46.0	-1.2529944	1.2003834	0.9309582
1276776471646	-3.636633	1.9885708	11.032481	1.9787292	0.0	19.0625	1.375	-45.25	-1.4864953	1.2114186	1.0704006
1276776471686	-4.9850473	1.7570249	13.375181	4.5750504	0.0	20.3125	1.375	-44.25	-1.7101045	1.1944505	1.2319325
1276776471726	-4.630918	1.7978859	13.211738	4.308158	0.0	21.5625	0.625	-43.25	-1.9540418	1.211145	1.200473
1276776471766	-3.759216	1.879608	12.367276	3.2552853	0.0	23.0625	0.375	-42.0	-2.0736756	1.2431984	1.1071488
1276776471806	-2.8738933	1.6889231	11.182305	1.8619261	0.0	24.5625	0.375	-41.5	-2.144799	1.2810853	1.0394865
1276776471846	-5.134871	1.4573772	10.528529	1.9976196	0.0	26.125	-0.375	-40.5	-2.1252904	1.1015856	1.2942492
1276776471896	-4.8216033	1.3075534	10.732834	2.0319004	0.0	27.875	-1.125	-39.75	-2.4743733	1.1351568	1.305979
1276776471936	-3.9499009	1.6480621	9.656827	0.7561207	0.0	28.875	-1.625	-39.25	-2.3246803	1.1536094	1.1755157
1276776471966	-4.2495484	1.2666923	7.5865335	-1.0192347	0.0	29.375	-2.125	-39.5	-2.2272024	1.041853	1.2811048
1276776472000	-3.9090397	1.4982382	8.499097	-0.33247662	0.0	29.125	-2.125	-40.25	-2.28353	1.1131175	1.2047905
1276776472036	-2.982856	1.9885708	7.5865335	-1.4157419	0.0	28.125	-1.875	-41.0	-1.8862041	1.1293564	0.9827937
1276776472066	-3.9499009	1.8387469	7.4639506	-1.1641235	0.0	27.375	-2.125	-41.75	-1.6907797	1.0424278	1.1351135
1276776472106	-4.399372	1.9885708	8.471856	-0.055688858	0.0	26.625	-2.625	-42.0	-1.7124988	1.0528195	1.1462702
1276776472136	-5.053149	2.4108016	8.117727	0.05457592	0.0	26.375	-2.875	-42.25	-1.2033551	0.96701837	1.125645
1276776472176	-4.440233	1.8387469	8.430995	-0.10209751	0.0	26.125	-2.625	-42.25	-1.6916115	1.052707	1.1781852
1276776472216	-4.372132	1.0760075	6.238119	-2.1133113	0.0	26.125	-2.625	-42.0	-0.8120257	0.9455976	1.329486
1276776472256	-5.597963	1.4982382	8.049625	0.11193657	0.0	26.625	-3.125	-41.75	-0.9331283	0.94683397	1.3092855
1276776472296	-6.2789803	1.6889231	7.1234417	-0.16188526	0.0	27.375	-3.125	-41.75	-0.47176987	0.83096325	1.308035
1276776472336	-5.9793324	1.607201	7.504812	-0.077430725	0.0	29.125	-3.625	-41.25	-0.814583	0.8809885	1.3082101
1276776472376	-5.6252036	2.6832085	5.434519	-1.5376406	0.0	30.875	-3.125	-40.25	-0.7546031	0.7171179	1.1257194
1276776472416	-6.1291566	3.0237172	6.1700177	-0.59912395	0.0	32.125	-2.375	-39.25	-0.92402446	0.7343515	1.1124963
1276776472456	-7.1234417	3.718355	6.701211	0.6564188	0.0	33.625	-1.875	-37.4375	-0.99081856	0.69510126	1.089713
1276776472496	-6.932757	4.372132	5.325556	-0.032183647	0.0	34.875	-1.625	-36.4375	-0.8880874	0.57620263	1.0081456
1276776472536	-9.425281	4.5628166	5.284695	1.9229374	0.0	35.9375	-2.375	-35.9375	-0.6706685	0.4673746	1.1199461
1276776472576	-6.510526	4.7126403	4.7126403	-0.48973465	0.0	37.1875	-2.625	-34.9375	-0.948308	0.5303271	0.9442427
1276776472616	-5.6660647	4.399372	4.6036777	-1.283	0.0	38.1875	-3.375	-34.1875	-1.0698674	0.5705635	0.9105859
1276776472656	-6.66035	4.8216033	4.6036777	-0.38317108	0.0	38.6875	-4.375	-33.1875	-0.99617887	0.5104073	0.9441922
1276776472696	-7.164303	5.5162406	4.4810944	0.28474998	0.0	39.4375	-4.625	-32.4375	-0.9713889	0.46011463	0.9146415
1276776472736	-6.469665	4.9850473	5.175732	-0.13734531	0.0	39.4375	-5.125	-31.9375	-1.1657119	0.5648326	0.91428727
1276776472776	-7.1234417	4.099725	4.862464	-0.2570572	0.0	39.6875	-5.625	-31.9375	-1.0507623	0.53423196	1.0485669
1276776472816	-6.932757	3.0237172	5.175732	-0.64181614	0.0	39.6875	-5.375	-32.4375	-1.1411694	0.600116	1.1595201
1276776472856	-6.8237944	3.0645783	4.8216033	-0.90700626	0.0	39.1875	-5.625	-32.6875	-1.0101062	0.5725473	1.1486896
1276776472896	-7.1234417	2.070293	4.372132	-1.1958971	0.0	39.4375	-5.875	-32.9375	-0.5730226	0.532574	1.287957
1276776472936	-7.504812	4.0180025	4.099725	-0.35814285	0.0	39.6875	-6.625	-32.1875	-0.8023804	0.44881904	1.079239
1276776472976	-8.008764	4.4810944	3.568531	0.0399189	0.0	40.1875	-7.875	-31.1875	-0.705721	0.37085629	1.0606706
1276776473016	-7.9270425	5.2165933	2.7240696	0.06611061	0.0	40.9375	-9.125	-30.1875	-0.6855332	0.27954435	0.988765
1276776473056	-9.112013	6.1700177	1.7297841	1.332922	0.0	41.4375	-10.375	-28.9375	-0.57987803	0.15591374	0.97558475
1276776473096	-6.1700177	4.2086873	3.3778462	-1.6095772	0.0	41.4375	-11.375	-28.4375	-0.9897275	0.42473522	0.972172
1276776473136	-5.8158884	7.082581	2.2609777	-0.3673954	0.0	41.4375	-12.9375	-27.6875	-0.9185563	0.24188097	0.68750715
1276776473176	-7.8180795	5.5162406	2.4925237	0.08091545	0.0	41.1875	-13.9375	-26.6875	-0.67886674	0.254836	0.95633864
1276776473216	-7.5456724	4.3312707	4.140586	-0.17121887	0.0	40.9375	-15.1875	-26.4375	-0.9308543	0.44418824	1.0497085
1276776473256	-7.7772183	5.366417	1.9885708	-0.1506691	0.0	40.9375	-15.1875	-26.9375	-0.5471702	0.20742612	0.96680146
1276776473296	-6.973618	5.47538	1.1849703	-0.8615236	0.0	41.1875	-14.6875	-27.4375	-0.56909853	0.13286158	0.90517217
1276776473336	-7.5456724	5.8976107	1.7297841	-0.0746851	0.0	41.6875	-14.1875	-27.9375	-0.6246799	0.17869197	0.9073832
1276776473376	-6.469665	5.284695	2.3018389	-1.1416035	0.0	41.6875	-14.1875	-28.1875	-0.7591527	0.2688744	0.8858698
1276776473416	-7.164303	5.5162406	3.1054392	-0.24632072	0.0	41.1875	-15.4375	-28.1875	-0.7813984	0.33082727	0.9146415
1276776473456	-7.43671	6.1700177	2.3426998	0.13628769	0.0	39.4375	-17.4375	-28.4375	-0.58229905	0.23785077	0.8782237
1276776473496	-6.66035	6.238119	1.3756552	-0.578063	0.0	37.9375	-20.4375	-27.9375	-0.475146	0.14962219	0.81812143
1276776473536	-6.851035	5.6660647	1.1168685	-0.84627247	0.0	36.9375	-22.6875	-27.1875	-0.27312782	0.12497028	0.879785
1276776473576	-5.6660647	6.469665	2.070293	-0.9609184	0.0	36.4375	-24.9375	-26.1875	-0.6178921	0.23623544	0.71927696
1276776473616	-6.510526	8.117727	1.2666923	0.67614365	0.0	36.6875	-25.6875	-24.4375	-0.582155	0.121131375	0.67596745
1276776473656	-7.5865335	8.499097	1.7978859	1.7268896	0.0	36.1875	-26.4375	-24.4375	-0.49715275	0.15652159	0.72872734
1276776473696	-7.273266	7.504812	3.9090397	1.35145	0.0	36.1875	-26.4375	-24.9375	-0.76626366	0.35792556	0.7697312
1276776473736	-6.0474343	5.47538	5.243834	-0.10876179	0.0	35.6875	-25.9375	-25.6875	-1.9906931	0.5712918	0.83500284
1276776473776	-6.701211	6.5922484	4.0588636	0.4324093	0.0	35.4375	-25.6875	-27.1875	-0.697444	0.40760297	0.7935947
1276776473816	-7.1234417	7.5456724	2.7921712	0.9393635	0.0	35.9375	-24.4375	-27.6875	-0.53719	0.26284948	0.75662243
1276776473856	-5.597963	6.0474343	1.6889231	-1.3946877	0.0	35.6875	-24.1875	-27.9375	-0.47581682	0.20215033	0.7468208
1276776473896	-8.049625	4.8216033	1.4165162	-0.31713772	0.0	35.6875	-24.4375	-27.9375	0.123362675	0.14983174	1.0311236
1276776473936	-6.469665	2.8738933	1.4982382	-2.5705914	0.0	35.9375	-24.4375	-27.4375	0.40651554	0.20856038	1.1527674
1276776473976	-5.053149	4.862464	3.5957718	-1.9258223	0.0	36.1875	-24.9375	-27.1875	-1.016841	0.47379702	0.8046266
1276776474016	-6.0474343	5.012288	1.4165162	-1.8253589	0.0	36.4375	-25.1875	-25.6875	-0.21769951	0.17842476	0.87872237
1276776474056	-6.66035	5.829509	0.7218784	-0.9260788	0.0	37.1875	-25.6875	-23.1875	-0.25931904	0.08137717	0.85182154
1276776474096	-6.8237944	10.460427	1.4982382	2.7722778	0.0	37.6875	-26.9375	-21.6875	-0.79905176	0.11939041	0.57802105
1276776474136	-6.973618	10.651112	-0.10896278	2.9247828	0.0	37.1875	-27.9375	-20.1875	-0.655471	-0.008558668	0.57969415
1276776474176	-6.1700177	6.5922484	0.46309182	-0.76556015	0.0	36.9375	-28.6875	-19.9375	-0.39741778	0.05124322	0.7523259
1276776474216	-5.8567495	7.1234417	-0.38136974	-0.576787	0.0	36.1875	-29.1875	-20.9375	-0.39164168	-0.041330874	0.68811965
1276776474256	-5.47538	7.8180795	-0.14982383	-0.2607298	0.0	34.625	-29.4375	-21.9375	-0.46935332	-0.015695708	0.61095977
1276776474296	-4.4810944	8.894087	1.1168685	0.2149458	0.0	33.125	-29.9375	-23.4375	-0.71250004	0.11167817	0.4667057
1276776474336	-4.099725	7.205164	2.2609777	-1.2139702	0.0	30.625	-30.9375	-26.1875	-0.6727834	0.26626343	0.517312
1276776474376	-4.630918	7.6273947	3.636633	-0.1709013	0.0	26.125	-30.4375	-29.6875	-0.47989535	0.38699841	0.545655
1276776474416	-4.099725	4.9850473	1.7297841	-3.1245403	0.0	21.3125	-30.6875	-33.9375	0.1302626	0.26185003	0.68825364
1276776474456	-4.0180025	5.706926	0.61291564	-2.8002949	0.0	15.8125	-29.6875	-37.4375	0.12047255	0.08759191	0.61344373
1276776474496	-2.3426998	5.8976107	11.563675	3.3838253	0.0	10.75	-28.4375	-40.5	3.0708559	1.0688932	0.37811497
1276776474536	1.9885708	5.7477865	3.718355	-2.6780019	0.0	8.25	-27.9375	-42.25	-0.6206631	0.5487338	-0.3330815
1276776474576	0.6946377	6.0201936	3.445948	-2.8352938	0.0	5.25	-26.1875	-42.75	-0.32237104	0.5170304	-0.114876606
1276776474606	-4.862464	7.273266	3.336985	-0.44292164	0.0	1.4375	-26.1875	-43.25	0.39144433	0.36438373	0.58929795
1276776474636	-2.5606253	7.246025	2.3426998	-1.7723541	0.0	-2.0625	-26.6875	-42.25	0.3148178	0.29588598	0.33968583
1276776474666	-1.7297841	5.597963	1.0351465	-3.8567872	0.0	-6.375	-28.1875	-40.25	0.3878482	0.17486805	0.2996953
1276776474696	-2.4516625	6.0474343	1.4573772	-3.1203914	0.0	-9.375	-31.1875	-37.4375	0.5820687	0.2197299	0.38515753
1276776474726	-2.1383946	10.310603	5.6252036	2.1316996	0.0	-10.125	-33.6875	-33.6875	0.8359967	0.49063686	0.20449843
1276776474766	1.2258313	17.856276	11.917805	11.696449	0.0	-10.125	-35.9375	-30.1875	1.0031698	0.5874455	-0.06854235
1276776474806	3.3778462	16.548723	8.962189	9.313782	0.0	-9.875	-37.4375	-27.6875	0.33242404	0.4878447	-0.20134936
1276776474846	2.6014864	13.633968	4.0588636	4.654581	0.0	-9.125	-37.75	-26.6875	0.12749614	0.28449422	-0.18854283
1276776474896	2.1111538	9.343558	3.759216	0.4836731	0.0	-8.375	-37.1875	-27.4375	-0.002302778	0.37397185	-0.22221611
1276776474936	1.9885708	8.240311	3.1463003	-0.76472855	0.0	-8.625	-36.1875	-28.9375	-0.007391217	0.3554029	-0.23679489
1276776474976	1.56634	8.008764	2.8738933	-1.1548882	0.0	-9.125	-35.1875	-30.4375	0.13140322	0.33860788	-0.19314027
1276776475016	0.95342433	8.281172	3.445948	-0.78659534	0.0	-9.875	-34.6875	-31.1875	0.36641607	0.39199388	-0.114626884
1276776475056	0.3405087	8.689782	4.0588636	-0.2096386	0.0	-10.875	-34.4375	-31.4375	0.605364	0.43667623	-0.039164916
1276776475096	0.040861044	8.962189	4.440233	0.19525814	0.0	-12.125	-34.4375	-30.9375	0.76729363	0.4599894	-0.004559239
1276776475126	-0.040861044	8.539958	3.718355	-0.4922142	0.0	-13.375	-34.9375	-30.4375	0.7692875	0.4106479	0.004784653
1276776475166	0.23154591	8.349273	3.1054392	-0.8955488	0.0	-14.625	-34.6875	-29.9375	0.711683	0.35596076	-0.02772536
1276776475206	0.53119355	8.730643	2.982856	-0.56523705	0.0	-15.9375	-35.1875	-28.9375	0.7187887	0.32865527	-0.06076752
1276776475247	0.95342433	8.689782	3.173541	-0.506505	0.0	-16.6875	-35.6875	-27.9375	0.7534374	0.34823117	-0.10928076
1276776475286	3.9090397	9.507003	0.5720546	0.4885397	0.0	-17.6875	-35.9375	-26.4375	0.11090161	0.055593867	-0.39010254
1276776475326	1.3756552	9.112013	2.2201166	-0.3277197	0.0	-19.6875	-36.6875	-24.4375	0.76500034	0.236412	-0.14984004
1276776475366	2.6014864	8.894087	3.3778462	0.056531906	0.0	-21.6875	-36.4375	-22.6875	0.97007805	0.34954485	-0.28455842
1276776475406	3.8681788	8.771504	2.3426998	0.06200409	0.0	-23.4375	-36.6875	-21.4375	0.5592453	0.23967606	-0.41533917
1276776475446	3.8681788	9.112013	1.8387469	0.2617445	0.0	-24.6875	-36.4375	-20.9375	0.5891328	0.18365633	-0.4014591
1276776475476	3.8681788	9.043911	1.920469	0.21549225	0.0	-25.25	-36.1875	-20.4375	0.65157866	0.19281511	-0.40416452
1276776475516	4.630918	9.724928	2.2609777	1.1993322	0.0	-25.25	-36.6875	-20.4375	0.56965476	0.2069048	-0.4444192
1276776475556	5.434519	10.119919	2.3699405	1.9220915	0.0	-25.25	-36.9375	-19.9375	0.42508277	0.20346354	-0.49281704
1276776475586	4.8216033	10.691973	2.070293	2.1035242	0.0	-26.25	-36.9375	-19.1875	0.66436416	0.17471306	-0.42364818
1276776475616	4.7126403	10.760075	1.9477097	2.100565	0.0	-26.25	-36.6875	-19.9375	0.64296114	0.16431227	-0.4128088
1276776475656	4.5219555	9.888372	1.7297841	1.203352	0.0	-27.5	-36.6875	-20.1875	0.64735806	0.15776387	-0.42890823
1276776475686	4.3312707	8.853226	1.6889231	0.19294834	0.0	-28.75	-36.1875	-20.4375	0.67016566	0.16971262	-0.4549952
1276776475716	4.2086873	7.5865335	1.4165162	-1.0160275	0.0	-29.5	-35.1875	-20.6875	0.58578765	0.16184509	-0.50648856
1276776475746	3.759216	6.3198414	0.9942854	-2.3863602	0.0	-31.5	-34.6875	-19.6875	0.61018914	0.13439974	-0.53660756
1276776475786	3.5276701	5.284695	0.6946377	-3.4148602	0.0	-32.5	-33.4375	-18.6875	0.55704486	0.10889163	-0.5885971
1276776475826	3.8681788	5.6252036	1.1168685	-2.8890553	0.0	-34.0	-32.1875	-17.4375	0.78342223	0.1621631	-0.6023901
1276776475866	4.140586	7.205164	2.0294318	-1.2522697	0.0	-35.5625	-31.9375	-16.1875	1.2503264	0.23952262	-0.52158564
1276776475906	4.0588636	7.5456724	1.9885708	-1.0108576	0.0	-36.0625	-31.4375	-15.1875	1.3005424	0.22805369	-0.49351075
1276776475946	2.9556155	5.6660647	0.8036005	-3.3657084	0.0	-37.3125	-31.4375	-13.9375	1.1545157	0.1250904	-0.48080513
1276776475986	1.3756552	3.405087	0.040861044	-6.133951	0.0	-38.0625	-31.4375	-13.1875	1.0754806	0.011125848	-0.3839499
1276776476026	0.88532263	4.4810944	-0.6946377	-5.1864204	0.0	-38.3125	-30.9375	-13.4375	1.0301301	-0.15091926	-0.1950564
1276776476066	3.336985	6.851035	0.23154591	-2.1826248	0.0	-39.0625	-31.1875	-14.1875	1.0326716	0.030375231	-0.45325628
1276776476096	4.2086873	8.853226	2.6423476	0.34591866	0.0	-38.5625	-30.9375	-15.6875	1.4067764	0.26329556	-0.4437621
1276776476126	4.671779	10.760075	3.6774938	2.4867907	0.0	-37.8125	-30.9375	-17.6875	1.3988509	0.30379418	-0.40961808
1276776476156	5.938472	12.639683	3.759216	4.65567	0.0	-36.3125	-31.4375	-18.9375	1.2317137	0.26295152	-0.43921968
1276776476196	7.014479	12.762266	3.759216	5.233631	0.0	-34.5	-30.6875	-20.9375	1.024406	0.2526216	-0.5025564
1276776476236	6.0882955	10.923519	3.8273177	3.2715368	0.0	-33.5	-30.4375	-22.9375	0.994835	0.2969959	-0.5084737
1276776476276	5.5571017	9.384419	3.336985	1.5987949	0.0	-32.5	-30.4375	-25.1875	0.8219257	0.29692197	-0.53463674
1276776476316	4.9850473	8.662541	2.3699405	0.46500683	0.0	-32.5	-29.9375	-27.1875	0.6694308	0.23282397	-0.5221887
1276776476356	4.2495484	7.8589406	2.7921712	-0.44621086	0.0	-32.5	-29.9375	-27.4375	0.8077224	0.30290574	-0.49569663
1276776476396	3.8273177	7.668256	3.718355	-0.4644518	0.0	-32.75	-29.9375	-27.1875	1.0827594	0.4093544	-0.46293688
1276776476436	3.336985	7.43671	4.0588636	-0.70091057	0.0	-33.25	-29.6875	-25.4375	1.3214712	0.4620095	-0.42178723
1276776476476	3.3778462	7.3549876	3.5957718	-0.95028114	0.0	-33.75	-30.1875	-23.4375	1.3235222	0.41808346	-0.43052718
1276776476516	3.6774938	7.082581	3.1463003	-1.2284145	0.0	-34.25	-30.1875	-22.6875	1.2492728	0.3755423	-0.47891358
1276776476556	3.990762	6.973618	2.5606253	-1.3737192	0.0	-34.25	-30.1875	-21.9375	1.0849173	0.30851695	-0.51977694
1276776476586	4.1814466	7.082581	2.5606253	-1.192461	0.0	-34.5	-30.1875	-22.1875	1.0497147	0.30181816	-0.53331935
1276776476616	4.4810944	7.5865335	2.6014864	-0.6195164	0.0	-34.75	-30.1875	-22.9375	0.98649293	0.2870939	-0.5335267
1276776476656	4.2904096	7.7363577	2.5606253	-0.59710884	0.0	-34.75	-30.4375	-22.9375	1.0040085	0.28175354	-0.50635076
1276776476696	5.284695	8.430995	2.7240696	0.5098524	0.0	-35.0625	-30.1875	-22.4375	0.94084877	0.26721853	-0.5599052
1276776476736	4.140586	8.308413	2.6832085	-0.14363956	0.0	-35.0625	-30.4375	-21.6875	1.1060308	0.28137654	-0.4623353
1276776476766	4.440233	7.9679036	2.5333846	-0.33980274	0.0	-34.75	-29.9375	-20.9375	1.0694655	0.2709075	-0.5084038
1276776476806	4.5219555	7.6273947	2.2609777	-0.65584373	0.0	-35.3125	-30.1875	-20.4375	1.0328369	0.24966526	-0.5351509
1276776476846	4.6036777	7.668256	2.2609777	-0.58124924	0.0	-35.5625	-30.4375	-20.9375	1.0048192	0.24760404	-0.54068065
1276776476886	4.5628166	7.6954966	2.4925237	-0.5194206	0.0	-35.5625	-29.9375	-21.4375	1.0459065	0.27171284	-0.5351976
1276776476926	4.6036777	8.049625	2.8738933	-0.09842777	0.0	-35.3125	-30.1875	-21.4375	1.1227729	0.30053025	-0.5195105
1276776476966	5.243834	8.117727	2.6423476	0.2121973	0.0	-35.3125	-29.9375	-22.1875	0.9440521	0.26689503	-0.5735392
1276776476996	5.366417	8.812365	2.6014864	0.8340235	0.0	-34.5	-29.4375	-22.6875	0.89002633	0.24698868	-0.546985
1276776477036	5.325556	9.152874	3.759216	1.4302692	0.0	-34.5	-29.1875	-22.9375	1.1177088	0.3411187	-0.5269634
1276776477076	4.630918	8.430995	5.434519	1.2414751	0.0	-35.0625	-28.6875	-23.6875	1.5736277	0.51426506	-0.5022849
1276776477116	5.47538	7.8180795	2.9556155	0.18523788	0.0	-35.0625	-27.6875	-23.9375	0.89896286	0.30029446	-0.6109598
1276776477156	5.175732	6.1291566	0.27240697	-1.7798843	0.0	-35.8125	-26.9375	-24.4375	0.41042048	0.033943843	-0.7012599
1276776477186	3.336985	4.7535014	2.070293	-3.6408281	0.0	-35.8125	-26.1875	-25.1875	0.97748584	0.34242168	-0.6120708
1276776477226	3.0237172	5.407278	2.8330324	-2.9943385	0.0	-35.8125	-25.4375	-25.6875	1.221694	0.42889866	-0.50987446
1276776477256	4.630918	8.308413	2.7921712	0.106539726	0.0	-35.3125	-25.9375	-25.9375	0.9272601	0.28552607	-0.50848925
1276776477296	5.829509	9.00305	4.0180025	1.6468401	0.0	-34.75	-26.9375	-25.1875	1.0147492	0.3584363	-0.5746184
1276776477336	4.7126403	8.894087	5.053149	1.4560347	0.0	-34.25	-28.1875	-24.4375	1.3701974	0.46526867	-0.487251
1276776477376	3.7864566	8.471856	3.9499009	0.278553	0.0	-33.75	-29.4375	-24.4375	1.2348052	0.4024275	-0.42031077
1276776477416	4.6036777	7.9679036	2.6423476	-0.23255253	0.0	-33.5	-29.4375	-23.9375	0.8993052	0.27961874	-0.52391934
1276776477456	4.944186	7.8589406	2.5333846	-0.18241215	0.0	-32.75	-29.6875	-24.1875	0.7763518	0.2663684	-0.5615537
1276776477496	4.1814466	8.049625	3.0237172	-0.24506855	0.0	-32.75	-30.1875	-23.9375	1.012372	0.3217593	-0.479093
1276776477536	4.0180025	7.5456724	3.214402	-0.6735296	0.0	-32.75	-30.1875	-23.6875	1.1062121	0.3596536	-0.4893013
1276776477576	4.0588636	7.014479	2.8738933	-1.2080135	0.0	-32.75	-30.6875	-23.1875	1.0470738	0.34078452	-0.5245661
1276776477606	4.0180025	7.3958488	2.4925237	-1.0285177	0.0	-32.75	-31.1875	-22.6875	0.9692804	0.28790796	-0.4976678
1276776477637	4.2495484	8.117727	3.0237172	-0.15786648	0.0	-32.5	-31.1875	-22.6875	1.053001	0.3187482	-0.48226246
1276776477676	4.2904096	8.812365	4.0588636	0.8018255	0.0	-32.25	-32.1875	-21.6875	1.3361402	0.392615	-0.45308247
1276776477716	4.0180025	9.656827	3.990762	1.3882074	0.0	-32.0	-32.6875	-20.9375	1.3161753	0.36449948	-0.39429024
1276776477746	3.5957718	9.697687	3.7864566	1.2075214	0.0	-33.0	-32.9375	-20.1875	1.3489609	0.35093975	-0.35507157
1276776477786	3.1463003	9.234595	3.214402	0.46512413	0.0	-32.75	-32.9375	-19.6875	1.3009236	0.3182821	-0.328373
1276776477826	3.3778462	8.580819	2.8738933	-0.14748001	0.0	-33.0	-32.9375	-19.6875	1.2554929	0.30210447	-0.37502095
1276776477866	3.255263	7.3958488	2.070293	-1.4651022	0.0	-33.5	-33.4375	-19.9375	1.1177666	0.25081185	-0.4146303
1276776477906	3.1463003	6.510526	1.4573772	-2.4303298	0.0	-33.5	-32.9375	-20.4375	0.95106316	0.19888364	-0.45016906
1276776477946	3.7864566	6.742072	1.7570249	-1.8769641	0.0	-34.25	-32.4375	-20.6875	0.94087815	0.22342992	-0.5117178
1276776477986	4.440233	8.308413	3.445948	0.22429943	0.0	-34.25	-31.6875	-20.4375	1.3117253	0.35067475	-0.49080777
1276776478026	4.5219555	9.193735	4.8216033	1.5168076	0.0	-34.25	-30.9375	-20.1875	1.5703069	0.43985316	-0.45710787
1276776478066	4.099725	9.656827	4.2086873	1.4971151	0.0	-34.0	-31.1875	-20.1875	1.4099423	0.38151413	-0.4014823
1276776478106	3.636633	9.956474	3.8273177	1.4629917	0.0	-34.0	-31.9375	-18.9375	1.3979667	0.3465055	-0.35019815
1276776478146	3.6774938	8.62168	3.486809	0.19410896	0.0	-33.75	-32.4375	-18.1875	1.4605919	0.35613507	-0.40317455
1276776478186	3.0645783	7.014479	1.9885708	-1.8978591	0.0	-34.0	-32.9375	-17.9375	1.23114	0.2541657	-0.41190103
1276776478226	3.486809	7.1234417	0.6946377	-1.8452568	0.0	-34.25	-32.9375	-17.1875	0.8885523	0.08736185	-0.45519927
1276776478266	4.440233	7.3549876	2.1111538	-0.9597025	0.0	-34.5	-32.6875	-17.6875	1.1120212	0.24095564	-0.5431384
1276776478306	4.372132	8.580819	3.718355	0.51672935	0.0	-34.5	-32.9375	-17.6875	1.5525424	0.36846912	-0.47123763
1276776478336	4.944186	9.00305	4.2495484	1.3090391	0.0	-34.25	-32.6875	-16.9375	1.6826998	0.3922861	-0.5022041
1276776478366	4.5219555	8.499097	3.8681788	0.56858635	0.0	-34.0	-32.6875	-16.4375	1.6700776	0.38205495	-0.48895866
1276776478406	4.0588636	7.9270425	2.3426998	-0.5979252	0.0	-33.75	-32.4375	-15.6875	1.3197408	0.25722724	-0.47322324
1276776478446	4.0588636	7.7772183	1.1168685	-0.9631834	0.0	-34.25	-32.1875	-15.6875	0.9989602	0.12663123	-0.48100698
1276776478476	4.099725	8.158588	1.9885708	-0.46188068	0.0	-34.25	-32.9375	-15.4375	1.2333609	0.21444012	-0.46564895
1276776478516	4.099725	8.471856	2.7921712	0.0104932785	0.0	-34.75	-32.9375	-14.9375	1.4775891	0.2883992	-0.45070335
1276776478556	4.2086873	8.471856	2.982856	0.11216164	0.0	-35.0625	-33.4375	-14.6875	1.5519857	0.30545503	-0.46107194
1276776478586	4.4810944	8.158588	2.7240696	-0.10802555	0.0	-35.3125	-32.9375	-14.4375	1.506432	0.2847023	-0.5022662
1276776478616	4.5219555	7.8589406	2.8330324	-0.30732918	0.0	-36.0625	-31.9375	-14.4375	1.560304	0.30284324	-0.5221273
1276776478646	4.440233	7.8589406	2.982856	-0.3000183	0.0	-36.3125	-31.6875	-14.4375	1.605258	0.31915653	-0.51427996
1276776478676	4.1814466	8.308413	2.7921712	-0.095294	0.0	-36.8125	-31.4375	-14.4375	1.5177372	0.29163244	-0.46626708
1276776478706	4.099725	8.730643	2.8330324	0.24610806	0.0	-36.5625	-31.4375	-14.4375	1.4972849	0.28568673	-0.43901584
1276776478736	4.0180025	8.281172	3.3778462	-0.0019578934	0.0	-36.5625	-31.4375	-13.9375	1.6829163	0.35172024	-0.4517355
1276776478776	3.5957718	7.504812	2.3699405	-1.1539974	0.0	-36.3125	-31.6875	-13.6875	1.5163035	0.27744323	-0.4468117
1276776478816	4.099725	7.6954966	1.1441092	-1.0124817	0.0	-36.5625	-31.4375	-13.6875	1.1548328	0.13046844	-0.4894979
1276776478846	4.4810944	7.9679036	1.9477097	-0.45992565	0.0	-37.0625	-31.1875	-13.1875	1.3709022	0.2099226	-0.5123083
1276776478886	4.0180025	8.281172	2.8738933	-0.16396332	0.0	-37.3125	-31.1875	-13.9375	1.5664387	0.30263725	-0.45173553
1276776478926	4.372132	8.499097	3.214402	0.27712727	0.0	-37.5625	-30.9375	-14.9375	1.5754045	0.32443112	-0.4751194
1276776478966	4.5628166	8.308413	2.3699405	-0.035998344	0.0	-37.5625	-30.4375	-15.6875	1.3364604	0.24500075	-0.50221366
1276776479006	3.9499009	7.9679036	2.1792557	-0.650321	0.0	-37.8125	-30.1875	-16.9375	1.2849401	0.24031171	-0.46022296
1276776479046	3.718355	8.158588	2.982856	-0.35751534	0.0	-38.0625	-29.6875	-17.1875	1.4461063	0.321168	-0.4276333
1276776479086	3.990762	9.043911	4.440233	1.030055	0.0	-38.0625	-29.9375	-17.6875	1.6315962	0.42216918	-0.41556627
1276776479116	3.9499009	9.425281	5.366417	1.7361422	0.0	-36.8125	-30.4375	-18.6875	1.7105454	0.48353857	-0.39684156
1276776479146	4.372132	8.771504	5.2165933	1.295948	0.0	-35.5625	-30.6875	-19.9375	1.721733	0.4891247	-0.46240458
1276776479176	4.862464	7.5865335	4.399372	0.22098827	0.0	-34.0	-31.1875	-22.1875	1.5394994	0.45417893	-0.5699752
1276776479216	4.5219555	6.1700177	4.2495484	-1.0558863	0.0	-33.75	-30.6875	-23.6875	1.6806344	0.5070726	-0.63246167
1276776479256	3.2961242	5.6252036	4.903325	-1.6488352	0.0	-34.25	-29.6875	-24.1875	1.9895571	0.6448251	-0.53002936
1276776479296	3.1054392	5.407278	5.012288	-1.8063107	0.0	-35.3125	-28.4375	-24.1875	2.0041568	0.6770666	-0.5213135
1276776479336	4.6036777	6.3607025	5.366417	-0.2960863	0.0	-36.0625	-27.6875	-24.1875	1.9125634	0.59953487	-0.62650067
1276776479376	5.7886477	6.510526	6.0474343	0.79838943	0.0	-36.0625	-26.9375	-23.9375	2.115169	0.6067999	-0.7267721
1276776479416	4.7126403	5.407278	6.851035	0.11223698	0.0	-36.0625	-26.9375	-23.6875	2.5206215	0.76246494	-0.716865
1276776479456	3.9499009	6.1700177	7.082581	0.38323593	0.0	-36.3125	-27.4375	-23.4375	2.252738	0.7685032	-0.56943846
1276776479486	5.09401	7.164303	6.6331096	1.2058115	0.0	-36.5625	-27.1875	-23.9375	2.0331829	0.6464138	-0.61808807
1276776479526	5.09401	5.5162406	3.0645783	-1.6968117	0.0	-36.8125	-27.1875	-24.1875	1.0093771	0.3875098	-0.74562454
1276776479566	4.944186	5.5571017	4.099725	-1.3134708	0.0	-36.8125	-26.9375	-24.9375	1.5381293	0.50374407	-0.7270986
1276776479596	4.440233	6.238119	5.09401	-0.6099806	0.0	-36.0625	-27.1875	-25.6875	1.7499032	0.5870379	-0.61859524
1276776479626	3.7864566	6.5922484	5.597963	-0.36566544	0.0	-35.0625	-27.4375	-24.9375	1.8268117	0.6347084	-0.5213683
1276776479656	2.8738933	6.1291566	6.4015636	-0.48968506	0.0	-33.5	-28.1875	-25.4375	2.0187492	0.7574719	-0.4384504
1276776479686	3.173541	6.3198414	5.012288	-1.1386175	0.0	-32.25	-28.9375	-26.1875	1.6937575	0.6165818	-0.46537027
1276776479716	3.9090397	8.076866	4.140586	0.0756979	0.0	-31.0	-29.6875	-26.6875	1.1129376	0.43233058	-0.4507495
1276776479746	3.568531	10.882658	5.366417	2.8410807	0.0	-29.75	-30.9375	-27.9375	1.1254781	0.4381874	-0.31686154
1276776479786	3.7864566	12.067628	8.390134	5.37094	0.0	-28.75	-31.1875	-27.6875	1.4681004	0.58571756	-0.30404124
1276776479826	4.440233	11.495573	7.164303	4.4478617	0.0	-28.25	-31.1875	-27.9375	1.2866317	0.52660245	-0.3686022
1276776479866	6.891896	9.466142	5.053149	2.9464035	0.0	-28.5	-29.9375	-29.4375	0.46540585	0.40740767	-0.6293094
1276776479906	7.668256	5.6252036	4.399372	0.6718769	0.0	-30.75	-26.1875	-30.4375	-0.26674348	0.4332761	-0.9378935
1276776479946	6.701211	2.8738933	1.334794	-2.3940148	0.0	-34.25	-19.6875	-31.6875	-0.18834363	0.18105772	-1.1656593
1276776480016	4.4810944	1.5390993	3.214402	-4.081145	0.0	-37.5625	-11.375	-32.1875	0.3030396	0.5960984	-1.2399551
1276776480076	0.53119355	3.255263	7.1234417	-1.9566612	0.0	-38.0625	-0.625	-33.9375	1.3569255	1.1371653	-0.16175425
1276776480116	-0.10896278	3.445948	11.032481	1.7519865	0.0	-32.75	7.625	-38.0	1.0280915	1.2679099	0.03161002
1276776480146	0.7218784	1.56634	10.691973	1.023531	0.0	-24.6875	12.6875	-43.0	1.2892076	1.4108673	-0.4318562
1276776480176	0.53119355	1.2666923	10.119919	0.40605927	0.0	-15.4375	15.1875	-47.75	0.949864	1.4358917	-0.39707944
1276776480208	0.95342433	1.6889231	11.114203	1.4755039	0.0	-8.125	14.4375	-50.75	0.68992645	1.3980337	-0.51391965
1276776480246	2.3426998	1.3756552	11.686258	2.1912374	0.0	-5.125	13.4375	-51.5	0.79243606	1.3423805	-1.0398347
1276776480276	0.50395286	0.92618364	11.032481	1.276104	0.0	-3.5625	13.1875	-51.75	0.5686378	1.4755117	-0.49831578
1276776480316	1.6889231	0.7218784	10.038197	0.39820004	0.0	-3.0625	13.1875	-52.25	0.84904724	1.3898244	-1.1668782
1276776480356	2.6014864	0.42223078	9.466142	0.01953125	0.0	-2.3125	13.1875	-52.25	0.76840466	1.2992568	-1.4098958
1276776480396	2.0294318	0.53119355	10.147159	0.55508614	0.0	-2.0625	13.9375	-52.0	0.86113715	1.366931	-1.3147945
1276776480436	0.8036005	0.9942854	10.378705	0.6504955	0.0	-1.8125	13.1875	-52.0	0.5618783	1.4482355	-0.67973256
1276776480476	1.2258313	1.6889231	10.691973	1.0870819	0.0	-2.0625	12.6875	-52.0	0.4506889	1.3780369	-0.6278366
1276776480516	0.6946377	1.920469	10.61025	0.9983549	0.0	-2.5625	11.875	-52.0	0.3128207	1.3806446	-0.34706157
1276776480556	0.46309182	2.1792557	10.61025	1.0349836	0.0	-2.3125	10.625	-52.25	0.21534374	1.3638253	-0.20938538
1276776480586	0.5720546	2.1792557	10.147159	0.5876379	0.0	-2.3125	10.625	-52.5	0.23250061	1.3523003	-0.25670832
1276776480616	0.7218784	1.9885708	9.888372	0.3054924	0.0	-2.3125	10.375	-52.75	0.2809409	1.3600315	-0.3482209
1276776480646	0.27240697	2.3018389	9.234595	-0.28559875	0.0	-2.5625	10.375	-52.5	0.16588508	1.3248749	-0.11779532
1276776480686	-0.0	2.8330324	9.384419	-0.003926277	0.0	-3.5625	11.125	-52.75	0.1367152	1.2776095	0.0
1276776480716	0.5720546	3.759216	10.528529	1.387495	0.0	-5.125	10.875	-52.5	0.2414369	1.2242132	-0.15101534
1276776480756	1.56634	3.3778462	8.390134	-0.6274557	0.0	-7.125	10.875	-51.75	0.3846415	1.1531304	-0.4341962
1276776480796	3.0645783	2.2609777	9.084772	0.044073105	0.0	-10.625	10.875	-51.0	0.70255506	1.1738456	-0.93516344
1276776480836	5.706926	1.3756552	8.390134	0.43326092	0.0	-14.125	10.625	-49.25	0.62202847	0.96028703	-1.3342587
1276776480876	7.0553403	-0.23154591	7.5865335	0.5561161	0.0	-16.4375	11.125	-49.0	0.46507487	0.82139295	-1.6036031
1276776480916	4.944186	0.50395286	7.9270425	-0.45053196	0.0	-17.6875	11.375	-48.75	0.8310774	1.0108011	-1.4692187
1276776480956	1.3756552	2.8330324	9.656827	0.35075188	0.0	-17.1875	10.875	-49.5	0.8568684	1.255544	-0.45204273
1276776480996	-0.27240697	3.759216	11.34575	2.1487656	0.0	-15.9375	9.875	-50.75	0.52124804	1.2500646	0.07233733
1276776481036	1.1168685	3.0237172	10.079058	0.7753	0.0	-15.4375	8.375	-51.0	0.7700959	1.2612648	-0.35382512
1276776481076	3.255263	1.7570249	8.471856	-0.562397	0.0	-15.1875	6.875	-51.25	0.86725014	1.159106	-1.0758574
1276776481106	2.7649305	1.7978859	8.539958	-0.6519728	0.0	-14.625	6.875	-51.0	0.9212811	1.2022496	-0.994248
1276776481136	2.152015	2.1111538	9.656827	0.30979443	0.0	-14.125	6.875	-51.25	0.9653765	1.2682042	-0.79498255
1276776481166	1.3075534	2.3699405	10.119919	0.66899204	0.0	-13.625	7.125	-51.25	0.8722093	1.3094493	-0.50416595
1276776481196	0.61291564	2.6423476	10.378705	0.92066	0.0	-12.875	7.375	-51.75	0.6898228	1.3151617	-0.22792794
1276776481226	0.6946377	2.8738933	10.310603	0.9195013	0.0	-12.375	6.625	-52.5	0.6500927	1.2915317	-0.2371576
1276776481286	1.4982382	2.4108016	9.466142	0.07588577	0.0	-12.625	6.125	-52.75	0.792814	1.2794765	-0.556056
1276776481326	1.7297841	2.1792557	8.962189	-0.4225073	0.0	-12.375	5.875	-52.75	0.81068027	1.2697791	-0.6709183
1276776481366	1.7570249	2.2201166	8.962189	-0.40787983	0.0	-12.625	5.625	-53.0	0.81183535	1.2648059	-0.6694818
1276776481406	2.2201166	2.4516625	9.466142	0.2206831	0.0	-12.625	5.375	-52.5	0.7810949	1.2346532	-0.73587596
1276776481446	2.152015	2.6423476	9.302697	0.10058689	0.0	-12.375	5.125	-52.5	0.7260835	1.2196528	-0.6834798
1276776481476	1.920469	3.0237172	9.384419	0.23816872	0.0	-12.125	3.875	-52.75	0.66217244	1.2061634	-0.5658543
1276776481516	2.0294318	3.173541	9.384419	0.30558395	0.0	-11.625	2.875	-52.5	0.61689925	1.1890793	-0.5689477
1276776481556	1.9885708	3.214402	9.302697	0.23461342	0.0	-11.875	2.125	-52.75	0.6190679	1.1848613	-0.5540157
1276776481586	1.9885708	3.255263	8.921328	-0.10400963	0.0	-11.625	1.875	-52.75	0.57988894	1.1667411	-0.54838014
1276776481616	2.2201166	3.336985	8.921328	-0.026339531	0.0	-12.125	1.875	-52.5	0.5849168	1.1485537	-0.5870601
1276776481646	2.4516625	3.2961242	8.962189	0.052147865	0.0	-12.625	1.375	-52.25	0.60238934	1.1410102	-0.6395223
1276776481686	2.1792557	3.336985	8.580819	-0.3454094	0.0	-13.125	0.125	-52.5	0.613553	1.1359727	-0.57852423
1276776481716	2.4108016	3.5276701	8.894087	0.0605278	0.0	-13.875	-1.375	-52.5	0.6297853	1.1229482	-0.59949636
1276776481756	2.7921712	3.8273177	9.466142	0.7788315	0.0	-14.375	-2.125	-52.0	0.63163143	1.1067685	-0.6302759
1276776481796	3.0645783	4.0180025	9.466142	0.92385864	0.0	-14.875	-2.625	-52.0	0.60858274	1.0804522	-0.6515872
1276776481836	2.7921712	3.5957718	8.580819	-0.09293556	0.0	-14.875	-2.375	-51.5	0.6198736	1.0830079	-0.66025597
1276776481876	2.3018389	3.5276701	8.390134	-0.41850471	0.0	-15.1875	-1.875	-50.75	0.6976844	1.105513	-0.57813746
1276776481916	2.4108016	3.759216	8.812365	0.072693825	0.0	-15.4375	-1.875	-50.75	0.7044187	1.1017481	-0.570238
1276776481956	2.9556155	3.5957718	8.730643	0.08725548	0.0	-15.4375	-1.875	-50.75	0.7044187	1.1017481	-0.570238
1276776481996	2.8738933	3.214402	8.771504	-0.032657623	0.0	-15.1875	-1.625	-50.75	0.69755304	1.113916	-0.72952795
1276776482036	2.6014864	3.336985	8.894087	0.04261303	0.0	-14.625	-1.125	-51.25	0.6915431	1.1267495	-0.6621725
1276776482076	2.6014864	3.255263	9.043911	0.15110016	0.0	-14.375	-0.625	-52.0	0.68875754	1.1390308	-0.6742305
1276776482106	2.5606253	3.214402	8.962189	0.05286312	0.0	-14.375	-0.125	-52.25	0.68928283	1.1408521	-0.6726706
1276776482136	2.4925237	3.2961242	8.921328	0.025298119	0.0	-14.375	0.375	-52.5	0.6796026	1.1370114	-0.6474562
1276776482166	2.5606253	3.336985	8.894087	0.031899452	0.0	-14.375	-0.125	-52.5	0.66507447	1.1290439	-0.65451103
1276776482196	2.6014864	3.336985	9.084772	0.21514034	0.0	-14.125	-0.125	-52.0	0.66899985	1.1349237	-0.6621725
1276776482226	2.4516625	3.1463003	9.112013	0.14013958	0.0	-13.875	-0.125	-52.0	0.6982188	1.1581823	-0.66194165
1276776482266	2.1792557	3.1054392	8.771504	-0.24986172	0.0	-13.625	-0.625	-51.75	0.6971054	1.1625783	-0.6119025
1276776482306	2.4108016	3.3778462	8.853226	-0.029052734	0.0	-13.625	-0.625	-51.5	0.6459257	1.1324629	-0.619868
1276776482346	2.5606253	3.718355	9.084772	0.33810425	0.0	-13.625	-1.125	-51.75	0.60575336	1.1095854	-0.6030642
1276776482386	2.5606253	3.9090397	9.043911	0.37321854	0.0	-13.625	-1.375	-51.25	0.59074205	1.0938729	-0.5799187
1276776482426	2.6832085	3.759216	8.62168	-0.025817871	0.0	-13.875	-1.375	-51.75	0.5707822	1.0790029	-0.6199066
1276776482466	2.5333846	3.568531	8.499097	-0.2469902	0.0	-13.875	-1.875	-51.75	0.59260714	1.0952845	-0.6173551
1276776482506	2.3699405	3.759216	8.894087	0.13583946	0.0	-13.875	-1.375	-51.75	0.6182607	1.1074307	-0.5624979
1276776482576	2.4108016	3.6774938	8.580819	-0.16474247	0.0	-14.125	-1.375	-52.0	0.6106936	1.0972363	-0.5802708
1276776482606	2.4925237	3.636633	8.430995	-0.29247952	0.0	-13.875	-1.875	-51.5	0.5890108	1.0889727	-0.60085535
1276776482636	2.5606253	3.6774938	8.471856	-0.22264767	0.0	-14.125	-1.625	-51.5	0.5946677	1.0842608	-0.6082359
1276776482676	2.4516625	3.759216	8.499097	-0.19535446	0.0	-14.125	-2.125	-51.25	0.60187817	1.0849544	-0.57790196
1276776482706	2.4925237	3.718355	8.689782	-0.03162384	0.0	-13.875	-2.375	-51.25	0.60204005	1.0951084	-0.5905342
1276776482736	2.5333846	3.6774938	8.730643	-2.1743774E-4	0.0	-13.875	-2.125	-51.5	0.60166585	1.0979983	-0.6032299
1276776482776	2.5333846	3.636633	8.812365	0.05747223	0.0	-14.125	-2.375	-51.0	0.6324907	1.1048025	-0.6084601
1276776482816	2.4108016	3.9090397	9.00305	0.30015278	0.0	-13.625	-2.375	-51.25	0.60036755	1.0990831	-0.55262643
1276776482866	2.6014864	3.7864566	9.043911	0.3371811	0.0	-13.125	-2.375	-51.25	0.56816983	1.1007948	-0.601982
1276776482906	2.3699405	3.8681788	9.043911	0.3112421	0.0	-13.625	-2.625	-50.75	0.61873657	1.105867	-0.54968804
1276776482946	2.4516625	3.990762	8.771504	0.13699722	0.0	-12.875	-2.375	-51.0	0.53824186	1.0803473	-0.5508929
1276776482986	2.6014864	3.9499009	8.771504	0.15872765	0.0	-13.375	-2.625	-51.0	0.5517973	1.0762789	-0.58241165
1276776483026	2.152015	3.7864566	8.689782	-0.08652973	0.0	-14.125	-3.125	-51.25	0.6441643	1.1061931	-0.51681876
1276776483066	2.3426998	3.759216	8.730643	-0.016651154	0.0	-13.875	-3.125	-51.25	0.6167135	1.1012906	-0.5572955
1276776483096	2.3018389	3.7864566	8.539958	-0.18549633	0.0	-14.375	-2.875	-51.5	0.6264136	1.0921584	-0.5462181
1276776483126	2.3699405	3.759216	8.430995	-0.27617264	0.0	-14.625	-2.875	-51.25	0.63061947	1.0857109	-0.5624979
1276776483166	2.4516625	3.759216	8.499097	-0.19535446	0.0	-14.625	-2.625	-51.0	0.6309298	1.0849544	-0.57790196
1276776483196	2.4516625	3.8273177	8.812365	0.108831406	0.0	-14.375	-2.375	-51.75	0.6233655	1.0946066	-0.56971705
1276776483226	2.4108016	3.9499009	8.853226	0.18300915	0.0	-13.875	-2.875	-51.75	0.59180915	1.0891619	-0.54799134
1276776483266	2.5606253	3.990762	8.812365	0.2003851	0.0	-13.625	-2.625	-52.0	0.5548681	1.0771626	-0.5704745
1276776483306	2.5333846	3.9090397	8.580819	-0.042988777	0.0	-13.625	-2.125	-52.0	0.55092406	1.0734518	-0.5750268
1276776483346	2.5333846	3.8273177	8.689782	0.020796776	0.0	-13.875	-1.875	-51.5	0.5852209	1.0848556	-0.58471036
1276776483386	2.4516625	3.9090397	8.894087	0.2131319	0.0	-14.375	-2.125	-51.75	0.6206991	1.0922227	-0.56016374
1276776483426	2.3426998	3.7864566	8.730643	-0.0061588287	0.0	-14.375	-2.375	-51.5	0.6361097	1.0991849	-0.5540598
1276776483456	2.4516625	3.718355	8.771504	0.030834198	0.0	-14.375	-2.625	-51.5	0.63567555	1.1009569	-0.5829136
1276776483486	2.3699405	3.6774938	8.771504	-0.0046157837	0.0	-14.625	-3.125	-51.75	0.66003084	1.1081302	-0.5724598
1276776483526	2.2609777	3.8273177	8.771504	0.026948929	0.0	-14.375	-3.125	-51.75	0.64055127	1.1017357	-0.5335883
1276776483566	2.5333846	3.759216	8.689782	-0.0055246353	0.0	-14.375	-3.375	-51.75	0.6108539	1.0899647	-0.59300256
1276776483596	2.4108016	3.6774938	8.62168	-0.1283598	0.0	-14.375	-3.125	-51.5	0.63300514	1.0991616	-0.5802708
1276776483626	2.4108016	3.718355	8.689782	-0.05214119	0.0	-14.125	-3.125	-51.25	0.6239637	1.0992078	-0.57521564
1276776483656	2.4516625	3.718355	8.730643	-0.005581856	0.0	-14.125	-2.625	-51.25	0.6227195	1.0990694	-0.58291364
1276776483696	2.4925237	3.7864566	8.730643	0.030730247	0.0	-14.375	-2.625	-51.0	0.62827915	1.0918843	-0.58216935
1276776483726	2.5333846	3.7864566	8.730643	0.04116249	0.0	-14.375	-2.875	-51.5	0.61598396	1.089848	-0.58966094
1276776483766	2.4925237	3.8681788	8.771504	0.09864044	0.0	-14.625	-2.625	-51.5	0.62856203	1.0876493	-0.5724045
1276776483806	2.6014864	3.8681788	8.894087	0.23502922	0.0	-15.1875	-2.875	-51.25	0.6599782	1.0880364	-0.5920545
1276776483836	2.5333846	3.8681788	8.853226	0.18136501	0.0	-15.1875	-2.875	-51.5	0.6602164	1.089477	-0.5798328
1276776483866	2.6423476	3.8273177	8.853226	0.19384861	0.0	-15.4375	-2.625	-51.0	0.6738549	1.0870923	-0.60424817
1276776483906	2.6832085	3.759216	8.730643	0.070365906	0.0	-15.4375	-2.375	-51.25	0.66281605	1.0842122	-0.61990666
1276776483946	2.6014864	3.718355	8.62168	-0.06358719	0.0	-14.625	-2.125	-51.25	0.6253102	1.0862889	-0.6104801
1276776483986	2.6014864	3.718355	8.689782	-0.0032730103	0.0	-14.375	-1.375	-51.25	0.6191932	1.0895247	-0.61048007
1276776484026	2.6014864	3.636633	8.689782	-0.033976555	0.0	-14.375	-1.875	-51.5	0.62250787	1.0955758	-0.6209577
1276776484066	2.5606253	3.636633	8.730643	-0.008383751	0.0	-14.375	-1.625	-51.0	0.6379547	1.0996304	-0.61348563
1276776484096	2.7649305	3.759216	8.771504	0.1289339	0.0	-15.1875	-1.375	-50.5	0.65730286	1.0818692	-0.634161
1276776484126	2.7240696	3.718355	8.812365	0.13842297	0.0	-15.4375	-1.625	-50.75	0.6778025	1.0888697	-0.6322723
1276776484156	2.4925237	3.718355	8.730643	0.004719734	0.0	-15.1875	-1.375	-51.25	0.673772	1.0970153	-0.59053427
1276776484186	2.6014864	3.759216	8.730643	0.04847908	0.0	-15.1875	-1.375	-51.5	0.65526253	1.0884272	-0.60535616
1276776484216	2.7240696	3.8273177	8.730643	0.107634544	0.0	-14.875	-1.875	-52.0	0.6125437	1.0771534	-0.61856425
1276776484246	2.7240696	3.636633	8.689782	-6.3323975E-4	0.0	-14.875	-1.875	-51.75	0.6312994	1.0890094	-0.6429016
1276776484276	2.6423476	3.5957718	8.62168	-0.09866619	0.0	-14.875	-2.375	-51.25	0.6459756	1.0931994	-0.6337334
1276776484316	2.5606253	3.6774938	8.812365	0.0796299	0.0	-14.625	-2.875	-51.25	0.64820796	1.1003656	-0.6082359
1276776484356	2.4925237	3.8273177	8.921328	0.2158804	0.0	-14.625	-2.625	-51.25	0.6480968	1.0976243	-0.5772503
1276776484396	2.5606253	3.7864566	8.894087	0.19329166	0.0	-14.625	-2.875	-51.25	0.6429581	1.0960613	-0.5946141
1276776484436	2.6423476	3.636633	8.539958	-0.15584755	0.0	-14.375	-2.375	-51.25	0.6083157	1.086271	-0.6283508
1276776484476	2.6423476	3.6774938	8.499097	-0.1764574	0.0	-14.875	-2.625	-51.75	0.6194571	1.0812514	-0.6230467
1276776484516	2.6832085	3.759216	8.853226	0.17888546	0.0	-14.875	-2.875	-51.5	0.63776326	1.0899527	-0.6199066
1276776484556	2.4516625	3.7864566	8.853226	0.12952137	0.0	-15.1875	-2.875	-51.75	0.6745246	1.0995646	-0.5746031
1276776484596	2.6014864	3.7864566	8.853226	0.16754627	0.0	-15.6875	-3.125	-52.25	0.67669576	1.0921363	-0.60198194
1276776484636	2.4925237	3.759216	8.539958	-0.1487379	0.0	-15.6875	-2.625	-52.0	0.6695667	1.0848744	-0.58549
1276776484676	2.7240696	3.718355	8.689782	0.029966354	0.0	-15.6875	-2.125	-52.5	0.6531556	1.0830936	-0.6322723
1276776484716	2.5333846	3.6774938	8.539958	-0.16959286	0.0	-15.9375	-2.125	-52.5	0.6791586	1.0889876	-0.6032298
1276776484746	2.6014864	3.636633	8.62168	-0.09448242	0.0	-15.6875	-1.625	-51.75	0.6819961	1.0923676	-0.6209577
1276776484786	2.5333846	3.718355	8.812365	0.08789253	0.0	-15.6875	-2.125	-51.0	0.7075097	1.0987262	-0.5980778
1276776484826	2.5606253	3.718355	8.662541	-0.038201332	0.0	-16.1875	-2.125	-50.5	0.7265112	1.0903479	-0.6030642
1276776484866	2.7921712	3.759216	8.730643	0.10052204	0.0	-15.9375	-1.875	-50.5	0.68927336	1.0784893	-0.63884723
1276776484906	2.6014864	3.7864566	8.812365	0.1312952	0.0	-15.6875	-2.375	-51.0	0.6925963	1.0902426	-0.60198194
1276776484946	2.4925237	3.8273177	8.921328	0.2158804	0.0	-15.4375	-1.875	-51.5	0.68534315	1.0976243	-0.5772503
1276776484986	2.6014864	3.8273177	8.921328	0.24353313	0.0	-15.1875	-2.625	-51.75	0.6586317	1.0922779	-0.59698194
1276776485026	2.5606253	3.9499009	8.921328	0.28040123	0.0	-14.875	-2.625	-51.75	0.633632	1.0852791	-0.57516223
1276776485066	2.5333846	3.8273177	9.043911	0.3352785	0.0	-15.4375	-2.625	-51.5	0.69303143	1.1011642	-0.5847104
1276776485106	2.4516625	3.445948	8.471856	-0.337883	0.0	-15.1875	-2.875	-51.25	0.6921974	1.1077946	-0.61837757
1276776485136	2.4516625	3.0645783	8.19945	-0.7163658	0.0	-15.1875	-2.125	-51.0	0.7218326	1.1243831	-0.6747409
1276776485176	2.6423476	3.0237172	8.076866	-0.7866373	0.0	-15.4375	-2.125	-51.0	0.6985931	1.109415	-0.7181918
1276776485206	2.8330324	3.336985	8.308413	-0.41563034	0.0	-15.4375	-1.375	-51.5	0.6524031	1.0858907	-0.7039014
1276776485246	2.8330324	3.8273177	8.921328	0.30594254	0.0	-15.4375	-0.625	-52.0	0.64676297	1.0805137	-0.6372083
1276776485276	2.4516625	4.0588636	9.575105	0.8782768	0.0	-15.4375	-0.875	-52.0	0.69669366	1.1109754	-0.54337513
1276776485306	2.2609777	3.9090397	9.466142	0.6814604	0.0	-15.4375	-0.875	-51.5	0.7275431	1.125677	-0.52438366
1276776485346	2.2201166	3.486809	8.853226	-0.03596115	0.0	-15.4375	-1.375	-51.25	0.7525449	1.1339737	-0.5669819
1276776485386	2.4108016	3.2961242	8.499097	-0.3773842	0.0	-15.9375	-1.875	-50.75	0.76960325	1.1228834	-0.6314937
1276776485426	2.4925237	3.486809	8.62168	-0.17836475	0.0	-15.9375	-1.875	-51.25	0.7345327	1.1094486	-0.6206189
1276776485456	2.4925237	3.568531	8.894087	0.09546471	0.0	-16.1875	-1.625	-51.5	0.75492316	1.1156592	-0.60970056
1276776485486	2.4108016	3.718355	8.921328	0.15468597	0.0	-16.1875	-1.625	-51.5	0.75492316	1.1156592	-0.60970056
1276776485526	2.6014864	3.759216	9.00305	0.2905941	0.0	-16.1875	-2.125	-52.0	0.7209353	1.1009423	-0.6053563
1276776485566	2.7240696	3.759216	9.043911	0.3592043	0.0	-15.6875	-2.375	-52.0	0.6848706	1.0965477	-0.62707067
1276776485596	2.5606253	3.718355	8.771504	0.05855465	0.0	-15.1875	-2.375	-52.5	0.6517739	1.0954528	-0.60306424
1276776485626	2.5606253	3.5957718	8.390134	-0.32610607	0.0	-15.1875	-2.375	-52.0	0.64201224	1.0864606	-0.61881477
1276776485656	2.6832085	3.405087	8.19945	-0.53167343	0.0	-14.875	-1.875	-51.5	0.6235213	1.0844358	-0.6673809
1276776485696	2.3018389	3.759216	8.921328	0.14424229	0.0	-15.1875	-1.875	-51.25	0.70196736	1.1118853	-0.5494283
1276776485726	2.6014864	4.2904096	8.921328	0.42884827	0.0	-15.1875	-2.625	-51.25	0.6194561	1.0584702	-0.54507494
1276776485756	3.1463003	4.1814466	8.430995	0.11632252	0.0	-14.875	-2.625	-51.5	0.5254415	1.01531	-0.6450628
1276776485796	3.255263	3.636633	8.308413	-0.17069912	0.0	-15.4375	-3.125	-51.75	0.5510033	1.0396572	-0.7301186
1276776485836	3.214402	3.5957718	8.049625	-0.4227047	0.0	-15.9375	-3.625	-51.5	0.5617601	1.0309899	-0.72945654
1276776485876	3.173541	4.372132	8.539958	0.29868412	0.0	-16.6875	-3.875	-51.5	0.59476817	1.006741	-0.6278695
1276776485916	3.0237172	4.6036777	9.112013	0.84067345	0.0	-17.4375	-4.625	-51.25	0.675841	1.0271013	-0.581144
1276776485956	2.6014864	4.3312707	8.471856	0.0574255	0.0	-18.1875	-5.375	-50.75	0.74177474	1.0330391	-0.5408818
1276776485996	2.6832085	3.9090397	8.008764	-0.49963665	0.0	-18.9375	-5.375	-50.5	0.78066236	1.036267	-0.6015476
1276776486036	2.9147544	4.2086873	8.349273	-0.012815475	0.0	-19.9375	-5.875	-49.5	0.82380116	1.020755	-0.60571295
1276776486076	3.1054392	4.0588636	6.469665	-1.5619736	0.0	-20.1875	-6.125	-49.5	0.620126	0.90222514	-0.6530957
1276776486106	3.5276701	4.2904096	8.049625	-0.0266428	0.0	-19.6875	-6.875	-50.0	0.66817707	0.96679455	-0.688145
1276776486136	2.1792557	5.366417	9.80665	1.5827293	0.0	-19.1875	-7.375	-50.5	0.83505887	1.0373007	-0.3857465
1276776486176	1.1849703	5.175732	7.273266	-0.8014984	0.0	-17.1875	-7.375	-51.25	0.61663705	0.9402038	-0.22506842
1276776486206	2.6423476	4.399372	6.8237944	-1.2684622	0.0	-14.375	-7.625	-51.5	0.4008353	0.9259775	-0.5408747
1276776486236	1.607201	3.7864566	9.915613	0.9283266	0.0	-11.375	-7.625	-51.5	0.6863141	1.177559	-0.40141356
1276776486266	-1.2666923	4.944186	9.724928	1.1762323	0.0	-8.125	-7.875	-51.75	0.47554654	1.0874878	0.25080383
1276776486306	0.3405087	4.2495484	9.00305	0.15475082	0.0	-5.625	-8.375	-51.5	0.33710864	1.1285522	-0.07995738
1276776486346	0.50395286	3.759216	9.234595	0.176507	0.0	-4.0625	-8.375	-51.5	0.25047365	1.1810818	-0.13326344
1276776486406	-0.0	4.5628166	9.697687	0.9108324	0.0	-2.8125	-8.125	-51.75	0.18929408	1.1310213	0.0
1276776486446	-0.6537767	2.982856	10.119919	0.7639513	0.0	-1.0625	-7.375	-52.0	0.30394247	1.2777368	0.21576622
1276776486486	-1.0351465	2.1111538	8.19945	-1.2767344	0.0	0.9375	-5.125	-52.0	0.14760005	1.2915303	0.45587578
1276776486526	-1.7978859	1.4982382	8.921328	-0.58346176	0.0	3.9375	-3.125	-52.0	-0.014402542	1.3142477	0.87605804
1276776486566	-3.1054392	2.2201166	9.507003	0.43814182	0.0	8.25	-0.875	-51.25	-0.31840754	1.1889656	0.9501321
1276776486596	-4.8216033	3.0237172	8.921328	0.7754488	0.0	12.5	0.375	-50.5	-0.36156833	1.0029448	1.010675
1276776486626	-5.012288	3.5276701	8.580819	0.7383938	0.0	17.0625	0.875	-49.5	-0.5337737	0.95054096	0.9575217
1276776486656	-4.8216033	3.636633	6.891896	-0.6430712	0.0	20.8125	1.625	-48.25	-0.60409933	0.8512375	0.92458886
1276776486686	-5.5571017	3.255263	7.3958488	3.2138824E-4	0.0	24.0625	2.125	-47.0	-0.7181413	0.85434663	1.0408951
1276776486726	-6.0882955	2.982856	5.6660647	-0.97098064	0.0	26.625	3.125	-44.5	-0.63530993	0.6961544	1.1152349
1276776486766	-4.8216033	0.23154591	5.012288	-2.8478785	0.0	28.125	4.875	-42.75	-0.5753396	0.80421084	1.5228106
1276776486806	-8.240311	3.405087	2.9556155	-0.41340828	0.0	30.125	6.125	-41.25	-0.5039241	0.32009152	1.1789429
1276776486846	-8.240311	3.1054392	5.284695	0.4634266	0.0	30.375	7.625	-40.25	-0.6981111	0.54050857	1.2103964
1276776486886	-6.510526	1.879608	6.4015636	-0.48463917	0.0	30.375	9.625	-40.0	-1.0193677	0.75696015	1.2897358
1276776486926	-5.938472	-0.50395286	5.012288	-2.0193243	0.0	30.625	10.625	-40.0	-0.65583533	0.699254	1.6554558
1276776486966	-6.5922484	-0.8036005	4.3312707	-1.8780046	0.0	29.625	11.875	-39.75	-0.46269605	0.57791805	1.6920986
1276776487006	-7.8589406	-0.9942854	0.95342433	-1.8278928	0.0	29.875	12.375	-39.25	-0.23740597	0.11978157	1.6966442
1276776487046	-9.425281	-0.3405087	3.486809	0.24868107	0.0	31.375	11.125	-38.5	-0.3786248	0.35411692	1.6069078
1276776487086	-9.043911	-1.334794	3.1463003	-0.13849545	0.0	33.125	8.375	-36.9375	-0.143518	0.33146566	1.7173288
1276776487116	-11.304889	0.10896278	1.1441092	1.5565081	0.0	34.875	4.625	-36.1875	-0.15148878	0.10085675	1.5611581
1276776487146	-12.176591	1.3756552	1.2258313	2.508562	0.0	36.6875	1.125	-34.9375	-0.16655919	0.09970307	1.458298
1276776487176	-10.800936	0.92618364	1.1168685	1.0913048	0.0	37.4375	-1.625	-33.9375	-0.052737918	0.102664486	1.4852552
1276776487206	-10.528529	1.2258313	0.6537767	0.81314373	0.0	37.6875	-3.875	-33.4375	-0.01641164	0.06160104	1.4548887
1276776487236	-10.269742	1.2666923	2.0294318	0.7380495	0.0	38.6875	-5.375	-31.4375	0.02565135	0.19366829	1.448074
1276776487266	-8.880466	0.19068487	2.3018389	-0.6307297	0.0	38.9375	-6.875	-30.1875	0.30142334	0.2535649	1.5493273
1276776487306	-7.5456724	-0.95342433	1.6480621	-2.0244718	0.0	40.1875	-7.875	-27.1875	0.61128205	0.21338965	1.6964841
1276776487346	-7.04172	-0.6946377	0.88532263	-2.675582	0.0	42.1875	-8.625	-22.9375	0.62457466	0.12447123	1.6691242
1276776487386	-6.5922484	0.8036005	-0.84446156	-3.1121278	0.0	43.4375	-9.875	-17.6875	0.19403034	-0.12647912	1.449494
1276776487426	-6.6331096	-0.50395286	-2.9556155	-2.52738	0.0	45.25	-10.125	-11.875	0.43820646	-0.41810766	1.646626
1276776487456	-6.973618	-0.6537767	-2.2609777	-2.4465694	0.0	45.75	-11.375	-8.125	0.6298023	-0.31224376	1.6642731
1276776487486	-6.6331096	0.8036005	-2.1111538	-2.7994475	0.0	45.75	-12.375	-6.375	0.3237906	-0.3060383	1.4502339
1276776487526	-6.891896	3.0645783	-2.2201166	-1.9441581	0.0	45.25	-13.6875	-7.625	-0.27849227	-0.28626174	1.1523886
1276776487566	-6.5513873	3.990762	0.08172209	-2.135044	0.0	42.6875	-16.4375	-11.625	-0.63253075	0.0106527405	1.0236778
1276776487606	-7.1234417	4.862464	2.9556155	-0.6894884	0.0	39.1875	-20.1875	-16.6875	-1.2830099	0.33014643	0.97184366
1276776487636	-9.847511	7.8861814	2.7240696	3.1001663	0.0	33.125	-24.1875	-21.9375	-0.14178936	0.21265584	0.8955496
1276776487676	-10.079058	7.9270425	3.759216	3.5558758	0.0	26.625	-28.1875	-26.4375	0.3724716	0.28517485	0.9043498
1276776487716	-11.495573	9.193735	6.0201936	6.096673	0.0	21.0625	-31.1875	-27.4375	0.75956583	0.3882286	0.8961999
1276776487756	-12.367276	8.62168	2.3699405	5.4543953	0.0	16.3125	-32.9375	-27.1875	0.6804996	0.1559245	0.9619947
1276776487796	-12.217452	6.66035	6.510526	5.556075	0.0	14.0	-33.9375	-26.1875	1.1044437	0.43762246	1.071684
1276776487836	-9.534244	7.7772183	4.2086873	3.197194	0.0	12.75	-34.1875	-24.6875	0.9505073	0.32958403	0.8865467
1276776487876	-4.903325	8.771504	4.7126403	1.2924881	0.0	13.0	-34.1875	-24.9375	0.6366843	0.43851468	0.5097314
1276776487916	-4.5628166	9.343558	0.08172209	0.59181404	0.0	14.25	-33.6875	-25.1875	0.07925945	0.007859135	0.45427474
1276776487956	-7.164303	10.460427	-5.09401	3.857051	0.0	16.3125	-33.9375	-24.4375	0.1551949	-0.3820391	0.6005168
1276776487996	-7.273266	9.084772	-1.9885708	1.9996138	0.0	18.3125	-34.9375	-22.1875	0.25956875	-0.16924028	0.6751065
1276776488036	-6.0201936	8.240311	-0.6946377	0.42213154	0.0	19.3125	-36.6875	-17.4375	0.2911651	-0.067962416	0.63095504
1276776488076	-6.0882955	8.662541	-1.607201	0.90269375	0.0	19.5625	-38.5	-12.9375	0.309097	-0.15064377	0.61262286
1276776488106	-5.8976107	8.539958	-2.9556155	0.9844742	0.0	19.3125	-40.0	-8.625	0.3247084	-0.2774387	0.6043827
1276776488136	-5.938472	8.539958	-5.202973	1.8237953	0.0	19.3125	-40.75	-5.125	0.29385155	-0.46380904	0.6076151
1276776488166	-6.238119	6.8237944	-4.099725	0.30700588	0.0	19.5625	-40.75	-2.875	0.5744751	-0.41737837	0.7405898
1276776488196	-5.366417	4.9850473	-1.879608	-2.2447686	0.0	20.5625	-40.5	-0.125	0.9711767	-0.25119695	0.8222236
1276776488226	-5.597963	5.2165933	-4.140586	-1.1063919	0.0	21.5625	-39.5	2.875	0.6734247	-0.49600443	0.8206481
1276776488256	-6.2789803	5.407278	-6.510526	0.7314329	0.0	22.5625	-38.25	5.625	0.58437747	-0.66595376	0.8598524
1276776488286	-5.366417	3.3778462	-6.510526	-0.7184582	0.0	23.5625	-36.9375	8.125	0.6890464	-0.7985886	1.0090094
1276776488326	-3.718355	1.6889231	-4.9850473	-3.3623257	0.0	25.125	-35.9375	10.875	0.78605616	-0.8844337	1.1444448
1276776488366	-0.9125633	1.2666923	-2.1111538	-7.1809597	0.0	26.375	-34.9375	12.9375	-0.035542328	-0.9340549	0.62430626
1276776488406	-4.3312707	2.070293	-1.2258313	-4.8519874	0.0	27.875	-34.4375	13.4375	1.733299	-0.25000587	1.1249133
1276776488436	-6.3198414	3.214402	-4.0180025	-1.6569805	0.0	28.875	-34.1875	11.875	1.048769	-0.5155649	1.100276
1276776488466	-6.469665	4.2495484	-6.5922484	0.36059952	0.0	28.875	-34.6875	9.375	0.562164	-0.70545554	0.9896262
1276776488506	-3.173541	4.7535014	-4.944186	-2.2493944	0.0	28.625	-35.1875	7.125	-0.17492543	-0.7131645	0.5886635
1276776488546	-4.5900574	5.7886477	-2.6423476	-1.9606915	0.0	27.875	-36.1875	5.125	0.060757514	-0.34349307	0.67042196
1276776488586	-7.164303	7.5865335	-1.334794	0.71306515	0.0	26.875	-37.75	4.125	1.3056602	-0.12722796	0.75678176
1276776488616	-8.853226	7.5456724	-2.982856	2.2022715	0.0	25.125	-38.25	2.875	1.0055288	-0.25101438	0.86496407
1276776488646	-7.3549876	6.6331096	-3.336985	0.644639	0.0	23.0625	-40.0	1.625	0.8517576	-0.32497945	0.836959
1276776488676	-6.891896	6.2789803	-3.5276701	0.1617136	0.0	20.5625	-41.0	0.625	0.8463448	-0.36172333	0.8319003
1276776488716	-7.3549876	6.1291566	-2.2609777	0.030749321	0.0	18.0625	-41.75	-0.125	1.1388835	-0.23190804	0.876058
1276776488756	-6.5922484	6.5922484	-1.4165162	-0.37680435	0.0	16.0625	-42.75	-0.875	1.2103783	-0.15078701	0.7853982
1276776488796	-5.175732	7.1234417	-0.50395286	-0.98703575	0.0	14.0	-43.25	-2.125	1.2559427	-0.05717115	0.6283414
1276776488836	-5.8158884	8.281172	-0.5720546	0.32891178	0.0	11.25	-44.25	-3.625	1.2150829	-0.056470353	0.61226964
1276776488866	-5.134871	8.771504	-0.10896278	0.3578987	0.0	8.5	-45.0	-5.375	1.20847	-0.010720088	0.5296178
1276776488906	-4.3312707	9.425281	-0.61291564	0.5842829	0.0	6.0	-45.5	-6.875	0.96172863	-0.05901988	0.43075702
1276776488966	-3.5957718	9.112013	0.14982383	-0.009671211	0.0	3.4375	-45.75	-7.875	1.0835466	0.015293457	0.3758588
1276776489006	-3.7864566	8.62168	0.14982383	-0.38895035	0.0	1.6875	-45.25	-8.375	1.1374351	0.01590942	0.41381842
1276776489046	-3.7864566	8.430995	0.27240697	-0.5604	0.0	0.4375	-45.0	-8.875	1.1693597	0.029465608	0.42211476
1276776489086	-3.3642259	9.275456	-0.27240697	0.06382656	0.0	-1.0625	-45.0	-8.875	1.0203723	-0.027601661	0.34794542
1276776489116	-3.445948	8.921328	-0.0	-0.24293518	0.0	-2.0625	-44.5	-9.375	1.0896629	-0.0	0.36860532
1276776489146	-3.718355	8.430995	0.42223078	-0.58243656	0.0	-2.5625	-44.75	-10.375	1.174496	0.045790177	0.4153728
1276776489176	-3.255263	8.853226	0.313268	-0.36872196	0.0	-3.3125	-44.75	-10.125	1.1295102	0.033198554	0.3523486
1276776489206	-2.3018389	9.275456	-0.29964766	-0.24514675	0.0	-4.0625	-45.25	-10.375	0.9025731	-0.031344105	0.24325038
1276776489236	-2.3426998	8.894087	-0.50395286	-0.5954075	0.0	-4.3125	-46.0	-10.375	0.8951565	-0.05473796	0.25754985
1276776489266	-3.214402	8.662541	0.6946377	-0.5408783	0.0	-4.8125	-46.0	-9.625	1.2643887	0.075038545	0.35532
1276776489296	-3.0645783	8.580819	0.7218784	-0.66645336	0.0	-4.8125	-46.0	-9.875	1.2543296	0.07906077	0.34302393
1276776489336	-3.1463003	9.343558	0.19068487	0.054265022	0.0	-4.0625	-45.25	-10.625	1.0781258	0.019338647	0.32480866
1276776489376	-3.759216	9.00305	0.23154591	-0.047540665	0.0	-4.0625	-45.0	-11.125	1.1212873	0.023728356	0.39554283
1276776489416	-3.3642259	8.853226	0.27240697	-0.331851	0.0	-4.0625	-44.75	-11.875	1.0727437	0.028754648	0.36314702
1276776489456	-2.6832085	9.00305	0.040861044	-0.41217327	0.0	-3.8125	-44.75	-11.875	0.9524133	0.0043494888	0.2896515
1276776489486	-2.7240696	8.812365	-0.0	-0.58285904	0.0	-4.3125	-45.25	-11.625	0.9840185	-0.0	0.29980174
1276776489526	-3.0237172	9.084772	-0.0	-0.2318945	0.0	-4.3125	-45.25	-11.375	1.0166545	-0.0	0.3213007
1276776489566	-3.1463003	9.084772	0.50395286	-0.17928028	0.0	-3.8125	-45.25	-10.625	1.1410707	0.052369785	0.33339876
1276776489596	-2.5606253	9.302697	0.23154591	-0.15519524	0.0	-3.5625	-45.5	-10.625	1.0169147	0.02399308	0.26860443
1276776489626	-2.3018389	9.193735	0.23154591	-0.32631016	0.0	-3.3125	-45.25	-10.375	0.99011296	0.024426226	0.24532722
1276776489656	-2.3018389	9.343558	0.19068487	-0.18184376	0.0	-3.3125	-45.25	-10.125	0.9873416	0.019813111	0.24154581
1276776489686	-2.6423476	9.534244	-0.0	0.086974144	0.0	-3.8125	-45.25	-10.125	0.9997242	-0.0	0.27035734
1276776489726	-3.173541	8.812365	0.23154591	-0.4374056	0.0	-4.0625	-45.0	-10.125	1.1251372	0.024715919	0.34566504
1276776489766	-3.1463003	8.471856	0.46309182	-0.7575617	0.0	-3.5625	-45.0	-10.375	1.1605613	0.051197883	0.35559553
1276776489806	-3.5276701	8.471856	1.3756552	-0.52714443	0.0	-3.8125	-45.25	-11.375	1.323777	0.14879505	0.39456278
1276776489846	-4.440233	9.466142	0.88532263	0.686553	0.0	-3.0625	-45.5	-12.375	1.1853418	0.08447148	0.43859455
1276776489886	-4.4810944	8.921328	0.53119355	0.19097233	0.0	-3.0625	-45.0	-14.1875	1.085195	0.05315702	0.465478
1276776489926	-3.9771416	7.205164	0.88532263	-1.5292206	0.0	-3.0625	-44.75	-15.1875	1.1434917	0.1071612	0.50436586
1276776489966	-3.5276701	7.3141265	1.4165162	-1.5636282	0.0	-2.0625	-44.0	-15.4375	1.1836269	0.17270151	0.44939503
1276776490006	-1.6889231	11.073342	-0.53119355	1.4073381	0.0	-1.8125	-43.5	-15.9375	0.43557	-0.047386564	0.15135507
1276776490046	-2.8330324	9.00305	0.6537767	-0.34576225	0.0	-0.5625	-43.75	-15.9375	0.8094245	0.06915822	0.30486488
1276776490086	-3.5957718	8.049625	0.6537767	-0.9662056	0.0	0.4375	-43.5	-15.6875	0.93893325	0.0740205	0.42010668
1276776490116	-4.1814466	7.668256	1.0351465	-1.011301	0.0	1.1875	-43.5	-15.9375	1.0531527	0.1179659	0.49922222
1276776490146	-4.5219555	8.62168	1.2666923	0.010985374	0.0	1.9375	-43.5	-16.4375	1.0256056	0.1293828	0.48304442
1276776490176	-4.4810944	8.499097	1.0351465	-0.14298725	0.0	2.4375	-43.0	-16.6875	0.9651013	0.10732331	0.4852042
1276776490206	-4.440233	8.430995	1.1168685	-0.21265507	0.0	2.4375	-43.25	-17.1875	0.96434706	0.11667784	0.48474422
1276776490246	-4.0588636	8.894087	1.1168685	0.03339863	0.0	2.4375	-43.25	-17.4375	0.89014584	0.11374746	0.4281264
1276776490286	-4.2904096	7.273266	0.95342433	-1.3085899	0.0	2.4375	-43.0	-17.6875	0.9787238	0.11242988	0.53295076
1276776490316	-4.4810944	8.62168	0.38136974	-0.08250427	0.0	2.4375	-43.5	-17.9375	0.8300944	0.039228905	0.47932032
1276776490356	-3.8681788	9.384419	0.8036005	0.37548637	0.0	2.9375	-43.0	-17.6875	0.75920933	0.07900474	0.390972
1276776490396	-4.862464	8.580819	1.3756552	0.15158463	0.0	3.6875	-43.0	-17.6875	0.97878283	0.13858566	0.515549
1276776490436	-3.636633	7.164303	0.7627395	-1.7360792	0.0	4.4375	-43.25	-17.4375	0.8571431	0.09464999	0.46971276
1276776490476	-4.399372	8.117727	0.84446156	-0.534914	0.0	4.6875	-42.5	-16.9375	0.88269174	0.091205515	0.4966389
1276776490516	-3.1054392	8.921328	1.6889231	-0.21048927	0.0	4.4375	-42.25	-17.9375	0.7515674	0.17692141	0.33497366
1276776490556	-3.0237172	7.6954966	0.53119355	-1.5213804	0.0	4.4375	-41.75	-18.6875	0.60655	0.06415701	0.37438837
1276776490596	-4.372132	8.471856	0.53119355	-0.25834942	0.0	3.6875	-41.25	-19.6875	0.7286814	0.055661	0.4764265
1276776490626	-3.8273177	8.430995	0.9942854	-0.4943657	0.0	3.1875	-41.25	-21.1875	0.6965702	0.106975295	0.42614055
1276776490657	-2.3018389	7.8180795	1.5390993	-1.5126972	0.0	2.4375	-41.25	-21.9375	0.5841521	0.18665074	0.2863344
1276776490696	-1.4982382	7.8589406	2.3699405	-1.462534	0.0	0.6875	-40.75	-22.9375	0.58129257	0.28798977	0.18838078
1276776490736	-3.405087	9.343558	1.0351465	0.19176102	0.0	-1.3125	-40.25	-23.6875	0.6514567	0.10371695	0.3494731
1276776490776	-3.0237172	9.997335	1.607201	0.7608795	0.0	-3.8125	-39.5	-23.9375	0.69541174	0.15268113	0.2937051
1276776490816	-1.7570249	9.997335	2.8330324	0.7318468	0.0	-6.375	-38.75	-23.6875	0.7905794	0.27217498	0.17397262
1276776490856	-0.88532263	8.962189	2.4516625	-0.473094	0.0	-9.125	-38.75	-23.4375	0.7920067	0.26579025	0.09846474
1276776490896	-0.53119355	8.240311	2.4108016	-1.2045078	0.0	-10.875	-38.5	-22.9375	0.8612256	0.28406075	0.06437374
1276776490936	-0.53119355	8.471856	1.4165162	-1.200778	0.0	-12.125	-38.5	-22.4375	0.73874587	0.16535124	0.06261899
1276776490976	-0.46309182	9.507003	1.6889231	-0.13969517	0.0	-13.375	-38.5	-22.4375	0.7770849	0.17561223	0.048672132
1276776491016	-0.10896278	9.234595	2.0294318	-0.35105896	0.0	-13.875	-38.25	-21.6875	0.83354473	0.21631065	0.011798863
1276776491056	-0.14982383	9.466142	2.0294318	-0.12424946	0.0	-14.875	-38.0	-21.1875	0.87961596	0.21116592	0.015826017
1276776491096	-0.7627395	10.269742	1.7978859	0.64714146	0.0	-15.9375	-37.4375	-20.4375	0.9302131	0.17284341	0.07413445
1276776491126	-0.14982383	10.038197	1.6480621	0.36703873	0.0	-17.1875	-36.9375	-20.1875	0.903316	0.16270956	0.0149242645
1276776491157	0.6946377	9.847511	2.070293	0.2800789	0.0	-18.4375	-36.6875	-20.6875	0.90299225	0.20671831	-0.07042277
1276776491196	-0.10896278	9.507003	1.8387469	-0.12285137	0.0	-18.6875	-36.6875	-20.6875	0.95967066	0.19103858	0.0114608165
1276776491226	0.38136974	9.615966	1.7297841	-0.0289011	0.0	-18.9375	-36.1875	-20.9375	0.89303863	0.1778463	-0.039639283
1276776491256	0.14982383	9.888372	1.3756552	0.17807674	0.0	-18.9375	-35.9375	-20.4375	0.87841874	0.13821559	-0.015150357
1276776491286	0.14982383	10.147159	1.334794	0.42901993	0.0	-18.4375	-35.9375	-19.6875	0.8801209	0.1307786	-0.014764029
1276776491316	0.27240697	10.079058	1.6889231	0.41656208	0.0	-18.4375	-35.4375	-19.4375	0.92252135	0.1659656	-0.027020449
1276776491356	-0.10896278	9.888372	1.8387469	0.2518177	0.0	-18.9375	-35.9375	-18.9375	1.0120246	0.18383965	0.011018838
1276776491396	0.53119355	9.697687	1.7978859	0.07058048	0.0	-18.4375	-35.9375	-18.4375	0.9640315	0.1830437	-0.054720595
1276776491436	0.61291564	9.507003	1.7297841	-0.124144554	0.0	-18.4375	-35.9375	-17.6875	0.980247	0.17961468	-0.06438081
1276776491466	0.6946377	9.343558	1.7297841	-0.2789669	0.0	-18.6875	-36.1875	-17.6875	0.98476225	0.18256597	-0.07420751
1276776491506	0.53119355	9.384419	1.6889231	-0.25667858	0.0	-18.4375	-36.1875	-17.9375	0.9755401	0.1777862	-0.056543436
1276776491566	0.313268	9.466142	1.5390993	-0.21108818	0.0	-18.4375	-36.6875	-18.4375	0.9534788	0.16109286	-0.033081453
1276776491606	0.3405087	9.275456	1.9477097	-0.3227892	0.0	-18.6875	-36.4375	-18.9375	1.0089475	0.20684274	-0.036694244
1276776491636	0.23154591	9.193735	1.607201	-0.4706192	0.0	-18.6875	-36.4375	-18.9375	1.0089475	0.20684274	-0.036694244
1276776491666	0.08172209	9.193735	1.3756552	-0.5102062	0.0	-18.9375	-36.4375	-18.9375	0.94992405	0.14852192	-0.008888654
1276776491696	0.27240697	9.234595	1.6480621	-0.42219162	0.0	-19.4375	-36.4375	-18.9375	0.9862012	0.17653157	-0.029489977
1276776491736	0.50395286	9.112013	2.2201166	-0.4145441	0.0	-19.4375	-36.6875	-18.6875	1.0819665	0.23863973	-0.05525014
1276776491776	0.27240697	9.00305	1.4982382	-0.6757231	0.0	-19.6875	-36.9375	-18.1875	1.0050865	0.16482925	-0.03024796
1276776491816	0.42223078	8.921328	1.1168685	-0.8057747	0.0	-19.6875	-36.6875	-18.1875	0.9295874	0.12440507	-0.047292955
1276776491856	0.040861044	8.390134	1.2666923	-1.3213377	0.0	-19.9375	-36.1875	-17.9375	1.0133133	0.14984064	-0.0048700916
1276776491896	-0.14982383	9.425281	1.4982382	-0.26185703	0.0	-20.9375	-36.1875	-17.4375	1.0764352	0.15762101	0.015894616
1276776491936	1.7570249	10.228881	1.4982382	0.6796198	0.0	-22.1875	-35.6875	-16.9375	0.9548389	0.14336681	-0.1701109
1276776491976	2.3426998	9.193735	0.42223078	-0.30974102	0.0	-23.6875	-35.1875	-15.4375	0.8075773	0.044474468	-0.24950509
1276776492016	2.0294318	8.894087	1.6480621	-0.53629494	0.0	-24.9375	-34.9375	-14.1875	1.1745659	0.17872769	-0.2243369
1276776492056	1.56634	9.234595	1.8387469	-0.26138115	0.0	-26.0	-33.9375	-12.9375	1.3059946	0.19384609	-0.16801743
1276776492096	2.5606253	9.615966	1.3075534	0.22994709	0.0	-26.75	-33.1875	-11.875	1.2015318	0.13064992	-0.2602497
1276776492126	2.8738933	9.615966	1.2666923	0.30920696	0.0	-27.0	-33.6875	-11.875	1.1753638	0.12554803	-0.29041687
1276776492156	2.982856	9.193735	1.6480621	-0.0016355515	0.0	-27.5	-33.6875	-12.125	1.2555547	0.16888528	-0.31372932
1276776492196	2.6832085	8.921328	1.3075534	-0.3992386	0.0	-27.5	-33.9375	-13.4375	1.1361045	0.1394433	-0.29215696
1276776492226	2.1111538	9.00305	0.9942854	-0.50608635	0.0	-27.5	-33.9375	-13.9375	1.1012275	0.10711062	-0.23033161
1276776492256	1.7570249	9.043911	1.2258313	-0.5124521	0.0	-27.75	-33.4375	-13.9375	1.1721194	0.13227752	-0.19188677
1276776492286	1.334794	9.043911	1.0760075	-0.60166264	0.0	-27.75	-32.9375	-13.9375	1.171325	0.11716183	-0.14653249
1276776492316	1.4165162	9.112013	1.1168685	-0.51780224	0.0	-28.0	-32.1875	-13.4375	1.1937351	0.12052919	-0.15422148
1276776492356	1.9885708	9.084772	1.6480621	-0.36188412	0.0	-27.75	-32.1875	-12.9375	1.2725817	0.17539263	-0.21549183
1276776492396	2.3018389	9.084772	1.7297841	-0.27650356	0.0	-27.75	-32.1875	-12.9375	1.2725817	0.17539263	-0.21549183
1276776492436	2.0294318	9.084772	1.607201	-0.3602352	0.0	-27.5	-32.4375	-12.6875	1.2716366	0.17097044	-0.21977988
1276776492476	2.070293	9.043911	1.607201	-0.390625	0.0	-28.0	-32.6875	-12.6875	1.2795149	0.17152771	-0.22503829
1276776492516	2.2609777	9.112013	1.607201	-0.28174114	0.0	-28.25	-32.6875	-13.9375	1.2162257	0.16954777	-0.24321933
1276776492556	1.9885708	9.343558	1.56634	-0.12626171	0.0	-27.75	-32.6875	-14.1875	1.2006053	0.16251998	-0.2096992
1276776492596	2.3018389	9.152874	1.334794	-0.27484894	0.0	-28.0	-32.6875	-14.1875	1.1470661	0.14049764	-0.24637873
1276776492626	2.4516625	8.894087	1.4982382	-0.45998478	0.0	-27.5	-32.4375	-14.6875	1.135813	0.16099109	-0.26897117
1276776492656	2.5333846	8.689782	1.8387469	-0.5702362	0.0	-27.5	-32.9375	-14.6875	1.2057682	0.2004148	-0.2836737
1276776492686	2.2609777	9.043911	1.0760075	-0.4225073	0.0	-28.0	-32.4375	-14.9375	1.0743897	0.11491506	-0.24497867
1276776492716	1.6480621	9.112013	1.4982382	-0.42637253	0.0	-28.5	-31.6875	-15.6875	1.1623924	0.1604092	-0.17893256
1276776492756	1.6480621	9.112013	1.8387469	-0.36600018	0.0	-28.75	-31.9375	-15.9375	1.2105913	0.19602203	-0.17893256
1276776492796	2.4925237	9.043911	1.6480621	-0.28188705	0.0	-28.5	-31.4375	-15.1875	1.1567246	0.17390443	-0.26892617
1276776492846	2.3699405	9.00305	1.6480621	-0.3521471	0.0	-28.25	-31.4375	-15.1875	1.1605183	0.17521013	-0.2573982
1276776492886	1.7570249	9.384419	1.4165162	-0.15465641	0.0	-27.5	-32.1875	-14.4375	1.1719425	0.14729092	-0.18508504
1276776492926	1.3756552	9.275456	1.1849703	-0.35515976	0.0	-27.0	-31.9375	-13.9375	1.1685189	0.1257047	-0.14723802
1276776492966	3.336985	8.62168	1.3756552	-0.45992565	0.0	-26.75	-32.1875	-14.1875	1.0195892	0.14771707	-0.3692893
1276776493006	2.152015	8.771504	1.6889231	-0.61845493	0.0	-26.75	-32.6875	-13.6875	1.2301861	0.18486562	-0.24058951
1276776493046	1.6480621	9.275456	1.4165162	-0.28001785	0.0	-26.75	-32.6875	-13.9375	1.1880453	0.14924355	-0.17584474
1276776493086	2.3699405	8.812365	1.0760075	-0.61795235	0.0	-26.75	-33.1875	-13.4375	1.0991865	0.117370486	-0.26271757
1276776493116	2.3699405	9.084772	1.334794	-0.32343483	0.0	-27.5	-33.1875	-13.4375	1.1662345	0.14122228	-0.2551824
1276776493146	2.2201166	9.043911	1.0760075	-0.43226814	0.0	-27.5	-32.6875	-13.6875	1.1180501	0.115035236	-0.24072185
1276776493176	2.152015	8.689782	0.95342433	-0.8037338	0.0	-27.75	-32.4375	-13.4375	1.1175828	0.10610068	-0.24276464
1276776493206	2.152015	9.234595	1.334794	-0.23112965	0.0	-28.0	-32.4375	-13.4375	1.1879613	0.13985194	-0.22895218
1276776493236	2.3426998	9.234595	0.5720546	-0.26237202	0.0	-27.75	-32.4375	-13.4375	1.0394858	0.059972864	-0.24844606
1276776493266	2.3018389	9.112013	0.46309182	-0.39699078	0.0	-27.75	-32.9375	-12.375	1.0641648	0.0492344	-0.24743912
1276776493296	2.5606253	9.112013	0.46309182	-0.33036232	0.0	-27.75	-33.1875	-11.125	1.0930368	0.048887953	-0.273951
1276776493326	2.2201166	9.043911	0.7218784	-0.46628857	0.0	-28.0	-33.1875	-9.625	1.2414817	0.07736307	-0.24072185
1276776493366	2.1111538	9.507003	0.92618364	-0.02412033	0.0	-27.75	-33.4375	-7.125	1.3994732	0.09481933	-0.21851723
1276776493406	2.5606253	9.234595	-0.9125633	-0.18026352	0.0	-28.25	-33.9375	-6.125	1.0709943	-0.094940685	-0.27049038
1276776493446	2.6014864	9.193735	-0.19068487	-0.2500372	0.0	-28.5	-33.6875	-5.625	1.2322869	-0.01995451	-0.27575412
1276776493476	2.3018389	9.152874	-0.23154591	-0.3659315	0.0	-28.5	-33.9375	-6.375	1.2079586	-0.024528759	-0.24637873
1276776493516	2.070293	9.193735	0.10896278	-0.38206768	0.0	-28.75	-33.9375	-6.875	1.2686331	0.011561808	-0.2214907
1276776493556	2.3426998	9.193735	0.040861044	-0.31904316	0.0	-28.75	-33.1875	-6.625	1.2535892	0.0043067946	-0.24950509
1276776493596	2.2609777	9.112013	-0.19068487	-0.41638088	0.0	-29.25	-33.4375	-6.125	1.2425544	-0.02030804	-0.24321933
1276776493626	2.1792557	9.112013	-0.08172209	-0.4373064	0.0	-29.0	-33.1875	-5.625	1.2874367	-0.008722397	-0.23475336
1276776493656	2.2201166	9.193735	0.08172209	-0.3483019	0.0	-29.5	-33.4375	-5.625	1.3223221	0.008640314	-0.23694529
1276776493686	2.3018389	9.193735	0.10896278	-0.3285122	0.0	-29.5	-33.9375	-6.125	1.2996553	0.011496476	-0.2453272
1276776493716	2.3699405	9.112013	0.14982383	-0.39029026	0.0	-29.0	-33.9375	-6.625	1.2733204	0.015911683	-0.25445205
1276776493756	2.5333846	9.234595	0.10896278	-0.23023891	0.0	-29.25	-33.9375	-5.875	1.2963418	0.011378494	-0.26774904
1276776493796	2.3426998	9.112013	-0.19068487	-0.39636993	0.0	-28.5	-33.9375	-5.625	1.2467103	-0.02026485	-0.2516499
1276776493836	0.27240697	8.076866	0.7218784	-1.6930151	0.0	-28.25	-33.9375	-5.125	1.4970207	0.08908883	-0.033714037
1276776493866	-0.9125633	8.921328	-2.1792557	-0.5777817	0.0	-27.75	-33.9375	-7.125	1.1412106	-0.2383861	0.10193554
1276776493906	4.0588636	11.223166	-0.14982383	2.1288548	0.0	-27.5	-33.6875	-8.625	1.0053887	-0.012553114	-0.34701592
1276776493946	4.3312707	8.158588	3.9090397	0.22345734	0.0	-28.0	-33.1875	-9.375	2.282429	0.400339	-0.4880491
1276776493986	3.255263	8.349273	1.3075534	-0.7503376	0.0	-27.75	-33.4375	-9.875	1.2991464	0.14488672	-0.37175697
1276776494026	1.9885708	9.507003	-0.5720546	-0.07706833	0.0	-28.0	-33.6875	-8.125	1.1020195	-0.058829326	-0.20619622
1276776494066	2.1111538	9.425281	-0.9125633	-0.10481262	0.0	-28.25	-33.9375	-8.125	1.0415703	-0.09420012	-0.22035141
1276776494126	2.152015	9.152874	1.0351465	-0.34737968	0.0	-28.5	-34.1875	-8.375	1.3741134	0.10965156	-0.23092477
1276776494156	2.0294318	9.152874	1.3075534	-0.34074402	0.0	-29.25	-33.9375	-9.125	1.4033015	0.13857603	-0.2181962
1276776494186	2.2201166	9.193735	0.61291564	-0.32881546	0.0	-29.5	-33.9375	-9.875	1.2330528	0.06471348	-0.23694529
1276776494216	2.5606253	9.152874	0.040861044	-0.30225277	0.0	-29.5	-33.6875	-9.625	1.1160986	0.0042991857	-0.27278787
1276776494246	2.6014864	9.112013	0.14982383	-0.32936382	0.0	-29.25	-33.1875	-9.875	1.1183704	0.015809385	-0.27810222
1276776494276	2.6014864	9.084772	0.8036005	-0.3226328	0.0	-29.5	-33.1875	-10.125	1.2355717	0.08483379	-0.2788936
1276776494306	2.4925237	9.084772	0.92618364	-0.34073353	0.0	-29.75	-32.9375	-10.125	1.2699118	0.09800085	-0.26777375
1276776494346	2.4516625	9.152874	0.53119355	-0.3162384	0.0	-29.25	-33.1875	-10.375	1.1783392	0.05600087	-0.26171347
1276776494386	2.2609777	9.112013	0.313268	-0.41309166	0.0	-29.5	-33.6875	-10.375	1.1557332	0.033355422	-0.24321935
1276776494426	2.3426998	9.152874	0.3405087	-0.35258865	0.0	-28.75	-33.4375	-10.375	1.1419078	0.03602498	-0.250573
1276776494466	2.3699405	9.152874	0.61291564	-0.3320856	0.0	-28.5	-33.4375	-10.375	1.1852	0.06473584	-0.25336424
1276776494506	2.3699405	9.112013	0.6537767	-0.36881065	0.0	-29.0	-33.4375	-10.375	1.2016197	0.069327384	-0.25445208
1276776494546	2.4516625	9.112013	0.46309182	-0.3592224	0.0	-28.75	-32.9375	-10.375	1.1568503	0.04903742	-0.2628339
1276776494586	2.3018389	9.152874	0.42223078	-0.35933113	0.0	-29.0	-32.6875	-10.625	1.1556823	0.04470808	-0.24637873
1276776494616	2.2609777	9.112013	0.5720546	-0.40090466	0.0	-29.0	-32.1875	-10.875	1.1746585	0.06085726	-0.24321933
1276776494646	2.3426998	9.112013	0.53119355	-0.38331795	0.0	-28.5	-31.6875	-10.375	1.1753509	0.05639993	-0.2516499
1276776494686	2.3018389	9.084772	0.42223078	-0.42529488	0.0	-28.5	-31.6875	-10.625	1.1484947	0.045022648	-0.24815102
1276776494716	2.3426998	9.152874	0.46309182	-0.34737968	0.0	-28.5	-31.9375	-10.375	1.1632056	0.048975978	-0.250573
1276776494756	2.2609777	9.152874	0.5720546	-0.36131382	0.0	-28.25	-32.1875	-10.125	1.1937536	0.06060186	-0.24217558
1276776494796	2.3018389	9.112013	0.42223078	-0.39891338	0.0	-28.75	-32.4375	-10.625	1.1513524	0.04489631	-0.24743912
1276776494836	2.3018389	9.152874	0.50395286	-0.3553257	0.0	-28.75	-32.4375	-10.375	1.1765196	0.053346172	-0.24637873
1276776494876	2.3426998	9.084772	0.5720546	-0.40725803	0.0	-28.75	-32.4375	-10.375	1.1765196	0.053346172	-0.24637873
1276776494916	2.3426998	9.152874	0.50395286	-0.34529114	0.0	-29.0	-32.6875	-10.625	1.167029	0.05328954	-0.25057298
1276776494963	2.2609777	9.152874	0.5720546	-0.36131382	0.0	-29.0	-33.1875	-10.625	1.1836909	0.06060186	-0.24217558
1276776495017	2.3018389	9.152874	0.50395286	-0.3553257	0.0	-28.75	-33.4375	-10.375	1.174371	0.053346172	-0.24637873
1276776495056	2.2609777	9.112013	0.5720546	-0.40090466	0.0	-28.25	-33.1875	-10.125	1.1919324	0.06085726	-0.24321933
1276776495086	2.4925237	9.193735	0.46309182	-0.26978016	0.0	-28.25	-32.9375	-10.125	1.1560326	0.048577156	-0.26474717
1276776495116	2.8738933	9.112013	0.53119355	-0.23741817	0.0	-28.0	-32.6875	-9.875	1.1445111	0.055539124	-0.30552113
1276776495146	3.0645783	8.921328	0.9942854	-0.32138157	0.0	-28.0	-32.4375	-9.625	1.2440678	0.105017096	-0.33088276
1276776495186	2.3699405	9.234595	0.88532263	-0.2317791	0.0	-28.0	-32.4375	-9.375	1.27603	0.0925954	-0.2512156
1276776495216	2.4108016	9.234595	-0.46309182	-0.25132847	0.0	-27.5	-32.4375	-9.375	1.0235002	-0.048483275	-0.25536254
1276776495246	2.2609777	9.152874	-1.0351465	-0.3219967	0.0	-27.75	-32.4375	-9.875	0.940507	-0.109356925	-0.2421756
1276776495276	1.9477097	9.234595	-0.27240697	-0.36495972	0.0	-28.0	-32.6875	-10.625	1.054968	-0.028855508	-0.20786788
1276776495316	1.9477097	9.152874	0.7218784	-0.4210348	0.0	-28.25	-33.1875	-10.625	1.2173998	0.07698931	-0.20967013
1276776495346	2.152015	9.112013	1.1168685	-0.3775816	0.0	-28.5	-33.1875	-10.125	1.3060361	0.11872824	-0.23192365
1276776495396	2.070293	9.084772	0.53119355	-0.47383976	0.0	-28.25	-33.1875	-9.375	1.2296516	0.05694756	-0.22405973
1276776495436	2.1111538	9.193735	0.23154591	-0.3707962	0.0	-27.5	-33.4375	-9.125	1.1706386	0.02454141	-0.22571659
1276776495466	2.2201166	9.152874	0.46309182	-0.37699127	0.0	-27.5	-33.4375	-9.625	1.1829014	0.0491299	-0.23796369
1276776495506	2.3699405	9.112013	0.7218784	-0.3638487	0.0	-27.75	-33.6875	-9.625	1.2274209	0.07652214	-0.25445205
1276776495546	2.3426998	9.152874	0.6537767	-0.3361292	0.0	-27.75	-33.9375	-9.875	1.2034518	0.06908776	-0.250573
1276776495586	2.2609777	9.152874	0.313268	-0.37345028	0.0	-28.0	-33.4375	-9.625	1.1612635	0.0332152	-0.2421756
1276776495616	2.3018389	9.112013	0.10896278	-0.40776157	0.0	-27.75	-32.6875	-8.875	1.1513057	0.011593415	-0.24743912
1276776495646	2.2609777	9.112013	0.14982383	-0.4171219	0.0	-27.75	-33.1875	-8.625	1.1710081	0.01595716	-0.24321935
1276776495686	2.4108016	9.112013	0.27240697	-0.3771782	0.0	-27.75	-33.1875	-8.375	1.1948007	0.028892908	-0.25864765
1276776495716	2.4516625	9.152874	0.38136974	-0.32344437	0.0	-28.25	-33.1875	-8.375	1.2227511	0.040226124	-0.2617135
1276776495756	2.3699405	9.152874	0.3405087	-0.34580135	0.0	-28.75	-33.9375	-8.625	1.2151781	0.035999123	-0.2533642
1276776495796	2.3018389	9.193735	0.313268	-0.3239622	0.0	-28.5	-33.4375	-8.875	1.2009441	0.033041794	-0.24532722
1276776495836	2.2201166	9.234595	0.08172209	-0.30857944	0.0	-28.5	-32.9375	-8.875	1.1673589	0.008604179	-0.23593545
1276776495876	2.2609777	9.193735	-0.0	-0.33897972	0.0	-28.25	-33.1875	-8.625	1.1544924	-0.0	-0.24114057
1276776495916	2.3699405	9.152874	0.19068487	-0.350008	0.0	-28.5	-33.4375	-8.375	1.1950971	0.020165486	-0.2533642
1276776495986	2.5606253	9.193735	0.14982383	-0.2618084	0.0	-28.5	-33.1875	-7.875	1.1981249	0.015697483	-0.27163437
1276776496026	2.3699405	9.193735	0.040861044	-0.31228065	0.0	-28.75	-33.6875	-8.125	1.182273	0.004303727	-0.2522854
1276776496066	2.4516625	9.112013	-0.08172209	-0.3702259	0.0	-29.0	-33.6875	-8.375	1.1454177	-0.008660389	-0.2628339
1276776496106	2.2201166	9.00305	0.53119355	-0.51870155	0.0	-29.0	-32.9375	-8.875	1.2544912	0.057222925	-0.2417724
1276776496146	2.070293	9.302697	-0.19068487	-0.27445984	0.0	-29.75	-32.6875	-9.375	1.1378212	-0.020005642	-0.21897899
1276776496176	2.4925237	9.152874	0.38136974	-0.3127985	0.0	-29.5	-32.4375	-9.625	1.1871613	0.04018099	-0.26587427
1276776496206	2.9147544	9.00305	0.88532263	-0.30220413	0.0	-29.75	-32.1875	-9.875	1.2492298	0.09328349	-0.3131026
1276776496236	2.5333846	9.043911	0.53119355	-0.3996029	0.0	-29.25	-32.1875	-9.875	1.1960514	0.05649767	-0.27312043
1276776496266	2.1792557	9.152874	0.46309182	-0.38652802	0.0	-28.75	-32.9375	-10.125	1.1871339	0.049179677	-0.23374318
1276776496306	2.1111538	9.152874	0.6946377	-0.38780785	0.0	-28.75	-32.9375	-10.375	1.2216793	0.07381681	-0.22669016
1276776496336	2.1111538	9.112013	0.61291564	-0.43320847	0.0	-28.25	-33.4375	-10.375	1.1982423	0.06543522	-0.22767201
1276776496366	2.070293	9.152874	0.5720546	-0.4051361	0.0	-28.0	-33.4375	-10.375	1.1893309	0.060884684	-0.22244726
1276776496406	2.1792557	9.234595	0.6537767	-0.29590225	0.0	-28.25	-33.1875	-10.375	1.2018307	0.068795085	-0.23174827
1276776496446	2.1111538	9.112013	0.7218784	-0.4254532	0.0	-28.5	-33.1875	-10.125	1.2334055	0.077025644	-0.22767201
1276776496476	2.0294318	9.193735	0.5720546	-0.37422752	0.0	-28.5	-32.6875	-10.375	1.2013782	0.060684927	-0.21725674
1276776496516	2.152015	9.112013	0.3405087	-0.4377718	0.0	-29.0	-33.1875	-10.625	1.1506149	0.036352664	-0.23192365
1276776496556	2.3699405	9.084772	0.9942854	-0.36534214	0.0	-28.5	-32.9375	-11.375	1.2132038	0.105507895	-0.25518242
1276776496596	2.3018389	9.152874	0.6946377	-0.34324265	0.0	-28.5	-32.9375	-11.125	1.172929	0.073468566	-0.24637873
1276776496626	2.3018389	9.112013	-0.10896278	-0.40776157	0.0	-28.75	-33.4375	-11.125	1.03898	-0.011593415	-0.24743912
1276776496656	2.3018389	9.112013	0.19068487	-0.40645885	0.0	-28.5	-33.4375	-10.875	1.0927562	0.020286603	-0.24743912
1276776496696	2.4108016	9.152874	0.46309182	-0.33028412	0.0	-28.75	-33.4375	-9.625	1.1920125	0.04888755	-0.25754344
1276776496726	2.5606253	9.084772	0.42223078	-0.3584671	0.0	-28.5	-33.4375	-9.875	1.156154	0.044703986	-0.27473176
1276776496766	2.152015	9.193735	0.23154591	-0.36157036	0.0	-28.25	-33.4375	-9.875	1.149302	0.024517434	-0.2299343
1276776496806	2.4108016	9.275456	0.14982383	-0.22184372	0.0	-28.5	-32.9375	-9.875	1.1232597	0.015632026	-0.25428554
1276776496846	2.6423476	9.112013	0.313268	-0.31407833	0.0	-28.0	-33.4375	-9.875	1.118004	0.03300738	-0.28224364
1276776496886	2.3018389	9.152874	0.38136974	-0.36106873	0.0	-28.25	-33.4375	-9.875	1.1644553	0.040386442	-0.24637873
1276776496926	2.4925237	9.193735	0.23154591	-0.27821636	0.0	-28.25	-33.1875	-9.375	1.1455975	0.024302913	-0.26474717
1276776496956	2.5606253	9.152874	0.23154591	-0.2995205	0.0	-28.0	-33.4375	-9.125	1.1445158	0.024357384	-0.2727879
1276776496986	2.2609777	9.152874	0.38136974	-0.37094307	0.0	-28.25	-33.1875	-9.625	1.1790755	0.040428728	-0.24217558
1276776497026	1.879608	9.275456	0.3405087	-0.33654118	0.0	-28.25	-33.1875	-9.625	1.1790755	0.040428728	-0.24217558
1276776497056	1.7978859	9.193735	0.42223078	-0.4292612	0.0	-28.5	-33.1875	-9.875	1.209923	0.045041703	-0.19311842
1276776497086	1.334794	9.00305	-0.5720546	-0.68722916	0.0	-29.0	-32.6875	-10.375	1.0838763	-0.06277048	-0.14718801
1276776497116	1.2666923	9.275456	-3.173541	0.07818508	0.0	-29.0	-32.6875	-10.125	0.85254854	-0.32683954	-0.13572429
1276776497146	3.1463003	9.656827	2.3018389	0.607378	0.0	-28.75	-32.9375	-8.875	1.5845245	0.22287305	-0.31496522
1276776497176	3.2961242	9.043911	2.8738933	0.23904705	0.0	-28.5	-32.9375	-8.125	1.8148671	0.29013544	-0.34949636
1276776497206	3.0645783	8.771504	1.4165162	-0.40785027	0.0	-28.25	-33.6875	-7.625	1.4848409	0.15128893	-0.33612135
1276776497236	2.7240696	9.112013	-0.0	-0.2961645	0.0	-28.25	-33.4375	-7.625	1.1596541	-0.0	-0.2904966
1276776497266	2.5333846	9.425281	-0.50395286	-0.033834457	0.0	-28.25	-32.6875	-8.625	1.0565408	-0.051589683	-0.26258007
1276776497306	2.4516625	9.507003	-0.08172209	0.011721611	0.0	-28.5	-32.6875	-9.125	1.1183244	-0.008323481	-0.25238094
1276776497336	2.4516625	9.615966	1.7297841	0.26656246	0.0	-28.5	-32.4375	-8.875	1.4622333	0.17257656	-0.24963906
1276776497366	2.6014864	9.915613	1.1441092	0.5081978	0.0	-28.75	-32.6875	-8.875	1.3439549	0.11114738	-0.25657982
1276776497406	2.3426998	9.915613	-0.84446156	0.41688824	0.0	-28.75	-32.9375	-9.375	1.0198869	-0.08269395	-0.23200923
1276776497446	1.920469	9.084772	-0.8036005	-0.4864006	0.0	-28.75	-32.9375	-10.625	0.9937244	-0.086328104	-0.20832723
1276776497476	2.3018389	8.308413	0.14982383	-1.1839695	0.0	-28.75	-32.6875	-12.125	1.0282477	0.017376425	-0.27027032
1276776497516	3.0237172	8.539958	1.0351465	-0.6882467	0.0	-29.0	-32.4375	-13.4375	1.0820212	0.11376803	-0.34029338
1276776497556	2.7649305	9.00305	1.7570249	-0.22610283	0.0	-29.75	-32.1875	-14.6875	1.2086762	0.18443896	-0.29796728
1276776497596	2.152015	8.62168	1.607201	-0.77627754	0.0	-30.0	-31.4375	-15.4375	1.195437	0.17893049	-0.24460691
1276776497626	2.4925237	8.539958	1.3756552	-0.80465126	0.0	-30.75	-31.1875	-16.1875	1.1181613	0.15341775	-0.28397784
1276776497656	3.3778462	9.193735	1.6889231	0.13251877	0.0	-30.75	-30.6875	-16.9375	1.0704663	0.17075458	-0.3520976
1276776497696	3.9499009	8.921328	2.1111538	0.17577267	0.0	-30.5	-30.4375	-17.1875	1.0808765	0.21309625	-0.4168069
1276776497726	3.990762	8.117727	2.4516625	-0.43465328	0.0	-30.25	-30.4375	-17.6875	1.1321976	0.26467383	-0.4569137
1276776497766	3.3778462	8.281172	2.4925237	-0.5222368	0.0	-29.5	-30.4375	-18.4375	1.1434988	0.27179733	-0.3872936
1276776497806	2.1111538	8.962189	2.4925237	-0.26775742	0.0	-30.0	-30.1875	-19.1875	1.1851183	0.26436996	-0.23134476
1276776497846	1.5390993	9.00305	3.2961242	-0.096440315	0.0	-30.0	-30.4375	-19.6875	1.3063622	0.3463314	-0.16931634
1276776497886	1.607201	9.384419	1.3756552	-0.18673134	0.0	-29.75	-30.4375	-20.1875	1.0164874	0.14349262	-0.16961712
1276776497926	3.336985	8.430995	3.8273177	0.035377502	0.0	-29.5	-29.9375	-19.6875	1.3846296	0.39941007	-0.37688017
1276776497966	2.5333846	8.812365	3.5276701	0.017822266	0.0	-28.75	-30.1875	-19.4375	1.3234315	0.3672709	-0.27993196
1276776498006	2.9556155	8.730643	1.0760075	-0.5266943	0.0	-28.5	-30.4375	-19.6875	0.84962004	0.11621103	-0.3264234
1276776498036	2.982856	8.812365	1.607201	-0.36534214	0.0	-28.25	-30.4375	-19.1875	0.9383866	0.17106384	-0.32638016
1276776498076	3.3778462	9.234595	1.9885708	0.22539902	0.0	-28.0	-30.9375	-19.1875	0.9526977	0.19954339	-0.35066453
1276776498106	3.445948	8.894087	2.4925237	0.05195141	0.0	-27.5	-30.9375	-18.9375	1.0386819	0.2556014	-0.36963436
1276776498136	3.173541	8.771504	3.214402	0.059607506	0.0	-27.25	-30.9375	-18.4375	1.255017	0.33185512	-0.34714925
1276776498166	2.9556155	9.00305	3.214402	0.19949532	0.0	-27.5	-31.4375	-17.6875	1.3075266	0.32704154	-0.31720513
1276776498206	2.4516625	8.580819	2.4925237	-0.54091835	0.0	-27.75	-31.4375	-16.9375	1.2432859	0.2723593	-0.27829963
1276776498236	1.8387469	8.117727	1.920469	-1.264596	0.0	-27.75	-31.9375	-16.6875	1.1956658	0.22676365	-0.22275127
1276776498266	1.6480621	8.281172	0.61291564	-1.3408613	0.0	-27.5	-31.9375	-16.1875	0.99410367	0.072462514	-0.19644648
1276776498306	2.5333846	8.771504	-1.4165162	-0.56739426	0.0	-27.25	-32.1875	-16.4375	0.6617718	-0.15392204	-0.2811685
1276776498336	2.982856	9.915613	-1.920469	0.72449493	0.0	-26.75	-32.9375	-16.1875	0.61003983	-0.18338707	-0.29221272
1276776498366	3.173541	10.882658	-0.95342433	1.5693159	0.0	-26.75	-33.4375	-14.6875	0.7377466	-0.08390884	-0.28374603
1276776498406	2.8330324	9.234595	2.152015	0.08956051	0.0	-26.25	-34.1875	-13.1875	1.3057386	0.21920988	-0.2976696
1276776498446	2.1792557	8.580819	2.0294318	-0.7237978	0.0	-25.5	-34.9375	-11.125	1.4549581	0.22533768	-0.24870999
1276776498486	3.255263	9.275456	-2.1792557	0.26211262	0.0	-25.25	-35.1875	-9.875	0.5785947	-0.21816377	-0.3375249
1276776498526	1.2666923	9.343558	-1.334794	-0.2836113	0.0	-24.6875	-35.6875	-9.125	0.93698096	-0.14062777	-0.13474703
1276776498566	0.19068487	9.302697	-0.29964766	-0.49717522	0.0	-24.4375	-35.9375	-8.625	1.1788905	-0.032192945	-0.020494934
1276776498606	0.19068487	9.656827	0.08172209	-0.14759445	0.0	-24.4375	-35.9375	-7.625	1.2716357	0.008460771	-0.019743554
1276776498636	-0.08172209	9.615966	0.42223078	-0.18107224	0.0	-24.4375	-36.6875	-7.125	1.3514209	0.043879576	0.008498378
1276776498666	0.10896278	9.656827	0.6537767	-0.12710476	0.0	-24.4375	-36.9375	-6.875	1.3917943	0.06759355	-0.011283019
1276776498706	0.6537767	9.765789	0.38136974	-0.011574745	0.0	-24.4375	-37.1875	-6.125	1.3632196	0.038944688	-0.066845864
1276776498736	1.0760075	9.656827	0.14982383	-0.08890629	0.0	-24.1875	-37.75	-6.625	1.2771703	0.0154181635	-0.11096682
1276776498776	1.4573772	9.302697	-0.0	-0.39048767	0.0	-23.6875	-37.75	-6.125	1.2351757	-0.0	-0.1553987
1276776498816	1.2666923	9.534244	-0.42223078	-0.17936707	0.0	-23.4375	-38.25	-5.375	1.1955209	-0.0438718	-0.13208362
1276776498846	1.2666923	9.575105	-0.88532263	-0.10763264	0.0	-23.6875	-38.0	-6.125	1.0827192	-0.09140685	-0.13152646
1276776498886	2.8738933	9.656827	-1.7978859	0.42789745	0.0	-23.9375	-37.75	-6.375	0.7218075	-0.17658462	-0.28925556
1276776498926	0.46309182	9.043911	-1.334794	-0.6530466	0.0	-23.9375	-37.75	-6.625	1.06295	-0.14634348	-0.051160134
1276776498966	0.88532263	9.697687	-1.9885708	0.1323309	0.0	-23.9375	-36.9375	-6.875	0.953708	-0.20143746	-0.091039784
1276776499006	2.5606253	9.466142	-1.6889231	0.14408398	0.0	-23.6875	-36.6875	-6.125	0.7925646	-0.17055416	-0.26418114
1276776499046	3.0237172	8.853226	-0.50395286	-0.43774223	0.0	-24.1875	-36.1875	-5.875	0.9426716	-0.053815898	-0.32911688
1276776499086	2.6014864	9.234595	0.50395286	-0.19939041	0.0	-24.4375	-35.6875	-5.625	1.3253735	0.052479506	-0.27459455
1276776499116	2.3699405	9.152874	-0.3405087	-0.34580135	0.0	-24.9375	-35.6875	-6.375	1.0945232	-0.035999123	-0.2533642
1276776499146	2.1792557	9.466142	-1.0351465	-0.037898064	0.0	-25.25	-35.6875	-7.125	0.97023267	-0.10616439	-0.22627337
1276776499176	1.5390993	9.697687	-0.5720546	0.029061317	0.0	-24.9375	-35.9375	-6.875	1.1217005	-0.058193818	-0.15739514
1276776499206	1.7570249	9.466142	-0.10896278	-0.17821026	0.0	-25.5	-35.6875	-7.375	1.1718181	-0.011317005	-0.18352298
1276776499236	2.5333846	9.112013	-0.7627395	-0.31831074	0.0	-25.25	-35.4375	-7.125	0.95980144	-0.08047387	-0.2711781
1276776499266	2.3699405	9.193735	-1.3075534	-0.22275352	0.0	-25.5	-35.1875	-7.125	0.9019061	-0.13685918	-0.25228542
1276776499296	1.7297841	9.234595	-1.1849703	-0.3370123	0.0	-26.0	-34.9375	-7.125	1.0117003	-0.12546253	-0.18516985
1276776499336	1.2666923	9.302697	-0.6537767	-0.3953743	0.0	-26.25	-35.1875	-7.125	1.1398484	-0.06952337	-0.1353317
1276776499366	1.0351465	9.302697	-0.14982383	-0.4453392	0.0	-26.25	-35.6875	-7.625	1.2146097	-0.01600526	-0.110817924
1276776499396	0.92618364	9.384419	0.040861044	-0.37654877	0.0	-26.0	-36.1875	-7.875	1.2382869	0.0043330574	-0.09837518
1276776499436	1.0760075	9.507003	-0.0	-0.23894978	0.0	-25.75	-36.1875	-8.375	1.1996098	-0.0	-0.112700924
1276776499466	1.7297841	9.507003	-0.38136974	-0.13603973	0.0	-25.75	-35.9375	-8.125	1.0968604	-0.039446183	-0.17997956
1276776499506	2.3699405	9.384419	-0.53119355	-0.11303806	0.0	-26.25	-35.6875	-7.875	1.0266982	-0.05482577	-0.24736775
1276776499546	2.7921712	9.275456	-0.5720546	-0.10316849	0.0	-26.75	-35.4375	-7.125	1.0148699	-0.058987744	-0.29239956
1276776499586	2.7921712	9.193735	-0.88532263	-0.15756798	0.0	-26.5	-35.4375	-6.625	0.96571183	-0.09188123	-0.2948512
1276776499616	2.6014864	9.234595	-1.1441092	-0.14463902	0.0	-26.5	-35.9375	-6.125	0.96027976	-0.118691646	-0.27459455
1276776499646	2.4108016	9.234595	-1.1168685	-0.19742966	0.0	-26.5	-35.6875	-5.875	1.0020859	-0.11649213	-0.25536254
1276776499676	2.3699405	9.302697	-0.9125633	-0.16354084	0.0	-26.25	-35.6875	-5.625	1.0523549	-0.09477555	-0.24945214
1276776499716	2.3426998	9.384419	-0.8036005	-0.100912094	0.0	-26.5	-35.9375	-5.625	1.082959	-0.08289132	-0.24463713
1276776499746	2.1111538	9.302697	-0.8036005	-0.23361969	0.0	-26.25	-35.6875	-6.375	1.0668218	-0.08404311	-0.22316018
1276776499786	1.879608	9.275456	-0.88532263	-0.30134487	0.0	-25.5	-35.9375	-6.375	1.0560143	-0.09327503	-0.19993578
1276776499826	1.879608	9.302697	-0.9125633	-0.27219296	0.0	-25.5	-36.1875	-6.625	1.0396627	-0.09585888	-0.19936574
1276776499866	1.879608	9.343558	-0.84446156	-0.23857212	0.0	-25.5	-36.1875	-6.625	1.0396627	-0.09585888	-0.19936574
1276776499906	1.7978859	9.343558	-0.8036005	-0.25781536	0.0	-25.5	-35.9375	-6.375	1.0810784	-0.084256575	-0.19009641
1276776499946	1.9477097	9.343558	-0.88532263	-0.22127342	0.0	-25.75	-35.6875	-6.375	1.0593896	-0.092493616	-0.20551182
1276776499986	1.920469	9.343558	-0.8036005	-0.23397827	0.0	-25.75	-35.6875	-6.125	1.0872061	-0.08404627	-0.20271616
1276776500026	1.9477097	9.302697	-0.88532263	-0.26109886	0.0	-26.0	-35.1875	-5.875	1.0889188	-0.09288063	-0.20638914
1276776500066	2.070293	9.302697	-0.88532263	-0.2353344	0.0	-25.75	-35.4375	-5.875	1.0689868	-0.092629895	-0.218979
1276776500106	1.9477097	9.302697	-0.84446156	-0.26480198	0.0	-25.75	-35.6875	-5.625	1.0975281	-0.08861677	-0.20638913
1276776500136	2.0294318	9.275456	-0.95342433	-0.26402473	0.0	-25.75	-35.6875	-5.875	1.0575526	-0.10007914	-0.2154015
1276776500166	2.070293	9.302697	-0.9125633	-0.23277664	0.0	-25.5	-36.4375	-6.125	1.0377746	-0.09546302	-0.21897899
1276776500206	2.0294318	9.302697	-0.8036005	-0.2513094	0.0	-25.75	-36.4375	-6.375	1.0573157	-0.08419906	-0.21479
1276776500236	1.9885708	9.343558	-0.8036005	-0.22008324	0.0	-26.0	-36.4375	-6.375	1.0688668	-0.08392416	-0.2096992
1276776500266	1.9885708	9.302697	-0.88532263	-0.25267792	0.0	-25.75	-36.1875	-6.375	1.0491265	-0.09279853	-0.21059334
1276776500296	2.1111538	9.343558	-0.95342433	-0.18022442	0.0	-25.75	-36.1875	-6.625	1.0148407	-0.099205054	-0.22221613
1276776500336	2.2609777	9.384419	-0.84446156	-0.1168375	0.0	-25.25	-36.4375	-5.875	1.0374105	-0.08726012	-0.23642309
1276776500366	2.3018389	9.384419	-0.7627395	-0.1139946	0.0	-25.25	-35.6875	-6.125	1.0445429	-0.07877396	-0.24053426
1276776500396	2.2609777	9.466142	-0.84446156	-0.037670135	0.0	-24.9375	-35.9375	-6.625	1.0040547	-0.08655118	-0.2344563
1276776500436	1.9885708	9.384419	-0.88532263	-0.17308712	0.0	-24.4375	-35.4375	-6.875	1.0058357	-0.09202966	-0.2088125
1276776500476	1.6889231	9.343558	-0.88532263	-0.27049065	0.0	-24.4375	-35.1875	-7.875	0.9985229	-0.09297237	-0.17882708
1276776500516	1.8387469	9.275456	-1.0760075	-0.2896719	0.0	-23.6875	-35.9375	-7.375	0.94127685	-0.11330416	-0.19570065
1276776500556	1.879608	9.343558	-0.6537767	-0.25351334	0.0	-24.1875	-35.9375	-6.875	1.047289	-0.06848935	-0.19851665
1276776500596	1.6889231	9.384419	-0.3405087	-0.26538563	0.0	-24.6875	-36.1875	-6.125	1.1714836	-0.035695586	-0.17806482
1276776500626	1.56634	9.384419	-0.3405087	-0.28631973	0.0	-25.25	-36.1875	-5.875	1.2032127	-0.035774108	-0.16538404
1276776500656	1.4982382	9.507003	-0.46309182	-0.17118073	0.0	-25.75	-36.1875	-6.625	1.1641508	-0.04807968	-0.1563076
1276776500696	1.5390993	9.507003	-0.53119355	-0.161232	0.0	-25.5	-36.1875	-7.125	1.1233124	-0.05509999	-0.16049863
1276776500726	1.607201	9.425281	-0.53119355	-0.23057747	0.0	-25.75	-36.1875	-8.125	1.0793205	-0.055499405	-0.16889574
1276776500756	1.4982382	9.302697	-0.46309182	-0.37270355	0.0	-25.5	-36.6875	-8.125	1.0898799	-0.04910755	-0.15968296
1276776500796	1.56634	9.384419	-0.50395286	-0.27907372	0.0	-25.75	-36.6875	-8.125	1.0837685	-0.052918825	-0.16538402
1276776500826	1.7570249	9.384419	-0.84446156	-0.22189236	0.0	-25.75	-36.6875	-7.875	1.0184249	-0.08821902	-0.18508506
1276776500866	1.879608	9.234595	-0.7218784	-0.35510063	0.0	-25.25	-36.9375	-7.375	1.0271124	-0.07645118	-0.20079693
1276776500906	1.8387469	9.302697	-0.61291564	-0.30418587	0.0	-25.5	-36.6875	-7.125	1.0720624	-0.06454551	-0.19514205
1276776500946	1.9885708	9.275456	-0.88532263	-0.2791996	0.0	-24.9375	-36.4375	-6.625	1.0153357	-0.0930576	-0.21119364
1276776500986	2.5333846	9.343558	-0.8036005	-0.09243965	0.0	-24.9375	-35.9375	-6.125	0.9953075	-0.082818866	-0.26477128
1276776501026	2.7649305	9.302697	-0.61291564	-0.08241844	0.0	-24.9375	-35.9375	-5.875	1.015281	-0.06307153	-0.28890267
1276776501066	2.4108016	9.302697	-0.9125633	-0.15341663	0.0	-24.9375	-35.6875	-5.625	1.0138594	-0.09467585	-0.25357246
1276776501106	2.0294318	9.343558	-0.88532263	-0.20433426	0.0	-25.25	-36.1875	-5.625	1.0675465	-0.092329994	-0.21387912
1276776501136	1.7297841	9.384419	-0.6537767	-0.2417717	0.0	-25.5	-36.4375	-6.625	1.1011672	-0.068405144	-0.18227914
1276776501166	1.3756552	9.302697	-0.53119355	-0.3877983	0.0	-26.0	-36.4375	-7.125	1.140402	-0.056426786	-0.14681304
1276776501196	1.2258313	9.384419	-0.5720546	-0.3252344	0.0	-25.5	-36.1875	-7.375	1.129659	-0.060370967	-0.12988868
1276776501226	1.3075534	9.507003	-0.6946377	-0.18504333	0.0	-25.5	-35.9375	-7.625	1.0976301	-0.072258465	-0.13667832
1276776501256	1.607201	9.343558	-0.8036005	-0.2918749	0.0	-24.9375	-36.1875	-6.875	1.0647748	-0.084558904	-0.17034467
1276776501286	1.920469	9.275456	-0.84446156	-0.29689693	0.0	-24.1875	-35.9375	-6.625	1.0161555	-0.08891664	-0.20416366
1276776501326	1.9885708	9.234595	-0.88532263	-0.3189764	0.0	-24.6875	-36.1875	-6.875	0.9988842	-0.09344888	-0.21210039
1276776501356	1.9477097	9.302697	-0.88532263	-0.26109886	0.0	-24.6875	-36.1875	-6.875	0.9988842	-0.09344888	-0.21210039
1276776501386	2.0294318	9.343558	-0.84446156	-0.20801544	0.0	-25.5	-36.1875	-7.125	1.015924	-0.08809115	-0.21387914
1276776501416	2.070293	9.384419	-0.6946377	-0.17150784	0.0	-26.0	-36.1875	-6.625	1.0730855	-0.07215678	-0.21713167
1276776501456	2.070293	9.343558	-0.53119355	-0.2217474	0.0	-26.0	-36.1875	-6.125	1.1252022	-0.055448227	-0.21805148
1276776501486	1.9885708	9.343558	-0.6537767	-0.23147869	0.0	-26.5	-35.9375	-5.625	1.1438373	-0.06833149	-0.2096992
1276776501526	1.879608	9.384419	-0.6946377	-0.21067333	0.0	-25.75	-35.9375	-5.375	1.1437484	-0.0724518	-0.19767466
1276776501566	1.7978859	9.302697	-0.5720546	-0.31455803	0.0	-25.5	-35.9375	-5.125	1.178666	-0.060302984	-0.19091131
1276776501606	1.879608	9.384419	-0.6537767	-0.21354389	0.0	-25.25	-35.6875	-5.375	1.1433656	-0.06820354	-0.19767466
1276776501636	1.879608	9.302697	-0.7627395	-0.2853651	0.0	-24.6875	-35.9375	-5.625	1.0941254	-0.08019481	-0.19936572
1276776501666	1.920469	9.275456	-0.88532263	-0.29318142	0.0	-25.25	-35.6875	-5.875	1.069776	-0.09319477	-0.20416366
1276776501706	2.0294318	9.343558	-0.95342433	-0.1978159	0.0	-25.5	-35.6875	-6.125	1.0438104	-0.099387266	-0.21387911
1276776501736	2.1792557	9.343558	-0.9942854	-0.16093445	0.0	-25.75	-35.6875	-5.625	1.0479792	-0.10326395	-0.22913978
1276776501776	2.3018389	9.275456	-1.0760075	-0.1894598	0.0	-26.0	-35.6875	-5.375	1.033305	-0.11211852	-0.24325038
1276776501816	2.3018389	9.302697	-1.1849703	-0.15041924	0.0	-25.75	-35.9375	-4.875	1.0277022	-0.12302571	-0.24256574
1276776501856	2.2609777	9.343558	-1.1441092	-0.12558174	0.0	-26.25	-36.1875	-4.125	1.0847682	-0.11845691	-0.23741868
1276776501896	2.1111538	9.302697	-0.9125633	-0.22385693	0.0	-26.25	-36.4375	-4.125	1.1407286	-0.09537389	-0.22316018
1276776501936	2.0294318	9.302697	-0.95342433	-0.23754406	0.0	-26.0	-35.9375	-4.375	1.1284544	-0.099801265	-0.21479
1276776501976	1.920469	9.384419	-0.88532263	-0.18691349	0.0	-25.75	-35.6875	-4.625	1.1403437	-0.09216232	-0.20185734
1276776502016	1.7978859	9.302697	-0.7218784	-0.3043518	0.0	-24.6875	-35.6875	-4.875	1.1470637	-0.076042086	-0.19091131
1276776502056	1.920469	9.275456	-0.6537767	-0.3119297	0.0	-24.1875	-35.4375	-5.125	1.1272331	-0.068911396	-0.20416366
1276776502096	1.9885708	9.275456	-0.6946377	-0.29502392	0.0	-23.9375	-36.1875	-4.875	1.1120846	-0.073095456	-0.21119362
1276776502126	1.879608	9.275456	-0.7627395	-0.31197834	0.0	-24.6875	-36.4375	-4.875	1.1241561	-0.08042008	-0.1999358
1276776502156	1.7978859	9.302697	-0.6946377	-0.30638218	0.0	-24.9375	-36.4375	-5.375	1.1284378	-0.073183	-0.19091131
1276776502186	1.7978859	9.343558	-0.5720546	-0.27450848	0.0	-25.25	-36.9375	-6.125	1.1221105	-0.060049314	-0.19009642
1276776502216	1.879608	9.343558	-0.5720546	-0.2587576	0.0	-25.75	-36.6875	-6.625	1.1041403	-0.059950132	-0.19851664
1276776502246	1.920469	9.384419	-0.46309182	-0.21655178	0.0	-25.5	-36.9375	-7.125	1.0925705	-0.048307322	-0.20185733
1276776502276	1.7570249	9.302697	-0.42223078	-0.33006954	0.0	-25.75	-36.4375	-7.375	1.1112218	-0.04456994	-0.18667364
1276776502306	1.6889231	9.302697	-0.5720546	-0.33459187	0.0	-26.0	-35.9375	-7.125	1.1093693	-0.060430683	-0.17959581
1276776502346	1.9477097	9.275456	-0.8036005	-0.29489708	0.0	-25.75	-35.9375	-7.375	1.0271634	-0.08458584	-0.20697813
1276776502376	2.070293	9.234595	-0.7627395	-0.31214523	0.0	-25.75	-35.4375	-7.375	1.0237515	-0.08042149	-0.2205422
1276776502406	2.0294318	9.302697	-0.7218784	-0.25783443	0.0	-25.5	-35.6875	-7.625	1.0191741	-0.07567093	-0.21478999
1276776502446	2.0294318	9.343558	-0.8036005	-0.21152401	0.0	-25.25	-36.4375	-7.125	1.0146202	-0.083849125	-0.21387912
1276776502486	2.1111538	9.343558	-0.7627395	-0.19723701	0.0	-24.9375	-36.9375	-6.875	1.0106614	-0.07945778	-0.22221613
1276776502526	2.3699405	9.343558	-0.95342433	-0.12017918	0.0	-24.9375	-37.4375	-6.375	0.95819294	-0.09858808	-0.24840567
1276776502566	2.4516625	9.343558	-1.0760075	-0.08705521	0.0	-24.9375	-36.9375	-6.125	0.94116956	-0.11093236	-0.25660604
1276776502606	2.152015	9.384419	-0.9125633	-0.13549328	0.0	-24.6875	-35.9375	-6.625	0.9943479	-0.094499856	-0.22542042
1276776502636	1.9477097	9.302697	-0.84446156	-0.26480198	0.0	-25.25	-35.4375	-7.125	1.0239364	-0.08861677	-0.20638913
1276776502666	1.7978859	9.275456	-0.7218784	-0.33101845	0.0	-25.25	-35.1875	-7.375	1.0511261	-0.076256506	-0.1914584
1276776502706	1.4573772	9.234595	-0.61291564	-0.43769264	0.0	-25.5	-35.4375	-7.625	1.0939459	-0.06546658	-0.15652615
1276776502736	1.3075534	9.302697	-0.53119355	-0.39750385	0.0	-26.0	-36.1875	-8.375	1.0981503	-0.056485053	-0.13964157
1276776502766	1.4573772	9.343558	-0.50395286	-0.33669853	0.0	-26.25	-35.9375	-8.375	1.0966526	-0.05324114	-0.15472993
1276776502806	1.6480621	9.275456	-0.38136974	-0.37820148	0.0	-26.25	-35.9375	-8.125	1.1089433	-0.04045987	-0.17584474
1276776502846	1.6889231	9.343558	-0.50395286	-0.29831123	0.0	-26.0	-36.4375	-8.125	1.0779781	-0.053025994	-0.17882708
1276776502886	1.8387469	9.466142	-0.6946377	-0.13859177	0.0	-25.75	-36.1875	-7.125	1.0719651	-0.07191069	-0.19185545
1276776502926	2.1111538	9.384419	-0.7218784	-0.16064548	0.0	-24.9375	-36.6875	-6.125	1.0565392	-0.07490707	-0.2212799
1276776502966	2.3426998	9.234595	-0.8036005	-0.24569988	0.0	-24.6875	-36.9375	-5.875	1.0076288	-0.084149554	-0.24844608
1276776503016	1.879608	9.343558	-0.6946377	-0.25062943	0.0	-24.9375	-36.9375	-5.375	1.1179725	-0.07275528	-0.19851664
1276776503056	1.4573772	9.425281	-0.61291564	-0.24968815	0.0	-25.5	-36.9375	-4.625	1.2177355	-0.06417694	-0.15340938
1276776503096	1.7570249	9.466142	-1.0351465	-0.12333965	0.0	-25.5	-36.6875	-4.875	1.1066127	-0.10710472	-0.18352297
1276776503126	2.1792557	9.425281	-1.2258313	-0.055356026	0.0	-25.75	-36.1875	-4.875	1.0375259	-0.12604307	-0.22722097
1276776503156	2.1792557	9.275456	-1.1441092	-0.21018028	0.0	-25.75	-35.9375	-4.875	1.0478082	-0.119506136	-0.23076326
1276776503186	1.920469	9.234595	-1.1441092	-0.3053379	0.0	-24.9375	-35.6875	-5.625	1.0255247	-0.120708846	-0.20504199
1276776503216	1.7297841	9.302697	-1.3075534	-0.2545805	0.0	-24.9375	-36.1875	-4.875	1.0477142	-0.13731807	-0.18384473
1276776503246	1.7297841	9.343558	-1.3075534	-0.21478271	0.0	-25.25	-36.4375	-4.625	1.0643638	-0.13674472	-0.18305862
1276776503276	1.9477097	9.425281	-1.1168685	-0.11764145	0.0	-24.6875	-36.6875	-4.625	1.0634774	-0.115528524	-0.20377904
1276776503306	2.0294318	9.384419	-0.84446156	-0.16823578	0.0	-24.4375	-36.9375	-4.875	1.0858372	-0.08772664	-0.21297583
1276776503346	1.879608	9.343558	-0.9125633	-0.23232079	0.0	-24.4375	-36.6875	-5.125	1.0775554	-0.095458455	-0.19851665
1276776503376	1.7297841	9.302697	-0.9942854	-0.2924013	0.0	-24.1875	-37.1875	-5.375	1.0550009	-0.104696035	-0.18384473
1276776503406	1.7978859	9.275456	-0.9942854	-0.30638218	0.0	-24.1875	-36.9375	-5.125	1.0597426	-0.10485067	-0.1914584
1276776503436	1.8387469	9.343558	-0.9125633	-0.24025917	0.0	-24.9375	-37.1875	-4.875	1.1002814	-0.095537916	-0.19431001
1276776503466	1.7978859	9.343558	-0.84446156	-0.25429058	0.0	-25.5	-37.1875	-5.125	1.1182137	-0.088519014	-0.19009642
1276776503496	1.6889231	9.384419	-0.7627395	-0.24100494	0.0	-25.25	-36.4375	-5.125	1.1458536	-0.079822116	-0.17806482
1276776503536	1.607201	9.384419	-0.6946377	-0.260293	0.0	-25.5	-36.6875	-5.375	1.1575657	-0.07282905	-0.16961712
1276776503576	1.7570249	9.384419	-0.7218784	-0.23191357	0.0	-25.5	-36.6875	-4.625	1.1734926	-0.07546569	-0.18508504
1276776503616	1.7297841	9.384419	-0.7627395	-0.23370647	0.0	-25.25	-36.6875	-4.125	1.1865609	-0.079761125	-0.18227912
1276776503646	1.6480621	9.343558	-0.8036005	-0.2848873	0.0	-24.6875	-37.4375	-3.875	1.1801196	-0.0844967	-0.17458905
1276776503676	1.6480621	9.343558	-0.88532263	-0.27764225	0.0	-24.9375	-36.9375	-4.125	1.1606083	-0.093042344	-0.17458905
1276776503716	1.7570249	9.343558	-0.9125633	-0.2556305	0.0	-24.6875	-36.6875	-4.125	1.1422458	-0.09569214	-0.18587598
