#timestamp	accel_x	accel_y	accel_z	accel_mag	temperature	mag_x	mag_y	mag_z	azimuth	pitch	roll
1276873067161	2.1111538	0.313268	0.0	-7.6723804	0.0	-18.9375	-16.625	0.0	-1.5707964	0.0	-1.4234842
1276873067200	2.2609777	0.313268	9.275456	-0.25446415	0.0	-18.6875	-17.125	-40.3125	-2.2064698	1.3295028	-1.4331187
1276873067239	2.2201166	0.38136974	9.275456	-0.26157475	0.0	-18.6875	-17.6875	-40.0625	-2.2428799	1.3325489	-1.4006776
1276873067269	2.0294318	0.50395286	9.343558	-0.23196316	0.0	-19.1875	-17.6875	-40.0625	-2.396016	1.350627	-1.3273975
1276873067309	2.0294318	0.5720546	9.234595	-0.33439636	0.0	-19.4375	-17.4375	-40.0625	-2.4511569	1.3463165	-1.2960459
1276873067339	2.1111538	0.53119355	9.193735	-0.35869312	0.0	-19.1875	-17.9375	-39.8125	-2.374687	1.3382919	-1.3243002
1276873067369	2.0294318	0.61291564	9.302697	-0.26545334	0.0	-19.1875	-17.6875	-40.3125	-2.456676	1.3467351	-1.2774934
1276873067399	1.9885708	0.5720546	9.425281	-0.15690517	0.0	-18.9375	-17.9375	-40.3125	-2.4319766	1.3546855	-1.2906884
1276873067429	1.9885708	0.50395286	9.343558	-0.2405405	0.0	-18.9375	-18.1875	-39.8125	-2.385301	1.3546699	-1.322597
1276873067459	2.070293	0.46309182	9.234595	-0.33150864	0.0	-18.6875	-17.9375	-39.5625	-2.3296876	1.3449858	-1.3507346
1276873067489	2.0294318	0.5720546	9.534244	-0.042038918	0.0	-18.6875	-18.1875	-39.3125	-2.4114437	1.3531476	-1.2960459
1276873067519	1.879608	0.84446156	9.466142	-0.11882877	0.0	-18.9375	-18.4375	-38.75	-2.627022	1.3564597	-1.1485451
1276873067559	2.070293	0.84446156	9.234595	-0.30523014	0.0	-18.9375	-18.4375	-39.0	-2.5458581	1.3332459	-1.1835028
1276873067599	2.070293	0.6946377	9.193735	-0.35713196	0.0	-19.4375	-18.4375	-39.0	-2.4838114	1.3375952	-1.2470734
1276873067639	2.1792557	0.7627395	9.112013	-0.4066658	0.0	-19.1875	-18.6875	-38.75	-2.4632812	1.3226308	-1.2341216
1276873067696	2.070293	0.88532263	9.384419	-0.15588665	0.0	-18.9375	-18.6875	-39.0	-2.5651696	1.3353132	-1.1666988
1276873067729	2.1792557	0.6946377	9.193735	-0.33266258	0.0	-18.6875	-18.9375	-39.3125	-2.395046	1.3269593	-1.2622277
1276873067759	2.152015	0.7218784	9.043911	-0.48224163	0.0	-18.4375	-19.6875	-39.8125	-2.3766165	1.3248932	-1.2471483
1276873067789	1.9885708	0.6946377	9.234595	-0.33486652	0.0	-18.4375	-19.4375	-39.5625	-2.436629	1.3465343	-1.2347318
1276873067829	1.9885708	0.6537767	9.343558	-0.23147869	0.0	-18.6875	-19.4375	-40.0625	-2.4246848	1.3504008	-1.253161
1276873067869	2.1111538	0.6537767	9.193735	-0.35100842	0.0	-18.9375	-19.1875	-39.8125	-2.3967159	1.3348842	-1.2704849
1276873067949	1.9885708	0.61291564	9.425281	-0.15439701	0.0	-19.1875	-18.4375	-40.0625	-2.4539723	1.3535051	-1.2718161
1276873067979	1.9885708	0.6537767	9.234595	-0.33777523	0.0	-18.9375	-18.4375	-39.5625	-2.4639537	1.3478848	-1.253161
1276873068019	2.1792557	0.53119355	9.193735	-0.34324265	0.0	-19.1875	-18.6875	-39.5625	-2.3344517	1.3314945	-1.3317087
1276873068049	2.2201166	0.5720546	9.084772	-0.43705845	0.0	-19.6875	-18.6875	-39.0	-2.3666832	1.3235977	-1.3186132
1276873068080	2.1792557	0.53119355	9.112013	-0.422616	0.0	-19.9375	-19.1875	-39.0	-2.3554301	1.3294302	-1.3317087
1276873068119	2.1792557	0.42223078	9.384419	-0.16327095	0.0	-20.1875	-19.1875	-38.5	-2.320968	1.3385264	-1.3794175
1276873068149	2.2609777	0.7218784	9.343558	-0.16635895	0.0	-20.4375	-19.6875	-37.5	-2.4595604	1.3220406	-1.2617493
1276873068189	3.1054392	1.56634	9.00305	-0.15511703	0.0	-20.875	-20.5	-36.75	-2.5322042	1.2021344	-1.103646
1276873068230	4.0180025	1.7570249	9.193735	0.37943077	0.0	-21.625	-20.75	-36.25	-2.3280194	1.1257211	-1.1585637
1276873068269	3.486809	1.6889231	9.575105	0.5225773	0.0	-22.875	-20.5	-36.25	-2.5897768	1.1863103	-1.1197267
1276873068309	2.6014864	0.95342433	8.771504	-0.6079521	0.0	-24.0625	-18.4375	-37.25	-2.6375408	1.26484	-1.2195054
1276873068350	2.5333846	-1.1849703	8.730643	-0.6389723	0.0	-24.8125	-15.875	-38.0	-1.7067729	1.2607805	-2.008306
1276873068389	2.1111538	-1.56634	9.425281	-0.021645546	0.0	-25.3125	-14.125	-39.0	-1.6084958	1.2988027	-2.2091162
1276873068419	2.3018389	-0.6537767	8.730643	-0.75402546	0.0	-25.3125	-13.0625	-39.8125	-2.0252485	1.303287	-1.8475323
1276873068449	2.5333846	0.27240697	8.117727	-1.2984343	0.0	-24.8125	-14.375	-39.5625	-2.4172773	1.2666553	-1.463681
1276873068489	3.2961242	1.0760075	8.662541	-0.47595596	0.0	-23.8125	-16.375	-39.0	-2.5127113	1.1900618	-1.2552569
1276873068529	3.336985	1.1849703	9.275456	0.12177944	0.0	-23.375	-18.9375	-37.25	-2.492599	1.2060995	-1.2295835
1276873068569	2.9556155	1.920469	9.302697	0.1414175	0.0	-22.875	-21.0	-36.25	-2.8266149	1.2086147	-0.9945831
1276873068609	3.336985	1.6480621	8.771504	-0.2782259	0.0	-23.125	-22.0	-35.1875	-2.5562727	1.1695167	-1.1120586
1276873068650	3.255263	1.1849703	8.471856	-0.6538782	0.0	-23.5625	-22.25	-34.6875	-2.4134235	1.1826323	-1.2216893
1276873068689	3.336985	0.92618364	8.962189	-0.19862652	0.0	-23.8125	-21.75	-34.9375	-2.3439276	1.2020549	-1.30006
1276873068729	3.759216	1.1849703	8.921328	-0.05339718	0.0	-24.0625	-21.5	-34.6875	-2.341463	1.1547719	-1.2654377
1276873068759	3.759216	1.4573772	8.921328	-0.016566277	0.0	-24.0625	-21.25	-34.6875	-2.4401827	1.1463373	-1.2009546
1276873068799	3.9090397	1.6889231	8.662541	-0.15404987	0.0	-24.3125	-21.25	-34.6875	-2.4652667	1.1139108	-1.1629646
1276873068831	3.3778462	1.7297841	8.853226	-0.1743288	0.0	-24.3125	-21.25	-34.9375	-2.6611214	1.1658323	-1.0975182
1276873068870	3.2961242	1.4573772	8.730643	-0.361413	0.0	-24.0625	-21.25	-35.1875	-2.5630407	1.1793114	-1.1544906
1276873068909	3.5957718	1.1849703	8.539958	-0.46509647	0.0	-23.8125	-21.25	-35.4375	-2.3428247	1.1535056	-1.2524587
1276873068949	3.5276701	1.3756552	8.894087	-0.14012718	0.0	-23.8125	-21.5	-35.4375	-2.4491282	1.1683143	-1.1989738
1276873068992	3.486809	1.3756552	8.771504	-0.26780605	0.0	-23.8125	-21.5	-35.4375	-2.4491282	1.1683143	-1.1989738
1276873069029	3.0237172	0.92618364	8.689782	-0.5593262	0.0	-23.375	-21.5	-35.6875	-2.3914993	1.2217749	-1.273564
1276873069069	3.0237172	0.46309182	8.894087	-0.40122128	0.0	-22.625	-21.25	-35.6875	-2.192045	1.2395363	-1.4188241
1276873069114	2.982856	1.0760075	8.499097	-0.73527336	0.0	-21.625	-21.75	-35.9375	-2.367106	1.2136939	-1.2245941
1276873069155	2.6423476	2.3018389	8.771504	-0.36102867	0.0	-20.1875	-23.0	-35.9375	-2.8730087	1.1907078	-0.85416013
1276873069190	3.0237172	2.8330324	8.921328	0.029966354	0.0	-19.9375	-24.8125	-34.6875	-2.831592	1.1359881	-0.81794477
1276873069229	3.1463003	2.7649305	8.471856	-0.35591507	0.0	-19.4375	-26.875	-34.1875	-2.653018	1.1116314	-0.8498251
1276873069269	3.0237172	2.982856	8.117727	-0.64489365	0.0	-18.9375	-28.625	-32.9375	-2.6870985	1.088743	-0.7922008
1276873069309	2.3426998	3.9499009	9.152874	0.4337139	0.0	-18.6875	-30.4375	-31.625	3.1108146	1.1057563	-0.53533304
1276873069349	2.7240696	4.2086873	9.343558	0.79691887	0.0	-18.0	-31.9375	-30.875	-3.0151758	1.0783335	-0.57443905
1276873069389	3.2961242	4.6036777	8.662541	0.54216194	0.0	-17.0	-32.6875	-29.5625	-2.7936895	0.991881	-0.62136805
1276873069430	2.4516625	5.366417	8.390134	0.45022202	0.0	-15.75	-33.5	-29.5625	3.1110795	0.9579275	-0.42853808
1276873069469	1.4573772	3.1463003	7.9679036	-1.1169643	0.0	-14.3125	-33.0	-29.875	-3.0996685	1.1603379	-0.43377954
1276873069509	1.9477097	2.982856	8.689782	-0.41498852	0.0	-12.5625	-32.4375	-29.875	-2.7977564	1.1817354	-0.5784589
1276873069549	1.7297841	4.7535014	8.076866	-0.27650356	0.0	-11.375	-33.0	-29.875	-3.098227	1.0112708	-0.34900105
1276873069579	1.5390993	3.759216	7.7772183	-1.0325031	0.0	-10.125	-33.25	-29.5625	-2.9538152	1.089464	-0.38860086
1276873069620	1.879608	2.9556155	8.240311	-0.85280704	0.0	-8.9375	-34.25	-28.8125	-2.6395104	1.1688721	-0.566431
1276873069660	1.920469	3.5957718	8.580819	-0.30674362	0.0	-8.6875	-35.25	-28.5625	-2.7120667	1.127291	-0.49054694
1276873069699	1.4573772	5.325556	8.076866	-0.02292633	0.0	-8.1875	-36.0625	-28.0625	-3.0314424	0.9711604	-0.26711747
1276873069736	1.2666923	4.903325	7.9679036	-0.36553764	0.0	-7.9375	-36.5625	-27.3125	-3.0554292	1.00462	-0.25280628
1276873069770	1.334794	4.099725	8.076866	-0.65104103	0.0	-8.1875	-36.3125	-27.3125	-2.9690533	1.080465	-0.31475762
1276873069809	1.2666923	4.399372	7.8589406	-0.71149063	0.0	-7.6875	-36.3125	-27.8125	-2.9948123	1.0433186	-0.28034297
1276873069849	1.334794	4.140586	7.8180795	-0.8596678	0.0	-6.9375	-36.0625	-28.5625	-2.898144	1.06301	-0.31184986
1276873069889	1.4982382	3.8681788	8.008764	-0.78734684	0.0	-6.75	-35.0	-29.0625	-2.7987044	1.0928866	-0.36953118
1276873069919	1.879608	3.6774938	7.8861814	-0.90447426	0.0	-6.9375	-35.25	-29.875	-2.6091287	1.0883685	-0.47249696
1276873069959	2.1111538	3.445948	7.7363577	-1.0783768	0.0	-7.1875	-34.75	-30.625	-2.4790418	1.0894147	-0.54966784
1276873069999	2.0294318	3.6774938	7.9679036	-0.799428	0.0	-7.4375	-34.25	-31.375	-2.5541975	1.085663	-0.5042639
1276873070040	1.879608	3.405087	8.499097	-0.4598751	0.0	-7.4375	-34.0	-32.625	-2.6071503	1.141618	-0.5043774
1276873070079	1.8387469	2.7649305	9.724928	0.4695387	0.0	-6.5	-33.0	-32.9375	-2.5408034	1.241764	-0.58686495
1276873070112	1.8387469	2.1792557	9.615966	0.22315216	0.0	-5.0	-32.4375	-32.9375	-2.3677528	1.2825341	-0.70085436
1276873070159	1.3075534	2.6832085	8.662541	-0.6442852	0.0	-4.0625	-31.9375	-32.9375	-2.6225302	1.2389675	-0.45344388
1276873070199	0.9942854	1.334794	8.390134	-1.2530174	0.0	-2.3125	-32.1875	-32.375	-2.435538	1.3749609	-0.6402278
1276873070229	0.46309182	1.9885708	8.049625	-1.5021133	0.0	-1.5625	-33.0	-32.125	-2.894094	1.3223863	-0.22879884
1276873070270	-0.10896278	3.5276701	7.6954966	-1.3404226	0.0	-1.125	-33.0	-31.625	3.0144494	1.1407924	0.030878212
1276873070310	0.6946377	2.7649305	7.4639506	-1.8167863	0.0	-0.625	-33.25	-31.875	-2.763926	1.2059468	-0.24613743
1276873070354	0.46309182	2.152015	9.302697	-0.24705791	0.0	-0.875	-33.5	-31.125	-2.89769	1.338442	-0.21195763
1276873070429	-0.040861044	5.8567495	7.9679036	0.08226681	0.0	-0.625	-33.5	-30.625	3.0448663	0.9369252	0.006976631
1276873070460	-0.95342433	4.9850473	8.771504	0.32740116	0.0	1.125	-34.25	-30.125	2.7828732	1.0462428	0.1889747
1276873070489	-1.4573772	5.053149	8.049625	-0.19131184	0.0	3.0625	-35.25	-28.5625	2.6717484	0.9920793	0.28078988
1276873070519	-1.4982382	5.47538	7.9679036	-0.023399353	0.0	5.25	-35.75	-28.0625	2.8155441	0.95176923	0.26709378
1276873070549	-0.42223078	5.325556	7.8589406	-0.30387306	0.0	7.6875	-36.5625	-27.3125	-2.8389919	0.97377735	0.07911839
1276873070579	0.10896278	5.09401	7.504812	-0.73565197	0.0	8.6875	-36.5625	-26.5	-2.5846543	0.9743578	-0.021387113
1276873070619	-1.0351465	6.1291566	5.9793324	-1.1816568	0.0	10.125	-36.0625	-26.0	-2.6298199	0.7659979	0.16731006
1276873070652	-1.9885708	6.701211	8.390134	1.1137428	0.0	12.125	-35.75	-26.0	-3.024333	0.87618035	0.2884706
1276873070689	-2.3699405	5.325556	6.973618	-0.71767235	0.0	14.0625	-34.0	-26.5	3.0548885	0.87455934	0.41869882
1276873070719	-3.336985	3.1054392	6.2108784	-2.1024804	0.0	16.0	-33.0	-27.0625	2.2876384	0.937652	0.82132345
1276873070759	-3.6774938	2.3699405	6.8237944	-1.7008038	0.0	17.25	-32.1875	-27.8125	2.1613643	1.0006763	0.9983365
1276873070789	-4.3312707	2.3018389	7.3958488	-0.9321394	0.0	18.0	-30.9375	-28.3125	2.0454779	0.985197	1.0823091
1276873070819	-4.5900574	2.8738933	7.4639506	-0.585021	0.0	18.4375	-30.6875	-28.0625	2.0935524	0.94312316	1.0113972
1276873070875	-4.4810944	3.759216	8.19945	0.2652359	0.0	18.4375	-30.6875	-27.5625	2.3513947	0.9511653	0.87277836
1276873070950	-4.944186	4.630918	8.730643	1.2438936	0.0	18.6875	-30.6875	-26.8125	2.418968	0.9109143	0.81810343
1276873070999	-4.399372	4.5628166	8.349273	0.67591286	0.0	18.4375	-31.1875	-26.25	2.5401666	0.9214704	0.7671631
1276873071059	-4.399372	3.990762	7.8180795	0.011854172	0.0	18.9375	-31.1875	-25.75	2.4398768	0.921087	0.834061
1276873071101	-4.7126403	3.1054392	7.164303	-0.6863451	0.0	19.4375	-30.9375	-25.0	2.183943	0.90355736	0.98814845
1276873071148	-4.630918	3.173541	7.5456724	-0.4016552	0.0	20.1875	-30.4375	-24.5	2.3121893	0.9311464	0.97000843
1276873071189	-4.099725	3.1463003	7.273266	-0.88435555	0.0	21.625	-30.1875	-23.75	2.524932	0.9530379	0.9162256
1276873071219	-3.9499009	3.2961242	7.4639506	-0.74151325	0.0	21.875	-30.4375	-23.5	2.6271334	0.9673218	0.8753801
1276873071251	-3.445948	3.445948	7.668256	-0.72087765	0.0	22.125	-30.6875	-24.25	2.8254786	1.00467	0.7853982
1276873071310	-4.630918	3.9090397	8.158588	0.35644817	0.0	21.625	-31.4375	-24.5	2.5481644	0.9319192	0.8697272
1276873071361	-5.09401	4.671779	9.697687	2.1021528	0.0	19.9375	-32.1875	-25.0	2.5476096	0.9515726	0.8286069
1276873071399	-3.214402	4.140586	7.9679036	-0.2691288	0.0	19.1875	-32.1875	-26.0	2.8750663	0.9889094	0.6601316
1276873071442	-3.5957718	3.486809	6.851035	-1.3199492	0.0	18.4375	-31.9375	-26.8125	2.4742455	0.93950695	0.80078155
1276873071479	-3.9090397	3.759216	7.4639506	-0.5804453	0.0	18.0	-31.1875	-27.3125	2.4438484	0.9424398	0.80493385
1276873071509	-3.9771416	4.0180025	7.8589406	-0.12548542	0.0	18.0	-30.4375	-27.8125	2.5024757	0.94718766	0.7802875
1276873071539	-3.636633	3.990762	7.8589406	-0.27175522	0.0	17.5	-30.6875	-27.5625	2.598156	0.96884	0.73900294
1276873071569	-3.568531	3.9090397	7.8589406	-0.3315277	0.0	17.25	-30.6875	-27.8125	2.5895731	0.97808456	0.73989224
1276873071599	-3.2961242	3.8681788	8.049625	-0.28700066	0.0	16.5	-30.9375	-28.3125	2.644801	1.0076507	0.7057193
1276873071629	-3.336985	3.8273177	8.049625	-0.28928185	0.0	16.25	-30.6875	-28.5625	2.606428	1.0080305	0.71706367
1276873071659	-3.5276701	3.636633	7.9270425	-0.39880466	0.0	16.0	-30.1875	-29.0625	2.469912	1.0020913	0.77019024
1276873071707	-3.7864566	3.568531	7.8861814	-0.35871315	0.0	16.0	-29.9375	-28.3125	2.3767028	0.9875855	0.81501913
1276873071739	-4.944186	3.6774938	9.275456	1.3290148	0.0	16.75	-30.4375	-28.3125	2.207145	0.98441833	0.931274
1276873071769	-4.5219555	3.990762	9.00305	1.0298243	0.0	17.0	-30.4375	-27.8125	2.3677619	0.9805613	0.84771734
1276873071809	-2.4516625	3.568531	7.5865335	-1.0716314	0.0	18.0	-30.4375	-27.0625	3.0032	1.0522074	0.6019633
1276873071839	-2.3699405	2.982856	7.014479	-1.8243594	0.0	18.4375	-30.1875	-27.3125	2.9024434	1.0732478	0.6713909
1276873071880	-3.486809	3.486809	7.8589406	-0.52879333	0.0	18.6875	-29.375	-26.8125	2.662188	1.010437	0.7853982
1276873071919	-2.9556155	3.5957718	7.4639506	-1.0102987	0.0	19.6875	-29.375	-27.0625	2.9235508	1.0131973	0.6879943
1276873071959	-4.399372	3.7864566	8.62168	0.58686256	0.0	19.6875	-29.625	-27.3125	2.5106611	0.97825694	0.8601339
1276873071999	-4.671779	2.8330324	8.580819	0.36596203	0.0	19.9375	-29.9375	-27.8125	2.2585115	1.0038068	1.025674
1276873072039	-5.09401	1.7978859	7.6273947	-0.46007442	0.0	19.9375	-29.375	-28.0625	1.8959757	0.954566	1.2315037
1276873072079	-4.7943625	1.4573772	7.5456724	-0.7486687	0.0	19.6875	-29.125	-27.8125	1.8918031	0.9845826	1.2756946
1276873072120	-4.8216033	0.7627395	6.4015636	-1.7562065	0.0	19.9375	-28.625	-27.5625	1.6699464	0.91930676	1.4139043
1276873072159	-5.202973	2.152015	7.8180795	-0.17210484	0.0	20.4375	-28.375	-26.8125	2.0013983	0.9466516	1.1786103
1276873072199	-5.8158884	4.099725	9.575105	2.1229324	0.0	21.375	-28.875	-26.25	2.3750138	0.93170047	0.9567773
1276873072229	-2.6832085	5.7886477	7.0553403	-0.2942438	0.0	21.625	-29.125	-26.8125	-2.4189641	0.8355996	0.43404785
1276873072259	-1.7570249	5.5162406	6.8237944	-0.8578949	0.0	21.875	-29.375	-27.0625	-2.2117035	0.8672321	0.30835852
1276873072289	-5.407278	4.1814466	6.4015636	-0.44165325	0.0	22.125	-29.625	-27.5625	1.97492	0.75263286	0.9125494
1276873072319	-5.597963	3.5957718	6.66035	-0.39245796	0.0	22.125	-29.625	-28.3125	1.903964	0.7859256	0.99982786
1276873072349	-4.671779	3.8681788	8.158588	0.35951424	0.0	21.875	-29.9375	-28.0625	2.4963894	0.9315133	0.8792208
1276873072379	-4.630918	3.173541	8.662541	0.51596546	0.0	21.625	-30.1875	-28.3125	2.4019	0.9957752	0.9700084
1276873072419	-4.7126403	2.7921712	7.5456724	-0.48236084	0.0	21.375	-29.9375	-28.0625	2.196839	0.9428727	1.0359205
1276873072449	-3.8273177	2.982856	7.164303	-1.1537294	0.0	20.6875	-29.625	-28.3125	2.4442048	0.97546643	0.9087685
1276873072480	-3.486809	3.3778462	8.240311	-0.24263477	0.0	20.4375	-28.875	-28.5625	2.7425437	1.0384041	0.8012699
1276873072519	-3.9499009	3.445948	9.043911	0.64651203	0.0	19.9375	-28.125	-28.5625	2.637875	1.0455176	0.853433
1276873072560	-4.944186	3.405087	8.662541	0.73276234	0.0	19.1875	-28.125	-28.8125	2.2387643	0.9647716	0.967691
1276873072599	-3.6774938	2.9556155	7.8180795	-0.67527676	0.0	18.6875	-28.125	-28.8125	2.4630153	1.0278262	0.8938011
1276873072629	-3.405087	2.8738933	7.668256	-0.9378271	0.0	18.4375	-28.125	-29.0625	2.5151021	1.0444146	0.8697959
1276873072669	-4.140586	2.2609777	8.349273	-0.21671677	0.0	18.6875	-28.875	-29.0625	2.2040973	1.0564791	1.0709888
1276873072709	-4.2904096	1.4982382	6.782933	-1.6420612	0.0	18.6875	-28.875	-29.0625	2.2040973	1.0564791	1.0709888
1276873072749	-4.5900574	2.5606253	8.62168	0.29081535	0.0	18.6875	-28.875	-28.5625	2.173136	1.0233297	1.061936
1276873072779	-4.7126403	3.6774938	9.656827	1.5506048	0.0	18.9375	-29.125	-28.5625	2.4215877	1.0165136	0.9081544
1276873072819	-4.2495484	2.8738933	8.430995	0.062473297	0.0	19.1875	-29.125	-28.5625	2.3290257	1.0241642	0.9761664
1276873072859	-4.5628166	1.7570249	5.7886477	-2.2293897	0.0	20.1875	-28.875	-28.8125	1.7578523	0.8694124	1.2032225
1276873072890	-3.7864566	1.56634	5.8976107	-2.6252513	0.0	20.6875	-28.625	-28.5625	1.9955795	0.96357083	1.178562
1276873072929	-4.372132	1.4573772	6.8237944	-1.5723524	0.0	20.6875	-28.625	-28.3125	1.9375833	0.9767879	1.2490458
1276873072969	-4.9850473	4.3312707	8.117727	0.65796185	0.0	19.1875	-28.625	-28.3125	2.2919402	0.8878732	0.85545874
1276873073009	-4.862464	4.7943625	8.62168	1.1916609	0.0	16.75	-29.9375	-27.8125	2.30113	0.9009377	0.7924502
1276873073049	-6.0882955	4.2904096	8.894087	1.7942009	0.0	14.8125	-31.4375	-27.8125	1.8708177	0.87364674	0.9569243
1276873073079	-5.6660647	4.903325	5.053149	-0.76888466	0.0	13.5625	-31.9375	-27.5625	1.229089	0.5933178	0.8574382
1276873073109	-4.5628166	5.7477865	5.5571017	-0.6013403	0.0	13.5625	-33.0	-27.3125	1.4620149	0.64811456	0.6709729
1276873073149	-4.5628166	4.6036777	8.894087	1.1987085	0.0	13.8125	-32.6875	-27.3125	2.2443566	0.94102067	0.78094053
1276873073179	-4.2086873	3.718355	8.539958	0.41441154	0.0	13.8125	-32.1875	-27.8125	2.2117734	0.98908854	0.8471751
1276873073209	-4.440233	3.7864566	7.3141265	-0.4498682	0.0	13.5625	-32.6875	-28.0625	1.9891181	0.8973751	0.8647017
1276873073249	-4.9850473	4.440233	7.3958488	0.15652943	0.0	12.375	-32.6875	-27.5625	1.8438349	0.83652335	0.8431374
1276873073279	-5.243834	2.8738933	7.1234417	-0.50608635	0.0	12.125	-33.75	-26.8125	1.7099252	0.87246335	1.06945
1276873073319	-5.09401	1.607201	6.6331096	-1.290185	0.0	11.875	-34.75	-25.75	1.5983033	0.8928415	1.2651734
1276873073359	-4.2904096	3.1463003	6.782933	-1.1860352	0.0	11.625	-35.5	-24.5	1.9541686	0.90565085	0.93804747
1276873073391	-4.7126403	4.399372	6.3198414	-0.7787018	0.0	12.125	-36.3125	-24.0	1.908334	0.7754406	0.8197643
1276873073429	-4.903325	12.067628	4.4810944	3.9683428	0.0	12.125	-36.3125	-23.75	0.23827574	0.3313358	0.3859432
1276873073469	-5.5571017	4.862464	5.5571017	-0.5650959	0.0	12.5625	-36.3125	-22.9375	1.6616659	0.64514816	0.8519663
1276873073509	-6.0882955	4.630918	6.6331096	0.31811523	0.0	13.5625	-36.8125	-22.4375	1.7910157	0.7143641	0.92052895
1276873073549	-4.5628166	5.706926	6.6331096	0.06180668	0.0	15.0625	-36.5625	-21.9375	2.2682657	0.73711234	0.6744498
1276873073589	-4.944186	7.205164	4.440233	-0.0048627853	0.0	15.25	-37.0625	-21.1875	1.4362392	0.47013023	0.6014043
1276873073629	-4.5219555	7.5865335	9.00305	2.8051882	0.0	14.8125	-38.0625	-21.1875	2.68915	0.79499066	0.5375102
1276873073659	-4.944186	6.782933	6.701211	0.933898	0.0	13.5625	-38.8125	-20.4375	2.1954806	0.67374504	0.62987006
1276873073699	-4.140586	5.6252036	3.445948	-2.0180736	0.0	11.875	-40.125	-18.875	1.604856	0.45831332	0.634531
1276873073749	-5.6252036	5.09401	5.134871	-0.64374924	0.0	10.375	-41.625	-17.375	1.8001369	0.59486616	0.8349129
1276873073779	-4.399372	4.7126403	7.7772183	0.29525948	0.0	9.875	-42.9375	-15.3125	2.296202	0.8786469	0.751032
1276873073809	-3.173541	2.982856	4.862464	-3.2788367	0.0	9.6875	-43.9375	-14.0	2.1963255	0.84036106	0.8163617
1276873073841	0.7218784	0.6946377	4.630918	-5.068609	0.0	8.9375	-44.9375	-13.5	-2.0753808	1.3577478	-0.8046266
1276873073879	-2.1111538	6.0882955	1.6480621	-3.155303	0.0	8.4375	-45.5	-12.25	1.4943249	0.25038677	0.33378205
1276873073919	3.405087	12.789507	5.407278	4.490369	0.0	6.9375	-46.75	-9.4375	-1.9596459	0.38786206	-0.26020464
1276873073959	1.56634	6.510526	6.932757	-0.16800499	0.0	6.25	-47.25	-4.875	-2.6020367	0.80274636	-0.23609878
1276873073999	1.9477097	8.008764	2.3699405	-1.2304916	0.0	4.75	-47.5	0.25	-2.246013	0.27998433	-0.23856594
1276873074039	0.46309182	13.593107	-0.10896278	3.7947798	0.0	3.0625	-47.75	4.5625	-2.2992322	-0.008011213	-0.034054965
1276873074079	1.8387469	9.915613	-0.5720546	0.29422188	0.0	1.5625	-47.25	6.625	-1.946096	-0.056664504	-0.18335675
1276873074128	4.7126403	12.176591	-4.399372	3.9713335	0.0	-1.375	-47.25	5.625	-1.0571382	-0.3249955	-0.3692709
1276873074169	-3.6774938	13.021052	-3.0645783	4.0664682	0.0	-4.25	-47.5	3.8125	1.2250224	-0.22273766	0.27525762
1276873074209	-0.3405087	9.466142	0.5720546	-0.31712818	0.0	-5.25	-48.0	1.5	2.1314588	0.060319338	0.03595572
1276873074249	2.9556155	8.158588	2.3018389	-0.8290844	0.0	-5.25	-48.0	0.0	-2.3824909	0.2592948	-0.34756407
1276873074282	-1.0351465	8.281172	6.0882955	0.52372646	0.0	-3.0625	-48.0	0.75	2.8354764	0.6302646	0.124354996
1276873074323	-1.1168685	7.9679036	7.273266	1.0393295	0.0	0.875	-48.0	2.3125	2.9711258	0.73501134	0.13926359
1276873074360	0.3405087	9.152874	5.9793324	1.1315155	0.0	5.5	-47.5	4.875	-2.9034667	0.5783566	-0.037185233
1276873074389	2.7921712	8.430995	4.099725	-0.024746895	0.0	10.625	-46.5	7.375	-2.3374627	0.43246835	-0.3198107
1276873074419	-0.10896278	7.082581	4.2086873	-1.5672407	0.0	13.5625	-45.5	8.9375	-2.7486615	0.5361147	0.015383402
1276873074449	-2.2609777	7.3141265	3.1463003	-1.5297136	0.0	16.75	-43.9375	10.1875	-3.0310216	0.3899353	0.29980698
1276873074479	-2.0294318	8.921328	1.6889231	-0.50282574	0.0	18.0	-42.9375	11.0	-2.7445114	0.18254206	0.22367457
1276873074509	-1.2258313	9.152874	2.2609777	-0.29929543	0.0	18.4375	-42.4375	11.5	-2.6152134	0.2401142	0.13313632
1276873074539	0.040861044	8.471856	1.5390993	-1.1960258	0.0	19.6875	-41.875	12.0	-2.3405018	0.17970997	-0.004823114
1276873074569	-1.2258313	8.076866	1.0351465	-1.57197	0.0	19.6875	-41.625	12.5	-2.506721	0.12603918	0.15062119
1276873074599	-3.1463003	8.689782	0.95342433	-0.5157652	0.0	19.1875	-41.625	12.75	-2.9223409	0.102800295	0.34738597
1276873074639	-3.255263	9.384419	0.6946377	0.15058804	0.0	18.4375	-41.625	13.5	-2.9182427	0.069818795	0.3338922
1276873074669	-1.1168685	9.112013	-0.9125633	-0.5811987	0.0	17.5	-42.125	14.3125	-2.2504816	-0.09908004	0.121962644
1276873074709	0.040861044	8.117727	-0.3405087	-1.6816816	0.0	17.0	-42.6875	15.3125	-2.2363298	-0.041921206	-0.0050335145
1276873074749	-2.4516625	10.18802	0.6946377	0.6952028	0.0	17.25	-42.125	16.8125	-2.8048058	0.06619262	0.23615167
1276873074789	-2.7921712	10.337844	1.3756552	0.98962975	0.0	17.25	-41.625	17.625	-2.8963747	0.1277667	0.2637978
1276873074830	0.08172209	8.281172	-3.255263	-0.908267	0.0	17.75	-40.875	18.375	-1.6921068	-0.37452057	-0.0098681
1276873074869	-2.7513103	8.662541	1.1168685	-0.64931774	0.0	18.1875	-40.375	17.375	-2.919223	0.12226881	0.3075335
1276873074909	-2.6423476	9.275456	1.4982382	-0.046484947	0.0	18.6875	-40.875	14.5625	-2.8324697	0.15411477	0.27752373
1276873074949	-1.0351465	8.962189	1.7297841	-0.62054634	0.0	19.1875	-41.875	10.6875	-2.491363	0.18943541	0.11499197
1276873074989	-2.3426998	9.152874	2.2609777	-0.09195137	0.0	18.9375	-43.1875	6.125	-2.7146275	0.23489185	0.250573
1276873075029	-2.070293	8.430995	3.214402	-0.5492115	0.0	19.1875	-44.4375	1.8125	-2.7272408	0.35460895	0.240793
1276873075069	-2.4108016	7.8589406	3.7864566	-0.7561159	0.0	19.4375	-44.4375	-1.8125	-2.8502903	0.4316481	0.29764622
1276873075099	-2.9556155	6.851035	3.7864566	-1.439476	0.0	20.1875	-44.1875	-4.875	-3.083101	0.46960837	0.40728873
1276873075129	-2.8330324	6.742072	3.336985	-1.7681751	0.0	21.125	-43.1875	-7.625	-2.9333172	0.428082	0.3977997
1276873075159	-2.6832085	7.164303	2.9556155	-1.605278	0.0	22.125	-41.875	-10.4375	-2.4436903	0.3686759	0.3583539
1276873075192	-3.0645783	7.5456724	2.5606253	-1.2693434	0.0	22.875	-40.125	-13.25	-1.7480788	0.30462307	0.38578585
1276873075229	-2.8738933	8.158588	2.2201166	-0.87632275	0.0	23.375	-38.5625	-16.3125	-1.0891272	0.2512389	0.33868116
1276873075269	-2.4516625	8.349273	3.1463003	-0.5535307	0.0	23.8125	-36.5625	-19.375	-1.2613946	0.34694445	0.2856098
1276873075309	-3.1463003	7.7772183	3.7864566	-0.6022167	0.0	23.5625	-34.5	-22.1875	-1.2029603	0.42396006	0.38442555
1276873075349	-3.214402	7.205164	4.7126403	-0.61666965	0.0	24.0625	-33.25	-25.0	-1.4686357	0.5384454	0.41962662
1276873075379	-3.8273177	6.1700177	5.597963	-0.6385164	0.0	24.5625	-30.4375	-27.3125	-1.9755845	0.6568043	0.5552189
1276873075419	-3.6774938	4.6036777	6.8237944	-0.79099846	0.0	25.0625	-28.375	-29.3125	-2.9462652	0.85853064	0.67401886
1276873075459	-3.214402	1.2666923	8.662541	-0.4805298	0.0	25.8125	-26.3125	-30.625	2.4956663	1.191289	1.1954143
1276873075499	-4.2495484	-0.3405087	10.310603	1.3505516	0.0	25.8125	-24.5625	-30.875	1.9365723	1.1787283	1.6507537
1276873075539	-5.202973	-0.27240697	9.615966	1.1300735	0.0	26.5	-24.0625	-31.625	1.8430679	1.0742569	1.6231046
1276873075579	-5.366417	0.040861044	9.234595	0.874073	0.0	26.75	-23.5625	-31.125	1.8870529	1.0443616	1.5631822
1276873075609	-5.8158884	0.6537767	8.689782	0.6701956	0.0	27.75	-23.5625	-30.125	1.9555982	0.9780817	1.4588541
1276873075639	-6.4015636	-0.42223078	8.962189	1.215107	0.0	28.75	-24.0625	-28.5625	1.7768362	0.9495198	1.6366584
1276873075669	-5.434519	-0.9942854	8.853226	0.62897205	0.0	29.1875	-24.5625	-26.25	1.795083	1.0128908	1.7517524
1276873075699	-5.47538	0.38136974	7.5456724	-0.4759264	0.0	30.1875	-25.0625	-24.5	2.030865	0.94192344	1.501257
1276873075739	-5.8567495	2.3018389	8.962189	1.1441851	0.0	30.9375	-25.3125	-22.6875	2.547048	0.95862514	1.1963187
1276873075779	-4.5628166	2.2609777	6.2789803	-1.7222881	0.0	31.875	-25.8125	-20.9375	2.676681	0.88938135	1.1107372
1276873075819	-7.9679036	2.8738933	2.6014864	-0.9458103	0.0	32.625	-27.875	-16.5625	1.3098878	0.29798403	1.2246356
1276873075859	-7.082581	2.8738933	2.2609777	-1.8358135	0.0	32.625	-29.9375	-11.75	1.6031474	0.28760484	1.1853265
1276873075889	-7.205164	2.8330324	0.95342433	-2.0060425	0.0	31.6875	-32.6875	-6.625	1.4908082	0.122530736	1.1961703
1276873075929	-7.6273947	3.1054392	-0.61291564	-1.5485287	0.0	29.9375	-35.25	-2.3125	1.3253368	-0.07428805	1.1841475
1276873075969	-9.084772	3.568531	-2.982856	0.39947128	0.0	27.25	-36.8125	0.0	1.1339731	-0.2965907	1.1965091
1276873076009	-9.697687	3.8273177	-1.4573772	0.72033596	0.0	24.8125	-39.0625	0.25	1.3915579	-0.1388881	1.1948993
1276873076049	-10.038197	5.053149	-1.9885708	1.6062422	0.0	22.125	-40.625	0.0	1.3243366	-0.17513287	1.1044387
1276873076080	-11.182305	6.1700177	-1.920469	3.1085062	0.0	19.1875	-41.875	-0.5	1.3551537	-0.14925238	1.0665982
1276873076119	-10.691973	7.0553403	0.19068487	3.0047693	0.0	17.0	-42.6875	-1.25	1.5445813	0.014884526	0.98751205
1276873076159	-8.962189	7.6954966	0.88532263	2.0392475	0.0	15.25	-42.9375	-1.25	1.6461225	0.0748064	0.86129457
1276873076199	-9.234595	8.049625	-1.2258313	2.5050058	0.0	13.8125	-43.1875	-0.5	1.3872048	-0.099731974	0.85384893
1276873076239	-7.3549876	8.117727	-0.29964766	1.1515951	0.0	13.3125	-42.9375	-0.25	1.4989737	-0.027347902	0.7361423
1276873076279	-5.7886477	7.504812	-0.50395286	-0.31535912	0.0	13.0625	-42.4375	0.25	1.4457338	-0.05312133	0.6570099
1276873076319	-6.4015636	8.049625	-1.56634	0.5967102	0.0	12.5625	-42.9375	1.25	1.2829657	-0.15113568	0.6718454
1276873076359	-7.6273947	8.158588	-1.0760075	1.4137554	0.0	12.8125	-42.6875	1.8125	1.4688278	-0.09604497	0.75176114
1276873076389	-8.349273	8.076866	-0.27240697	1.8131742	0.0	12.375	-43.4375	2.3125	1.6324152	-0.023445442	0.8019803
1276873076428	-9.956474	8.049625	-1.7297841	3.113103	0.0	12.125	-44.4375	2.8125	1.4887118	-0.13429005	0.8909051
1276873076469	-11.372991	9.697687	-4.2495484	5.73197	0.0	12.5625	-44.4375	3.8125	1.3105943	-0.2770122	0.86474
1276873076509	-13.143636	10.310603	-5.6252036	7.820221	0.0	13.8125	-44.4375	5.125	1.2991488	-0.32480776	0.9056056
1276873076549	-14.137921	9.847511	-4.440233	7.9857635	0.0	16.25	-43.1875	8.1875	1.5112408	-0.25222346	0.96240187
1276873076579	-10.147159	7.3958488	-4.099725	3.4021025	0.0	19.4375	-40.125	13.25	1.5891324	-0.31559214	0.94096327
1276873076609	-5.134871	5.284695	-3.445948	-1.6721888	0.0	22.625	-36.0625	18.375	1.4599627	-0.4374416	0.77102
1276873076639	-2.5333846	3.0237172	-0.14982383	-5.8590746	0.0	24.3125	-30.9375	24.25	3.0874393	-0.0379625	0.69739074
1276873076669	-0.08172209	0.6946377	3.486809	-6.250383	0.0	25.5625	-25.8125	29.3125	-2.5573003	1.3728309	0.11710875
1276873076709	3.7864566	1.4573772	8.076866	-0.768013	0.0	26.0625	-22.75	31.125	-1.5557201	1.1052876	-1.2033814
1276873076749	-4.0588636	0.88532263	-3.214402	-4.5539794	0.0	26.0625	-21.0	32.375	2.023803	-0.658531	1.3560392
1276873076779	-5.6252036	2.2609777	-4.0180025	-2.533461	0.0	26.5	-21.0	31.375	2.280161	-0.585289	1.1886212
1276873076809	-11.686258	5.284695	-1.2258313	3.0774212	0.0	27.5	-22.5	29.3125	2.8014722	-0.09528729	1.1461024
1276873076839	-9.084772	4.0180025	0.38136974	0.1343193	0.0	28.0	-24.0625	28.3125	2.7958097	0.038372852	1.1543819
1276873076869	-7.246025	3.1463003	-5.202973	-0.3475275	0.0	27.75	-26.625	26.5	1.7409562	-0.58242184	1.1611502
1276873076899	-9.00305	4.903325	-5.053149	1.6227779	0.0	27.0	-28.875	25.5	2.0383687	-0.45795798	1.0720859
1276873076939	-6.469665	4.0180025	-0.9942854	-2.1261868	0.0	25.5625	-31.4375	24.25	2.535859	-0.12982078	1.0150406
1276873076979	-8.076866	5.6252036	-1.1849703	0.10711956	0.0	23.125	-34.5	21.9375	2.420014	-0.11981418	0.96245104
1276873077019	-10.147159	7.1234417	-0.50395286	2.6015015	0.0	19.6875	-37.3125	19.375	2.3186247	-0.040625833	0.9587203
1276873077059	-5.134871	8.008764	1.1849703	-0.21960926	0.0	16.25	-40.625	16.8125	2.7828476	0.123918146	0.5701332
1276873077089	-5.5162406	9.234595	0.23154591	0.9525442	0.0	12.375	-42.6875	14.5625	2.5125558	0.02152241	0.53846514
1276873077119	-5.09401	10.038197	0.19068487	1.4517107	0.0	8.9375	-44.4375	13.25	2.4268274	0.01693799	0.46959987
1276873077159	-4.2495484	10.147159	0.46309182	1.2041607	0.0	7.4375	-44.9375	13.0	2.5262876	0.042070333	0.39660066
1276873077189	-4.0180025	8.117727	-0.0	-0.7489548	0.0	6.25	-45.5	12.5	2.2794528	-0.0	0.45961264
1276873077219	-3.336985	7.164303	-0.14982383	-1.901895	0.0	5.0	-45.5	12.0	2.221539	-0.018954769	0.43589836
1276873077259	-2.6832085	5.9793324	-0.23154591	-3.2487822	0.0	4.5	-46.0	12.25	2.198909	-0.035315447	0.42181158
1276873077289	-3.445948	7.3549876	-1.1849703	-1.5984497	0.0	3.0625	-45.75	11.75	1.8878313	-0.1448704	0.43814677
1276873077329	-2.8330324	8.430995	-0.23154591	-0.9093838	0.0	1.5625	-45.75	11.25	2.2281392	-0.026027327	0.32417187
1276873077369	-2.5606253	8.430995	1.3075534	-0.89889145	0.0	-0.125	-46.25	11.75	2.498968	0.14732046	0.29486218
1276873077399	-1.6889231	8.158588	0.61291564	-1.452568	0.0	-2.5625	-45.5	10.4375	2.4312274	0.07343318	0.20412838
1276873077429	-0.42223078	6.469665	0.3405087	-3.3142858	0.0	-5.0	-46.25	10.1875	2.5749831	0.05247164	0.06517074
1276873077469	0.61291564	5.6252036	0.23154591	-4.1434183	0.0	-8.1875	-45.5	9.6875	2.8707771	0.040897224	-0.10853069
1276873077499	0.84446156	6.2108784	0.38136974	-3.5270348	0.0	-12.5625	-44.1875	8.4375	2.6154616	0.06076878	-0.13513625
1276873077539	0.88532263	7.014479	-1.56634	-2.565094	0.0	-17.25	-42.9375	8.6875	1.4689481	-0.21802193	-0.12554975
1276873077579	0.7627395	8.117727	-2.1383946	-1.3774157	0.0	-21.875	-40.375	8.9375	1.4562166	-0.25649098	-0.09368468
1276873077609	6.742072	16.821129	-0.0	8.315323	0.0	-25.8125	-37.8125	11.0	2.4091845	-0.0	-0.38120422
1276873077649	2.2201166	8.117727	2.3699405	-1.0634794	0.0	-27.75	-36.0625	13.25	2.521579	0.27449605	-0.26696178
1276873077679	4.0588636	7.7772183	-1.3075534	-0.9370842	0.0	-29.0	-34.5	14.5625	2.2529225	-0.14795949	-0.48100698
1276873077719	3.718355	8.730643	-0.50395286	-0.30379486	0.0	-29.4375	-34.0	15.5625	2.3380342	-0.05305662	-0.40263018
1276873077759	2.6423476	8.962189	-0.61291564	-0.44297123	0.0	-29.9375	-34.25	15.3125	2.154739	-0.065503545	-0.28670958
1276873077789	3.0645783	8.771504	-0.53119355	-0.50003433	0.0	-30.1875	-34.75	14.8125	2.1979506	-0.05710802	-0.33612138
1276873077829	3.3778462	8.730643	-0.46309182	-0.43390083	0.0	-30.1875	-35.25	14.5625	2.2469027	-0.049428444	-0.36915857
1276873077869	3.5957718	8.689782	-0.61291564	-0.38234425	0.0	-30.4375	-35.25	14.3125	2.2324777	-0.06508156	-0.39234012
1276873077899	3.173541	8.771504	-0.7218784	-0.45080853	0.0	-30.1875	-34.75	14.3125	2.1551688	-0.077234805	-0.34714922
1276873077939	3.3778462	8.689782	-0.7627395	-0.45229626	0.0	-30.4375	-34.5	14.3125	2.1659057	-0.08162907	-0.37073997
1276873077979	3.718355	8.662541	-0.6537767	-0.3571415	0.0	-30.1875	-34.5	15.0625	2.275179	-0.069241636	-0.40546092
1276873078009	3.255263	8.771504	-0.53119355	-0.4355135	0.0	-29.9375	-34.0	15.3125	2.2417974	-0.056714404	-0.35536292
1276873078039	2.8738933	8.853226	-0.53119355	-0.48350525	0.0	-29.9375	-34.5	15.0625	2.1877398	-0.05700666	-0.313884
1276873078069	2.7921712	8.962189	-0.5720546	-0.40216732	0.0	-29.6875	-34.25	15.5625	2.1924593	-0.060865443	-0.3020193
1276873078099	2.8330324	8.962189	-0.50395286	-0.39384747	0.0	-29.1875	-34.25	15.8125	2.2301972	-0.053564698	-0.30616978
1276873078129	2.7921712	9.847511	-0.7218784	0.45448112	0.0	-29.6875	-35.25	14.5625	2.1190717	-0.070408925	-0.27628905
1276873078159	4.372132	8.117727	-1.4573772	-0.4719305	0.0	-29.6875	-35.25	13.75	2.177417	-0.15676568	-0.49404144
1276873078189	2.8330324	8.62168	1.879608	-0.5388365	0.0	-29.1875	-35.5	13.25	2.4863825	0.20422702	-0.3174791
1276873078219	2.3018389	9.275456	-0.5720546	-0.23273754	0.0	-29.6875	-35.25	13.0	2.0478804	-0.059787	-0.24325038
1276873078259	2.152015	9.112013	-2.6832085	-0.06706333	0.0	-28.75	-35.0	14.0	1.6833603	-0.2791047	-0.23192365
1276873078299	2.9556155	8.962189	-0.0	-0.36967564	0.0	-28.5	-35.25	14.5625	2.3083863	-0.0	-0.31855568
1276873078339	3.7864566	8.62168	-0.46309182	-0.37876225	0.0	-28.5	-35.5	14.5625	2.379571	-0.049139135	-0.41381842
1276873078379	3.718355	8.62168	-1.0351465	-0.36043072	0.0	-28.25	-35.75	13.75	2.2146738	-0.10980366	-0.40717748
1276873078409	3.9090397	8.580819	-0.6946377	-0.35183334	0.0	-28.5	-35.5	13.5	2.3097494	-0.07353544	-0.4274643
1276873078439	3.7864566	8.62168	-0.50395286	-0.37666607	0.0	-28.25	-35.75	13.75	2.351117	-0.05346701	-0.41381842
1276873078479	3.405087	8.771504	-0.6537767	-0.37471867	0.0	-28.75	-35.75	14.0	2.2386367	-0.06937087	-0.37029168
1276873078509	3.214402	8.771504	-0.5720546	-0.4472208	0.0	-29.0	-35.75	14.5625	2.2427182	-0.061158795	-0.35126224
1276873078539	3.0237172	8.771504	-0.29964766	-0.52376556	0.0	-29.0	-36.0625	14.5625	2.2691412	-0.03228519	-0.33196375
1276873078569	2.6832085	8.894087	-0.23154591	-0.5137491	0.0	-29.1875	-35.25	14.5625	2.220939	-0.024919009	-0.29300153
1276873078599	2.4108016	9.043911	-0.3405087	-0.44074154	0.0	-29.0	-35.0	13.75	2.1429284	-0.036364198	-0.26050866
1276873078629	2.4516625	8.962189	-0.42223078	-0.50558853	0.0	-29.1875	-34.75	13.75	2.1293826	-0.04541158	-0.26702344
1276873078669	2.7921712	8.921328	-0.46309182	-0.44712257	0.0	-29.4375	-34.5	14.0	2.1611102	-0.04949833	-0.30331945
1276873078700	3.173541	8.771504	-0.42223078	-0.46914864	0.0	-29.6875	-34.5	13.75	2.201437	-0.04523424	-0.34714922
1276873078739	3.2961242	8.689782	-0.50395286	-0.4990883	0.0	-29.4375	-35.25	14.5625	2.2525356	-0.054170948	-0.36254424
1276873078779	3.255263	8.812365	-0.53119355	-0.39725685	0.0	-29.4375	-35.25	14.5625	2.2525356	-0.054170948	-0.36254424
1276873078809	3.214402	8.771504	-0.6946377	-0.43892956	0.0	-29.1875	-35.5	14.5625	2.210634	-0.07422039	-0.35126224
1276873078849	3.1463003	8.730643	-0.6537767	-0.5033846	0.0	-29.1875	-36.0625	15.0625	2.2358422	-0.07033187	-0.345887
1276873078889	2.982856	8.812365	-0.53119355	-0.48799324	0.0	-29.6875	-35.5	14.8125	2.2056491	-0.057034146	-0.32638016
1276873078929	2.9147544	8.812365	-0.53119355	-0.5095682	0.0	-29.0	-36.0625	14.3125	2.200585	-0.057166647	-0.31943038
1276873078969	3.0237172	8.812365	-0.6537767	-0.46705437	0.0	-28.75	-35.75	14.3125	2.1961515	-0.07005783	-0.33053443
1276873078999	3.1054392	8.853226	-0.5720546	-0.4071493	0.0	-28.75	-35.5	14.0	2.2068436	-0.06089774	-0.33735994
1276873079039	3.0645783	8.853226	-0.61291564	-0.41799164	0.0	-28.75	-35.5	14.3125	2.206478	-0.065329015	-0.33324432
1276873079079	2.982856	8.853226	-0.53119355	-0.44934273	0.0	-29.1875	-35.25	14.8125	2.2166188	-0.05679831	-0.32497784
1276873079109	2.982856	8.812365	-0.61291564	-0.48297787	0.0	-29.4375	-35.0	15.0625	2.20399	-0.06578502	-0.32638016
1276873079149	3.1054392	8.730643	-0.6946377	-0.51415825	0.0	-29.1875	-35.25	15.3125	2.2260618	-0.07482237	-0.34173858
1276873079179	3.214402	8.771504	-0.5720546	-0.4472208	0.0	-29.1875	-35.0	15.3125	2.2601113	-0.061158795	-0.35126224
1276873079219	3.173541	8.771504	-0.61291564	-0.4585848	0.0	-29.1875	-34.75	15.0625	2.2352078	-0.065613106	-0.34714922
1276873079259	3.0645783	8.771504	-0.53119355	-0.50003433	0.0	-29.1875	-35.25	14.8125	2.2299294	-0.05710802	-0.33612138
1276873079289	3.0237172	8.812365	-0.5720546	-0.47241879	0.0	-29.1875	-35.0	14.3125	2.1939008	-0.061324097	-0.33053443
1276873079329	3.0237172	8.812365	-0.53119355	-0.4748335	0.0	-29.1875	-35.0	13.75	2.178633	-0.05695363	-0.33053446
1276873079369	3.1054392	8.771504	-0.5720546	-0.48408127	0.0	-28.75	-35.25	14.3125	2.2207234	-0.061400913	-0.3402669
1276873079399	3.2961242	8.771504	-0.5720546	-0.4188404	0.0	-28.5	-34.75	14.8125	2.271472	-0.060973674	-0.35945117
1276873079429	3.2961242	8.730643	-0.50395286	-0.46092796	0.0	-28.0	-35.25	14.8125	2.3079724	-0.05394954	-0.36099136
1276873079469	3.0645783	8.812365	-0.46309182	-0.46513748	0.0	-27.75	-35.0	15.3125	2.3021197	-0.049593862	-0.33467692
1276873079499	2.8738933	8.921328	-0.53119355	-0.4188118	0.0	-28.5	-34.75	14.5625	2.2072296	-0.056613397	-0.3116406
1276873079531	2.7921712	8.853226	-0.53119355	-0.50837135	0.0	-29.0	-35.0	13.75	2.154847	-0.05715928	-0.30551067
1276873079559	2.982856	8.771504	-0.53119355	-0.5266237	0.0	-29.4375	-34.5	14.0	2.174726	-0.057271823	-0.32779413
1276873079589	3.1054392	8.771504	-0.53119355	-0.4864998	0.0	-29.4375	-35.0	13.5	2.1726758	-0.057024997	-0.34026694
1276873079619	3.0645783	8.812365	-0.53119355	-0.46151352	0.0	-29.1875	-35.25	13.5	2.1751108	-0.056872368	-0.3346769
1276873079659	3.0645783	8.771504	-0.5720546	-0.49761295	0.0	-29.0	-35.25	14.3125	2.20775	-0.06149028	-0.33612138
1276873079689	3.1463003	8.812365	-0.5720546	-0.43199158	0.0	-29.0	-35.75	14.3125	2.2213027	-0.06105932	-0.34292606
1276873079719	3.214402	8.730643	-0.53119355	-0.48792267	0.0	-29.0	-35.5	15.3125	2.279585	-0.057033714	-0.35277346
1276873079759	3.214402	8.771504	-0.5720546	-0.4472208	0.0	-29.1875	-35.25	16.3125	2.299856	-0.061158795	-0.35126224
1276873079790	3.1054392	8.853226	-0.6946377	-0.39889336	0.0	-29.0	-35.25	15.5625	2.2376058	-0.073903956	-0.33735994
1276873079829	3.173541	8.853226	-0.7627395	-0.37093353	0.0	-29.0	-35.0	15.5625	2.2322578	-0.08092365	-0.34419295
1276873079869	3.336985	8.812365	-0.7627395	-0.35281467	0.0	-29.0	-35.25	15.0625	2.2377875	-0.08076822	-0.36198503
1276873079909	3.2961242	8.771504	-0.8036005	-0.40189075	0.0	-29.0	-35.25	14.5625	2.2037046	-0.085550465	-0.35945117
1276873079939	3.173541	8.853226	-0.7627395	-0.37093353	0.0	-29.0	-35.5	15.5625	2.2360384	-0.08092365	-0.34419295
1276873079969	3.173541	8.812365	-0.6946377	-0.4145441	0.0	-28.75	-36.0625	15.5625	2.2627878	-0.07402733	-0.34566507
1276873079999	3.173541	8.812365	-0.6537767	-0.4174776	0.0	-28.5	-35.75	15.3125	2.2659268	-0.06968731	-0.34566504
1276873080049	3.173541	8.771504	-0.6946377	-0.45287132	0.0	-28.25	-35.75	15.0625	2.257656	-0.07433122	-0.34714922
1276873080079	3.1463003	8.812365	-0.5720546	-0.43199158	0.0	-28.5	-35.75	14.3125	2.2368655	-0.06105932	-0.34292606
1276873080109	3.1463003	8.853226	-0.53119355	-0.39596558	0.0	-29.0	-35.0	14.5625	2.2315233	-0.05647581	-0.34146374
1276873080179	3.1054392	8.812365	-0.61291564	-0.44304085	0.0	-29.0	-35.5	14.3125	2.2058024	-0.06550404	-0.33880743
1276873080209	3.173541	8.771504	-0.5720546	-0.46117496	0.0	-29.0	-35.75	14.3125	2.2266161	-0.061250225	-0.34714922
1276873080239	3.1463003	8.771504	-0.61291564	-0.46779728	0.0	-28.75	-35.75	14.3125	2.2224653	-0.065677926	-0.34440038
1276873080269	3.1054392	8.812365	-0.61291564	-0.44304085	0.0	-28.75	-35.75	15.0625	2.2459671	-0.06550404	-0.33880743
1276873080329	2.982856	8.812365	-0.53119355	-0.48799324	0.0	-29.1875	-34.5	14.8125	2.2124867	-0.057034146	-0.32638016
1276873080369	2.8738933	8.812365	-0.46309182	-0.5259447	0.0	-29.1875	-34.5	14.3125	2.19206	-0.049919073	-0.31524506
1276873080399	2.7649305	8.853226	-0.50395286	-0.5180321	0.0	-29.0	-34.25	14.0	2.1623213	-0.054281533	-0.30270967
1276873080429	2.7921712	8.894087	-0.53119355	-0.46945763	0.0	-28.75	-34.25	14.3125	2.1784046	-0.056920804	-0.30419227
1276873080459	2.9147544	8.894087	-0.53119355	-0.43207073	0.0	-28.75	-34.5	14.3125	2.1944058	-0.056693554	-0.31668845
1276873080499	2.982856	8.921328	-0.53119355	-0.38488388	0.0	-29.1875	-34.25	14.0	2.1755166	-0.05640931	-0.3226663
1276873080529	3.0237172	8.853226	-0.53119355	-0.43623734	0.0	-29.6875	-34.5	14.3125	2.1828814	-0.05671879	-0.3291169
1276873080569	3.0237172	8.812365	-0.61291564	-0.4698248	0.0	-29.6875	-34.5	14.3125	2.1828814	-0.05671879	-0.3291169
1276873080609	3.0645783	8.812365	-0.6537767	-0.4537449	0.0	-29.6875	-35.25	14.8125	2.1913996	-0.06995797	-0.33467692
1276873080639	3.1054392	8.812365	-0.6537767	-0.4402771	0.0	-29.6875	-36.0625	15.3125	2.222316	-0.06985722	-0.33880746
1276873080679	3.0645783	8.812365	-0.61291564	-0.45651245	0.0	-29.1875	-35.5	15.0625	2.2251904	-0.06559855	-0.33467692
1276873080709	3.0645783	8.812365	-0.5720546	-0.45910168	0.0	-29.0	-34.75	14.5625	2.2127323	-0.061236624	-0.33467692
1276873080739	3.0237172	8.853226	-0.61291564	-0.43124962	0.0	-29.0	-34.25	14.3125	2.1851466	-0.06542153	-0.3291169
1276873080769	2.982856	8.812365	-0.6537767	-0.48020267	0.0	-28.5	-34.0	14.0	2.1731892	-0.07015676	-0.32638016
1276873080799	2.982856	8.853226	-0.61291564	-0.44434834	0.0	-28.75	-35.0	14.5625	2.2024999	-0.06551319	-0.32497782
1276873080869	2.9556155	8.853226	-0.6946377	-0.44728088	0.0	-29.0	-36.0625	14.8125	2.1935115	-0.07428674	-0.32221204
1276873080899	2.9147544	8.853226	-0.6537767	-0.4630518	0.0	-28.75	-35.75	15.0625	2.2112837	-0.07002777	-0.31805375
1276873080929	2.9147544	8.894087	-0.61291564	-0.42708492	0.0	-28.75	-35.25	14.8125	2.204429	-0.06539244	-0.31668848
1276873080959	2.8738933	8.853226	-0.61291564	-0.47849178	0.0	-28.75	-35.25	14.8125	2.204429	-0.06539244	-0.31668848
1276873080999	2.9147544	8.853226	-0.53119355	-0.47082806	0.0	-28.75	-34.75	15.0625	2.226549	-0.056929167	-0.3180537
1276873081029	2.8330324	8.894087	-0.61291564	-0.45215797	0.0	-28.75	-34.75	15.3125	2.2106068	-0.06556796	-0.3083688
1276873081059	2.7649305	8.894087	-0.6946377	-0.46683502	0.0	-29.0	-35.0	15.0625	2.173052	-0.07444256	-0.30140182
1276873081089	2.7649305	8.921328	-0.6537767	-0.4438324	0.0	-28.75	-35.0	15.0625	2.1864846	-0.069883786	-0.30053604
1276873081119	2.8330324	8.894087	-0.6537767	-0.44939232	0.0	-28.5	-35.75	14.5625	2.1868057	-0.069925375	-0.3083688
1276873081149	2.8738933	8.894087	-0.61291564	-0.439703	0.0	-28.5	-36.0625	14.3125	2.1915483	-0.06548066	-0.31253424
1276873081179	2.8330324	8.894087	-0.5720546	-0.45474625	0.0	-27.75	-36.0625	14.0	2.2032537	-0.06120807	-0.3083688
1276873081209	2.8330324	8.921328	-0.6946377	-0.42056084	0.0	-27.0	-36.0625	13.75	2.190103	-0.07407487	-0.30748555
1276873081239	2.7921712	8.894087	-0.6946377	-0.4587345	0.0	-27.0	-36.0625	14.0	2.1962798	-0.07437793	-0.30419227
1276873081269	2.7921712	8.921328	-0.7627395	-0.4275198	0.0	-26.75	-35.75	14.3125	2.2013621	-0.081412956	-0.30331945
1276873081299	2.8330324	8.921328	-0.7627395	-0.41527462	0.0	-26.75	-35.75	14.5625	2.2179136	-0.08130657	-0.30748555
1276873081369	2.9147544	8.921328	-0.7218784	-0.3935213	0.0	-27.5	-36.0625	14.8125	2.2261708	-0.07676384	-0.3157846
1276873081399	2.9147544	8.853226	-0.6537767	-0.4630518	0.0	-27.5	-36.5625	14.5625	2.2348814	-0.07002777	-0.31805375
1276873081429	2.8330324	8.853226	-0.6537767	-0.48822212	0.0	-28.0	-36.3125	14.8125	2.2163572	-0.07021724	-0.30970293
1276873081459	2.6832085	8.921328	-0.53119355	-0.47542	0.0	-28.5	-36.3125	14.5625	2.1937168	-0.05695721	-0.29215696
1276873081499	2.4925237	9.043911	-0.46309182	-0.4141283	0.0	-28.0	-36.0625	14.3125	2.182517	-0.049324308	-0.26892617
1276873081529	2.6832085	8.962189	-0.42223078	-0.44189167	0.0	-28.25	-35.75	13.75	2.1839092	-0.045102496	-0.29089898
1276873081559	2.7240696	8.894087	-0.46309182	-0.49322987	0.0	-28.25	-36.0625	13.25	2.164697	-0.049743578	-0.2972071
1276873081599	2.6423476	8.962189	-0.50395286	-0.44947147	0.0	-27.75	-35.75	13.25	2.1569724	-0.05388342	-0.28670958
1276873081629	2.6423476	9.00305	-0.53119355	-0.40882683	0.0	-27.5	-36.3125	13.25	2.160843	-0.056553185	-0.28547803
1276873081659	2.6832085	8.921328	-0.53119355	-0.47542	0.0	-27.5	-35.75	13.5	2.1752903	-0.05695721	-0.29215696
1276873081699	2.6423476	8.894087	-0.5720546	-0.5107355	0.0	-27.0	-35.5	13.5	2.1758277	-0.06157719	-0.28878528
1276873081729	2.6423476	8.894087	-0.6537767	-0.50534916	0.0	-27.0	-35.75	13.75	2.1718922	-0.07034674	-0.28878528
1276873081769	2.6832085	8.894087	-0.7218784	-0.4886303	0.0	-27.25	-35.25	13.25	2.1313727	-0.07754893	-0.2930015
1276873081799	2.5606253	8.962189	-0.5720546	-0.4682951	0.0	-27.25	-35.75	13.25	2.1477563	-0.061296985	-0.27829966
1276873081829	2.2609777	9.043911	-0.53119355	-0.46927834	0.0	-27.0	-36.5625	13.0	2.119359	-0.05691971	-0.24497867
1276873081859	2.1111538	9.112013	-0.61291564	-0.43320847	0.0	-27.5	-36.8125	12.75	2.06559	-0.06543522	-0.22767201
1276873081889	2.152015	9.112013	-0.5720546	-0.42650127	0.0	-27.5	-37.0625	13.0	2.088491	-0.061023533	-0.23192365
1276873081919	2.2609777	9.084772	-0.5720546	-0.42729282	0.0	-27.5	-37.0625	13.25	2.1106215	-0.06102869	-0.24392009
1276873081949	2.4516625	9.043911	-0.6946377	-0.410614	0.0	-28.0	-36.8125	13.5	2.105233	-0.07399631	-0.2647222
1276873081989	2.7240696	8.894087	-0.84446156	-0.46649742	0.0	-27.75	-36.5625	13.25	2.1020885	-0.090535596	-0.2972071
1276873082029	2.7921712	8.894087	-0.88532263	-0.44263363	0.0	-28.0	-36.3125	13.5	2.105075	-0.0946866	-0.3041923
1276873082059	2.6832085	8.894087	-1.1168685	-0.4497385	0.0	-28.0	-36.5625	13.25	2.0289402	-0.11964821	-0.29300153
1276873082089	2.6423476	8.894087	-1.2258313	-0.4477272	0.0	-27.75	-36.3125	13.5	2.0175538	-0.13135739	-0.28878528
1276873082129	2.5606253	8.921328	-0.9942854	-0.4720106	0.0	-27.5	-36.3125	14.0	2.0906153	-0.10671812	-0.2795091
1276873082159	2.6832085	9.00305	-0.95342433	-0.36400604	0.0	-27.25	-36.3125	14.0	2.1197119	-0.101142414	-0.28965148
1276873082199	3.0645783	8.921328	-0.9125633	-0.32959938	0.0	-27.25	-36.3125	14.3125	2.1959872	-0.096441336	-0.33088273
1276873082229	3.255263	8.853226	-0.3405087	-0.36777878	0.0	-27.0	-36.8125	14.3125	2.359486	-0.03608298	-0.3523486
1276873082259	3.1054392	9.112013	0.040861044	-0.17990589	0.0	-27.0	-36.5625	13.75	2.3623965	0.0042445464	-0.32846186
1276873082289	3.0237172	9.084772	-0.08172209	-0.23154545	0.0	-27.25	-36.8125	13.0	2.2966144	-0.008534954	-0.3213007
1276873082329	2.7649305	8.921328	-0.27240697	-0.4627142	0.0	-27.25	-36.8125	12.25	2.1987367	-0.029157473	-0.30053604
1276873082359	2.5333846	8.853226	-0.19068487	-0.59611225	0.0	-28.0	-36.3125	11.0	2.1093755	-0.020704381	-0.278706
1276873082389	2.5333846	8.662541	-0.08172209	-0.78089046	0.0	-28.5	-36.8125	10.1875	2.0929658	-0.009054441	-0.28451848
1276873082419	2.5333846	8.853226	-0.08172209	-0.59772396	0.0	-28.75	-36.8125	9.6875	2.0590878	-0.008874342	-0.278706
1276873082449	2.7240696	9.112013	-0.42223078	-0.28679657	0.0	-29.0	-36.8125	9.1875	1.9686501	-0.04436721	-0.2904966
1276873082479	3.0645783	9.112013	-0.84446156	-0.15607834	0.0	-29.4375	-37.0625	8.9375	1.8726023	-0.08761584	-0.32443872
1276873082519	3.5957718	8.921328	-1.2258313	-0.11013889	0.0	-29.9375	-37.0625	8.1875	1.7389235	-0.12675901	-0.38313589
1276873082549	4.399372	8.158588	-1.0760075	-0.47526073	0.0	-30.4375	-36.5625	7.125	1.7490987	-0.11556762	-0.4945385
1276873082589	5.134871	7.9679036	-0.5720546	-0.31024933	0.0	-31.4375	-36.5625	5.625	1.96294	-0.060275592	-0.57245976
1276873082629	5.175732	9.466142	2.5606253	1.2817602	0.0	-31.875	-36.3125	4.0625	2.5237572	0.23303144	-0.5003543
1276873082659	3.3778462	10.310603	4.3312707	1.875742	0.0	-32.375	-35.75	3.0625	2.344362	0.37981865	-0.31658983
1276873082699	2.7240696	8.281172	2.7649305	-0.66098404	0.0	-32.625	-36.0625	2.0625	2.2338796	0.30712706	-0.317798
1276873082739	3.336985	6.4015636	1.1441092	-2.4974456	0.0	-33.125	-35.25	1.25	2.1483757	0.15717627	-0.48052362
1276873082769	3.9499009	6.782933	-0.10896278	-1.9566965	0.0	-33.875	-35.25	0.75	1.5786405	-0.013881137	-0.527325
1276873082799	4.1814466	7.8589406	0.95342433	-0.8536358	0.0	-34.625	-35.0	0.25	1.9279007	0.1066943	-0.4889673
1276873082829	4.2904096	8.539958	2.8330324	0.16152763	0.0	-35.3125	-34.5	-0.25	2.2521157	0.28817987	-0.46555966
1276873082869	4.2904096	8.158588	2.4925237	-0.257679	0.0	-35.5625	-34.25	-0.25	2.2282102	0.26408425	-0.48413384
1276873082899	5.2165933	7.3549876	0.27240697	-0.78540325	0.0	-36.0625	-33.0	-0.5	1.6618851	0.030200744	-0.61691326
1276873082929	5.7886477	7.082581	-0.42223078	-0.649704	0.0	-36.8125	-31.9375	-0.75	1.2275506	-0.04612679	-0.68520564
1276873082959	4.4810944	7.1234417	-0.53119355	-1.3742247	0.0	-37.5	-30.6875	-0.75	1.3385537	-0.0630359	-0.56151575
1276873082999	2.0294318	7.5865335	0.95342433	-1.8957014	0.0	-38.0	-29.625	-1.0	1.695429	0.12081327	-0.26138446
1276873083039	4.8216033	8.962189	1.920469	0.54984	0.0	-38.5	-28.875	-1.5	1.8873049	0.18651584	-0.4935788
1276873083069	5.175732	7.205164	2.9147544	-0.46864223	0.0	-39.0	-28.125	-2.3125	2.238394	0.31744346	-0.6229266
1276873083109	4.671779	6.66035	1.607201	-1.5139503	0.0	-39.5	-27.875	-3.0625	1.9128517	0.19504343	-0.61168605
1276873083139	5.175732	6.782933	1.4982382	-1.144023	0.0	-40.25	-27.625	-4.3125	1.8135288	0.17382833	-0.6518023
1276873083169	5.325556	7.3141265	3.1463003	-0.22765255	0.0	-40.25	-27.625	-5.125	2.1339192	0.33467072	-0.6293497
1276873083199	5.706926	7.3549876	4.944186	0.7342148	0.0	-39.5	-27.375	-6.625	2.3969226	0.4882141	-0.6598883
1276873083229	7.3141265	8.853226	4.2495484	2.4381332	0.0	-39.5	-27.625	-8.1875	2.1518803	0.35442346	-0.6904862
1276873083259	9.043911	10.038197	4.7943625	4.530143	0.0	-39.25	-27.125	-9.1875	2.1286485	0.34097877	-0.7333396
1276873083289	6.8237944	6.66035	0.14982383	-0.27004337	0.0	-38.75	-26.625	-11.0	0.66251796	0.015711037	-0.7975188
1276873083329	4.7535014	6.2789803	-0.7627395	-1.8944354	0.0	-39.0	-26.3125	-11.75	0.760581	-0.09655019	-0.6479978
1276873083359	1.8387469	9.152874	0.313268	-0.46565342	0.0	-38.0	-26.0625	-12.5	1.2301838	0.03354318	-0.19825391
1276873083399	1.7570249	9.534244	-2.2201166	0.1390953	0.0	-37.3125	-27.125	-13.0	1.0060102	-0.2251194	-0.18224104
1276873083429	1.6889231	9.80665	-0.88532263	0.18367767	0.0	-35.8125	-29.125	-12.75	1.0912726	-0.08873437	-0.17054917
1276873083459	1.1168685	9.765789	-0.23154591	0.02552414	0.0	-33.375	-31.1875	-12.75	1.1412616	-0.023551995	-0.11387068
1276873083499	1.0760075	8.771504	-0.46309182	-0.95726967	0.0	-31.875	-33.0	-12.75	1.083122	-0.052354336	-0.12206098
1276873083539	1.0351465	8.962189	-0.14982383	-0.78363514	0.0	-29.4375	-34.75	-12.5	1.0914489	-0.016605394	-0.11499198
1276873083569	1.2666923	8.689782	1.334794	-0.92416763	0.0	-28.25	-35.5	-11.75	1.3251227	0.15084404	-0.14474854
1276873083609	1.920469	8.499097	1.0760075	-1.027092	0.0	-28.0	-36.8125	-10.6875	1.294194	0.122867174	-0.22222945
1276873083639	2.6423476	8.689782	-0.3405087	-0.71763134	0.0	-26.75	-37.5625	-9.6875	0.91348726	-0.037472516	-0.29519135
1276873083669	3.173541	8.853226	-0.23154591	-0.39896297	0.0	-26.5	-38.0625	-8.9375	0.8784169	-0.024614902	-0.34419298
1276873083709	3.255263	8.240311	-0.10896278	-0.94598866	0.0	-26.3125	-38.8125	-8.6875	0.83480734	-0.012297674	-0.37622434
1276873083739	2.8738933	8.853226	-0.14982383	-0.49744415	0.0	-25.0625	-39.0625	-7.9375	0.93681544	-0.016094852	-0.313884
1276873083769	2.0294318	10.310603	0.50395286	0.7138586	0.0	-24.8125	-39.625	-7.125	1.278403	0.047920287	-0.19434524
1276873083799	1.1441092	11.917805	2.1111538	2.3506536	0.0	-24.3125	-40.125	-5.625	1.6589391	0.17453796	-0.0957067
1276873083839	0.6946377	12.4489975	3.1463003	3.052559	0.0	-24.0625	-40.125	-4.875	1.8138739	0.24718235	-0.055740885
1276873083879	1.1168685	10.419566	3.9090397	1.3779535	0.0	-24.5625	-40.125	-4.5625	2.0545292	0.35703936	-0.106781825
1276873083909	3.7864566	10.841797	6.5922484	3.4349337	0.0	-24.8125	-40.375	-4.875	2.648555	0.5211115	-0.33600315
1276873083939	5.2165933	13.143636	1.920469	4.4641666	0.0	-24.8125	-39.625	-7.375	1.4389683	0.1349827	-0.3778235
1276873083969	2.8738933	14.410328	-7.246025	6.576929	0.0	-24.3125	-39.0625	-10.1875	0.52178174	-0.45813215	-0.1968502
1276873084009	2.070293	13.0619135	-5.053149	4.3508224	0.0	-23.5625	-38.3125	-13.75	0.55814564	-0.36497346	-0.15719084
1276873084039	4.944186	10.18802	3.3778462	2.0107346	0.0	-23.125	-36.8125	-18.125	0.75626713	0.2898798	-0.45181385
1276873084069	6.973618	7.8589406	1.2666923	0.7762985	0.0	-23.125	-35.5	-21.9375	-0.35763586	0.119979456	-0.7257811
1276873084109	5.5571017	5.5162406	-3.5957718	-1.1903944	0.0	-22.875	-33.75	-25.25	-0.19518065	-0.4304988	-0.7890882
1276873084139	0.08172209	6.66035	-1.920469	-2.8744688	0.0	-23.5625	-31.4375	-28.3125	0.57205653	-0.2807088	-0.012269323
1276873084169	0.08172209	5.8567495	-1.4165162	-3.7804813	0.0	-24.8125	-28.875	-30.125	0.5938757	-0.23728113	-0.013952584
1276873084209	2.3018389	2.3699405	-1.1849703	-6.296773	0.0	-26.0625	-26.625	-31.375	0.00345088	-0.34437686	-0.7708219
1276873084239	2.5606253	2.2201166	-0.14982383	-6.414281	0.0	-27.5	-25.0625	-31.625	-0.02771323	-0.044179324	-0.8565032
1276873084269	3.6774938	4.671779	3.759216	-2.7723637	0.0	-28.5	-25.0625	-30.625	0.8594743	0.56381345	-0.6668699
1276873084300	5.9793324	10.800936	13.252599	8.305334	0.0	-28.75	-26.0625	-29.0625	2.0840852	0.8208175	-0.5055983
1276873084339	6.238119	14.410328	11.304889	9.542049	0.0	-28.75	-27.625	-26.5	1.5694392	0.62398183	-0.4085364
1276873084369	4.6036777	5.434519	4.372132	-1.4494152	0.0	-28.75	-28.125	-24.75	1.532477	0.55054915	-0.70281845
1276873084399	6.469665	4.903325	-0.84446156	-1.6450157	0.0	-29.0	-28.375	-24.0	-0.17985459	-0.103652716	-0.9222617
1276873084439	10.528529	9.275456	-4.4810944	4.9230556	0.0	-28.75	-28.625	-23.75	-0.07067306	-0.30912116	-0.8485877
1276873084469	7.014479	8.962189	-3.718355	2.166232	0.0	-28.25	-28.625	-25.25	0.1257709	-0.31578708	-0.6640871
1276873084509	1.4165162	10.841797	-2.1111538	1.3292398	0.0	-28.0	-29.625	-25.75	0.6489826	-0.19073546	-0.12991735
1276873084549	-1.6889231	11.536434	-4.7126403	2.7691507	0.0	-26.3125	-30.6875	-26.25	0.72668403	-0.384115	0.1453664
1276873084589	-1.1441092	9.084772	-4.5628166	0.42376328	0.0	-25.5625	-31.9375	-25.5	0.6904591	-0.46229693	0.1252775
1276873084629	2.982856	7.273266	5.434519	-0.24988174	0.0	-25.3125	-33.5	-22.4375	1.9789442	0.60487175	-0.3891934
1276873084659	5.09401	7.8861814	2.6832085	-0.042408943	0.0	-25.0625	-35.5	-19.625	0.25256214	0.27838117	-0.57351667
1276873084699	4.140586	6.6331096	0.88532263	-1.9373178	0.0	-25.5625	-36.8125	-16.3125	0.19365695	0.112741575	-0.55804545
1276873084739	3.0237172	7.205164	-0.6537767	-1.9654336	0.0	-25.8125	-38.0625	-13.5	0.48509946	-0.08347385	-0.3973387
1276873084769	2.2201166	11.75436	-0.42223078	2.1629858	0.0	-26.0625	-39.0625	-12.0	0.93616515	-0.035282478	-0.18667689
1276873084799	1.2666923	13.443283	1.3756552	3.7660723	0.0	-26.5	-39.0625	-9.9375	1.3252796	0.10152874	-0.093947545
1276873084839	0.46309182	12.980191	6.66035	4.7899275	0.0	-27.5	-39.0625	-8.6875	1.9543983	0.47382733	-0.035661686
1276873084869	-0.46309182	12.721405	5.47538	4.0507803	0.0	-28.25	-38.3125	-8.4375	1.8019034	0.40620098	0.0363865
1276873084899	2.3018389	13.865514	3.568531	4.6945686	0.0	-28.75	-37.5625	-8.9375	1.6433727	0.24863885	-0.16451144
1276873084939	5.2165933	12.9529505	-0.3405087	4.1614466	0.0	-28.75	-37.3125	-11.5	0.7904235	-0.024380017	-0.38286105
1276873084969	4.1814466	11.876944	-6.66035	4.4378767	0.0	-28.0	-36.5625	-14.5625	0.40433788	-0.48654267	-0.33851254
1276873085009	3.990762	10.882658	0.3405087	1.7896585	0.0	-27.0	-35.25	-18.625	0.65024376	0.029367764	-0.35148156
1276873085039	4.5628166	10.528529	2.9556155	2.0426064	0.0	-25.8125	-33.25	-22.6875	0.725376	0.25209644	-0.40894413
1276873085069	4.5628166	9.847511	-1.3075534	1.1250687	0.0	-24.5625	-30.6875	-26.25	0.29734457	-0.11989803	-0.43389782
1276873085099	2.6832085	8.689782	-3.9771416	0.11955643	0.0	-24.3125	-28.375	-28.8125	0.3545671	-0.41224894	-0.2994899
1276873085139	0.6946377	7.1234417	-2.4516625	-2.2411633	0.0	-24.5625	-26.0625	-30.875	0.518782	-0.33001667	-0.097207
1276873085169	1.7570249	3.405087	-3.3642259	-4.707653	0.0	-26.0625	-24.0625	-31.625	0.25906625	-0.7205284	-0.47636554
1276873085199	3.1054392	1.1441092	-2.982856	-5.3512974	0.0	-28.5	-22.25	-31.375	-0.23348783	-0.73353463	-1.217806
1276873085229	3.8681788	0.50395286	-1.2666923	-5.705274	0.0	-29.9375	-21.0	-30.625	-0.40886918	-0.31397912	-1.4412444
1276873085259	5.6660647	3.0237172	2.3018389	-2.9842153	0.0	-31.4375	-21.5	-28.5625	-0.2870689	0.34414572	-1.0805895
1276873085299	8.240311	9.384419	11.141444	6.929592	0.0	-31.875	-23.0	-26.25	2.1641054	0.7284417	-0.72057414
1276873085339	6.891896	13.402422	10.923519	8.806421	0.0	-31.6875	-24.0625	-24.0	1.6654447	0.627192	-0.47496483
1276873085369	3.759216	4.7126403	5.09401	-1.9142728	0.0	-31.875	-24.8125	-21.9375	2.3089569	0.70159155	-0.6733295
1276873085399	7.3549876	7.0553403	0.23154591	0.3878231	0.0	-31.6875	-25.0625	-20.4375	0.19471273	0.022714838	-0.80618906
1276873085439	11.073342	13.715691	-4.2495484	8.32613	0.0	-30.9375	-24.8125	-20.6875	0.28288278	-0.23655735	-0.6792057
1276873085469	5.284695	7.246025	-5.47538	0.7010937	0.0	-29.9375	-25.5625	-21.6875	0.23292713	-0.5481163	-0.6301362
1276873085509	3.568531	9.043911	-3.718355	0.6026201	0.0	-28.5	-27.125	-22.1875	0.45929262	-0.36528522	-0.3758238
1276873085549	-0.38136974	10.460427	-6.742072	2.6441135	0.0	-26.75	-29.125	-22.1875	0.6869388	-0.5722187	0.03644219
1276873085579	-1.334794	9.534244	-5.6252036	1.343524	0.0	-26.5	-30.6875	-20.125	0.7795964	-0.5287966	0.13909593
1276873085619	-0.29964766	9.043911	4.440233	0.27292252	0.0	-25.8125	-32.1875	-16.5625	1.5308379	0.4561756	0.033120412
1276873085649	4.5219555	8.662541	5.09401	1.2131796	0.0	-25.5625	-33.25	-13.25	2.360984	0.48054045	-0.48110217
1276873085679	5.053149	7.4639506	2.3018389	-0.5037832	0.0	-25.8125	-33.75	-10.1875	1.8201872	0.25003025	-0.59512734
1276873085719	3.990762	6.851035	0.14982383	-1.8766241	0.0	-24.8125	-35.0	-7.9375	0.49229786	0.018894358	-0.5274562
1276873085749	3.3778462	9.915613	-1.525479	0.77901554	0.0	-24.5625	-35.5	-6.625	0.75514036	-0.1446115	-0.3283294
1276873085779	2.5606253	13.33432	-0.38136974	3.776661	0.0	-24.8125	-35.5	-5.125	1.2317125	-0.028080037	-0.18972307
1276873085809	0.23154591	13.565866	5.284695	4.7540627	0.0	-25.5625	-35.5	-3.3125	1.9503728	0.3714233	-0.017066617
1276873085839	-0.3405087	13.143636	7.3958488	5.278763	0.0	-26.5	-34.75	-2.5625	2.0565531	0.51239365	0.025900943
1276873085869	1.1168685	12.4489975	4.4810944	3.471344	0.0	-27.5	-34.5	-2.5625	1.9615748	0.34424147	-0.08947599
1276873085899	3.568531	12.571581	4.7535014	4.0992785	0.0	-27.75	-34.75	-3.5625	2.1258667	0.3488664	-0.27658167
1276873085929	4.2495484	13.102775	-1.6889231	4.071168	0.0	-27.25	-34.75	-6.625	0.9180376	-0.1220019	-0.31362066
1276873085959	3.1054392	13.593107	-7.3958488	5.9767237	0.0	-27.0	-34.75	-8.9375	0.6099933	-0.48768812	-0.22460233
1276873085989	4.2904096	11.114203	-2.7513103	2.4204855	0.0	-27.0	-34.5	-11.5	0.5539493	-0.22696024	-0.36840507
1276873086029	6.2789803	9.234595	3.6774938	1.9503603	0.0	-26.75	-34.25	-14.8125	1.3960735	0.31813064	-0.5971363
1276873086059	5.5571017	8.008764	-2.7513103	0.3220911	0.0	-27.25	-33.25	-17.625	0.11945523	-0.27509046	-0.6066051
1276873086093	2.2201166	7.0553403	-3.486809	-1.6295738	0.0	-27.5	-31.9375	-20.4375	0.44396314	-0.4405231	-0.30486223
1276873086129	-0.10896278	5.5162406	-2.7921712	-3.6230426	0.0	-28.25	-29.625	-22.9375	0.7093036	-0.4684951	0.019750519
1276873086159	1.1849703	3.5957718	-3.405087	-4.7146616	0.0	-29.4375	-27.375	-24.75	0.43297824	-0.7324786	-0.31833762
1276873086189	2.7240696	2.1111538	-2.4516625	-5.577209	0.0	-30.6875	-25.8125	-25.0	-0.036781453	-0.61831856	-0.91148627
1276873086229	3.3778462	3.0237172	0.95342433	-5.1739697	0.0	-32.125	-25.0625	-25.0	0.16935629	0.20728526	-0.840661
1276873086259	7.8180795	7.9270425	12.53072	6.9557877	0.0	-32.625	-26.625	-23.75	2.857483	0.8443621	-0.77847785
1276873086289	9.00305	13.402422	13.184497	11.038271	0.0	-33.125	-28.125	-21.4375	2.265544	0.68478185	-0.5915122
1276873086329	5.706926	7.7363577	6.6331096	1.8731775	0.0	-33.375	-30.1875	-19.375	2.3652272	0.6039663	-0.63556707
1276873086359	8.281172	7.5456724	1.4573772	1.4910898	0.0	-33.375	-31.6875	-18.625	-0.0751511	0.1293577	-0.8318364
1276873086389	8.894087	9.507003	-3.0237172	3.558632	0.0	-33.375	-31.4375	-18.625	0.10124938	-0.22821248	-0.7521018
1276873086421	6.0882955	6.0882955	-4.9850473	0.14248943	0.0	-33.125	-31.9375	-19.375	0.021084573	-0.5248152	-0.7853982
1276873086460	5.47538	6.2108784	-5.284695	0.01591587	0.0	-32.375	-31.9375	-20.125	0.07635734	-0.5680814	-0.7225441
1276873086499	-0.6537767	13.525005	-5.9793324	4.9955664	0.0	-31.6875	-33.5	-19.125	0.8305174	-0.415829	0.048300773
1276873086539	-4.630918	10.501288	-2.7240696	1.9892387	0.0	-30.6875	-35.75	-17.375	1.1006175	-0.23303734	0.4153324
1276873086569	-0.9942854	8.19945	4.7535014	-0.2769413	0.0	-29.9375	-37.5625	-14.8125	1.6860609	0.52222365	0.12067328
1276873086599	4.140586	7.6954966	3.568531	-0.3673954	0.0	-29.1875	-39.375	-11.75	2.3846374	0.38769144	-0.4936247
1276873086629	5.6660647	7.6954966	2.152015	-0.010930061	0.0	-28.25	-40.875	-8.4375	-2.6351876	0.22149597	-0.6346644
1276873086659	4.399372	7.6273947	0.92618364	-0.95286846	0.0	-27.5	-41.875	-6.375	1.2057233	0.10480055	-0.52317524
1276873086689	2.6832085	7.8180795	-0.42223078	-1.5301619	0.0	-27.25	-42.6875	-4.3125	1.051132	-0.051037844	-0.3306091
1276873086729	2.4925237	10.991621	-1.3756552	1.5476809	0.0	-27.25	-43.1875	-3.3125	1.078943	-0.12145526	-0.22299452
1276873086759	1.9477097	14.1787815	1.0760075	4.5456743	0.0	-28.0	-42.6875	-2.5625	1.6118554	0.07504136	-0.13651353
1276873086789	0.38136974	13.484144	7.273266	5.518753	0.0	-29.0	-42.125	-1.25	2.177034	0.49449685	-0.028275292
1276873086819	-0.0	12.598822	7.5865335	4.900008	0.0	-29.1875	-42.125	-1.25	2.1867545	0.5420078	0.0
1276873086859	1.6480621	11.413852	4.5628166	2.5954227	0.0	-29.9375	-42.4375	-1.25	2.1633153	0.37675777	-0.14340031
1276873086889	3.3778462	12.340035	-0.040861044	2.9874105	0.0	-29.6875	-42.6875	-4.0625	1.3324388	-0.0031937563	-0.26718575
1276873086919	2.8738933	14.246883	-7.9270425	6.748438	0.0	-29.9375	-42.9375	-7.625	0.6124959	-0.49931943	-0.19904967
1276873086959	3.0237172	11.604536	-2.1383946	2.3745184	0.0	-30.4375	-41.875	-11.75	0.7563006	-0.17646363	-0.2548957
1276873086989	5.8976107	9.043911	3.255263	1.470357	0.0	-30.6875	-40.625	-16.8125	1.1830931	0.29283088	-0.57785594
1276873087029	6.0474343	8.390134	-1.9885708	0.72521687	0.0	-30.9375	-38.5625	-20.9375	0.08510141	-0.18995494	-0.6245361
1276873087059	1.879608	6.8237944	-2.7921712	-2.1978846	0.0	-30.9375	-36.3125	-24.25	0.48371217	-0.3757472	-0.2687837
1276873087089	-0.6946377	5.47538	-2.1792557	-3.8727255	0.0	-31.875	-33.75	-27.3125	0.78043735	-0.37605464	0.12619153
1276873087129	1.2666923	3.486809	-3.486809	-4.715463	0.0	-32.625	-31.1875	-28.8125	0.38994905	-0.75442743	-0.3484573
1276873087159	3.3778462	2.6832085	-2.3426998	-4.89771	0.0	-33.875	-29.375	-29.0625	-0.041136462	-0.49750134	-0.89950705
1276873087189	3.8273177	3.9499009	0.040861044	-4.3064914	0.0	-34.625	-28.875	-28.5625	0.16749918	0.0074291346	-0.76963764
1276873087229	7.014479	6.2789803	8.894087	3.1445389	0.0	-34.625	-30.4375	-27.0625	3.106988	0.75699335	-0.8406697
1276873087259	9.80665	14.1787815	14.7916975	12.90904	0.0	-34.125	-32.4375	-25.25	2.4164617	0.70912045	-0.6050949
1276873087289	5.8567495	8.921328	7.7772183	3.398528	0.0	-34.8125	-34.25	-23.75	2.2842822	0.62976164	-0.5809231
1276873087319	7.3958488	6.5513873	1.6889231	0.21690845	0.0	-35.0625	-35.25	-23.1875	-0.2131369	0.169303	-0.8458712
1276873087359	9.112013	9.534244	-3.9771416	3.9682627	0.0	-35.0625	-34.75	-22.9375	0.03694861	-0.29289332	-0.7627578
1276873087389	5.134871	6.0201936	-5.175732	-0.35160732	0.0	-34.8125	-34.25	-23.5	0.09175732	-0.5792595	-0.7061991
1276873087419	4.5219555	6.6331096	-5.366417	-0.15032291	0.0	-33.125	-34.25	-24.0	0.17364348	-0.589254	-0.5983552
1276873087459	-1.3756552	14.369467	-5.325556	5.579563	0.0	-32.125	-35.5	-23.5	0.81662995	-0.3534378	0.095443726
1276873087489	-4.372132	11.223166	-2.8330324	2.5667515	0.0	-31.1875	-37.3125	-21.6875	1.0146986	-0.23101069	0.3714768
1276873087529	-1.1849703	8.076866	2.9556155	-1.1247387	0.0	-30.1875	-39.0625	-18.625	1.4077313	0.34737813	0.1456724
1276873087569	4.4810944	7.246025	2.8738933	-0.8153019	0.0	-29.9375	-41.125	-15.3125	1.9891204	0.32533765	-0.5538544
1276873087599	5.053149	7.8180795	1.7570249	-0.33332825	0.0	-28.75	-42.125	-12.25	0.46002448	0.18655099	-0.5737991
1276873087639	3.6774938	7.6954966	0.8036005	-1.23983	0.0	-28.0	-43.4375	-9.9375	0.90951955	0.093941934	-0.44579235
1276873087669	2.2201166	8.894087	-0.95342433	-0.5902128	0.0	-27.75	-44.1875	-8.1875	0.8850272	-0.10363365	-0.2446183
1276873087699	2.982856	12.680544	-0.9942854	3.2578907	0.0	-27.5	-44.9375	-6.375	1.0181016	-0.07617931	-0.23103078
1276873087739	2.1792557	13.565866	5.47538	4.983944	0.0	-28.25	-44.6875	-4.0625	2.1703148	0.3792172	-0.15928173
1276873087769	0.313268	13.443283	10.119919	7.022871	0.0	-28.5	-44.1875	-2.8125	2.3035927	0.6451515	-0.023298722
1276873087799	-0.14982383	12.408136	6.1700177	4.0516834	0.0	-29.1875	-43.9375	-2.5625	2.0931976	0.46142077	0.012074057
1276873087839	3.173541	11.985906	1.6480621	2.7013235	0.0	-29.1875	-43.1875	-3.8125	1.7271863	0.13214517	-0.25883338
1276873087869	3.568531	14.206022	-7.246025	6.5350246	0.0	-29.6875	-42.6875	-7.375	0.57835	-0.45939705	-0.24610631
1276873087899	2.3018389	13.021052	-4.0180025	4.0132856	0.0	-30.1875	-42.4375	-11.75	0.7308379	-0.29499975	-0.17497055
1276873087929	3.9499009	10.501288	1.2258313	1.4796886	0.0	-30.1875	-41.375	-16.3125	0.9003155	0.10882663	-0.3597653
1276873087969	6.851035	8.62168	2.6014864	1.508729	0.0	-30.1875	-39.625	-20.6875	-0.1166522	0.23198226	-0.67145723
1276873087999	6.0474343	7.082581	-5.202973	0.86130905	0.0	-30.4375	-38.0625	-25.0	-0.03438916	-0.5094757	-0.7067227
1276873088039	-0.23154591	6.0201936	-1.3075534	-3.6417465	0.0	-31.1875	-35.75	-27.3125	0.7632345	-0.2137196	0.03844259
1276873088079	-1.2258313	4.671779	-2.6832085	-4.281454	0.0	-32.625	-33.0	-29.875	0.81552684	-0.50708526	0.25660604
1276873088119	2.8738933	2.0294318	-2.5333846	-5.471227	0.0	-33.875	-30.9375	-31.625	-0.10922994	-0.62407315	-0.95594734
1276873088159	4.7535014	3.7864566	2.152015	-3.35962	0.0	-35.3125	-30.1875	-30.875	-0.11781361	0.34033132	-0.8981555
1276873088189	9.193735	8.308413	13.824653	8.758787	0.0	-36.0625	-30.9375	-29.875	3.0623066	0.8400022	-0.8359387
1276873088229	9.234595	14.246883	11.495573	10.696999	0.0	-36.5625	-32.6875	-27.3125	1.8652238	0.5951825	-0.5750972
1276873088259	7.3141265	5.6660647	4.5219555	0.49135017	0.0	-37.0625	-34.75	-24.75	-1.5654019	0.4546079	-0.9116899
1276873088289	11.34575	7.5456724	-0.88532263	3.84791	0.0	-37.3125	-35.25	-24.25	-0.30624396	-0.06488266	-0.9839027
1276873088329	8.62168	9.043911	-4.372132	3.431221	0.0	-37.5	-34.75	-25.25	0.077627435	-0.33659443	-0.76150143
1276873088369	3.5276701	7.246025	-7.8589406	1.4500046	0.0	-36.8125	-34.5	-27.3125	0.33047658	-0.7728236	-0.453066
1276873088399	0.38136974	13.824653	-6.0882955	5.3040676	0.0	-35.3125	-35.5	-27.8125	0.70732987	-0.41469675	-0.027579213
1276873088429	-2.8330324	12.680544	-5.5162406	4.3089857	0.0	-32.875	-37.5625	-26.8125	0.838554	-0.40148902	0.21980596
1276873088469	-3.214402	9.152874	0.7627395	-0.07580948	0.0	-30.6875	-39.875	-24.75	1.0802281	0.07846421	0.33773497
1276873088499	1.7978859	7.9679036	5.366417	-0.03330326	0.0	-29.0	-43.1875	-20.9375	2.0235982	0.58127135	-0.2219245
1276873088539	4.7943625	7.273266	2.3426998	-0.7858658	0.0	-28.5	-45.1875	-17.875	-0.30683398	0.26271173	-0.58279884
1276873088569	4.2086873	7.0553403	1.334794	-1.4836369	0.0	-28.25	-46.75	-14.8125	0.053061265	0.16106944	-0.53786045
1276873088599	2.7649305	7.4639506	-0.38136974	-1.8379087	0.0	-28.0	-48.5625	-12.5	0.5552957	-0.047876503	-0.35476506
1276873088639	1.920469	9.888372	-1.1849703	0.33594608	0.0	-28.25	-48.5625	-11.0	0.82329947	-0.11709848	-0.1918268
1276873088679	1.7978859	12.762266	3.0237172	3.4315786	0.0	-28.5	-49.3125	-9.1875	1.7158042	0.23044212	-0.13995413
1276873088719	1.5390993	12.571581	6.469665	4.415517	0.0	-29.0	-49.5625	-7.9375	2.2098293	0.47226006	-0.121820666
1276873088759	0.3405087	12.980191	5.284695	4.212241	0.0	-29.6875	-49.3125	-7.375	1.9721366	0.38652232	-0.026226936
1276873088789	2.4108016	12.639683	5.325556	4.1194077	0.0	-29.9375	-49.8125	-8.9375	2.1312523	0.39241028	-0.18846908
1276873088829	3.1054392	13.443283	-3.214402	4.3601418	0.0	-29.9375	-48.5625	-13.0	0.6317095	-0.22889036	-0.22702083
1276873088869	2.6014864	12.789507	-3.718355	3.764104	0.0	-29.6875	-46.75	-18.125	0.5590562	-0.27754733	-0.2006702
1276873088899	4.862464	9.384419	2.4925237	1.0526114	0.0	-29.0	-44.1875	-24.0	0.44753554	0.2315945	-0.47805583
1276873088929	5.284695	8.471856	2.7240696	0.543273	0.0	-28.25	-40.375	-29.0625	0.17066036	0.26633465	-0.5577318
1276873088969	3.759216	7.246025	-4.8216033	-0.3259096	0.0	-28.0	-36.8125	-32.375	0.15356027	-0.5335211	-0.4785719
1276873088999	-0.19068487	6.1700177	-0.8036005	-3.5815997	0.0	-29.0	-33.0	-35.1875	0.6553462	-0.12945266	0.03089524
1276873089029	-0.040861044	4.5219555	-3.1054392	-4.3208957	0.0	-30.6875	-29.375	-35.9375	0.5913135	-0.6017568	0.009035898
1276873089059	2.1792557	3.1054392	-3.568531	-4.5982604	0.0	-32.625	-27.375	-35.9375	0.1992787	-0.7548103	-0.6119025
1276873089089	3.8273177	2.5606253	-2.3018389	-4.658483	0.0	-34.625	-25.5625	-35.4375	-0.03910473	-0.46354088	-0.9811531
1276873089129	5.8567495	4.862464	1.56634	-2.0350037	0.0	-35.3125	-25.5625	-34.1875	0.11635068	0.2029355	-0.8778909
1276873089169	10.038197	12.680544	15.213928	12.39752	0.0	-35.3125	-26.875	-32.125	2.0738668	0.7548554	-0.66961145
1276873089199	7.0553403	13.184497	11.372991	8.980412	0.0	-36.3125	-27.625	-29.5625	1.6541567	0.65022177	-0.4913504
1276873089239	6.0882955	5.284695	3.8681788	-0.8647175	0.0	-36.8125	-28.875	-27.3125	0.48510173	0.44736207	-0.8559396
1276873089269	10.419566	9.152874	-3.445948	4.483802	0.0	-36.8125	-29.125	-25.75	0.06639648	-0.2435366	-0.8500262
1276873089299	6.701211	8.894087	-4.2904096	2.1272774	0.0	-36.8125	-28.375	-26.25	0.29471686	-0.36774662	-0.64570266
1276873089339	2.7649305	9.112013	-8.008764	2.6357746	0.0	-35.3125	-27.625	-27.3125	0.5247371	-0.6992788	-0.29460788
1276873089379	-0.6537767	12.871228	-5.6660647	4.2717104	0.0	-33.375	-28.375	-28.0625	0.762338	-0.4142093	0.05075004
1276873089409	-0.7627395	8.962189	-4.5900574	0.29142952	0.0	-31.6875	-30.1875	-27.5625	0.7451006	-0.4718642	0.084901795
1276873089449	-0.040861044	8.430995	0.27240697	-1.3711567	0.0	-30.4375	-32.4375	-25.25	0.9016885	0.032298565	0.004846489
1276873089479	3.445948	8.008764	6.0882955	0.8273611	0.0	-30.1875	-35.25	-22.4375	2.0387623	0.6095889	-0.4063277
1276873089509	3.486809	8.240311	1.9885708	-0.6406822	0.0	-30.1875	-37.0625	-19.375	0.98016596	0.21869053	-0.40029457
1276873089549	2.4516625	7.3958488	0.10896278	-2.0142756	0.0	-29.6875	-38.5625	-17.375	0.7644984	0.013983713	-0.32009217
1276873089579	2.5333846	6.891896	-1.6889231	-2.2721477	0.0	-28.5	-39.875	-15.5625	0.46713117	-0.22607952	-0.35225752
1276873089609	3.718355	9.956474	-1.1441092	0.88290215	0.0	-27.0	-40.375	-13.75	0.5376635	-0.10723602	-0.35742074
1276873089649	1.7978859	13.293459	4.630918	4.38468	0.0	-26.75	-40.625	-12.0	1.7105916	0.33240807	-0.13443023
1276873089679	-0.10896278	12.871228	10.378705	6.728098	0.0	-27.25	-40.625	-9.6875	2.1440432	0.67858297	0.0084654065
1276873089709	-0.5720546	13.102775	8.049625	5.5818663	0.0	-28.0	-39.875	-8.9375	1.9713712	0.5504761	0.043631338
1276873089749	1.9885708	13.293459	4.0180025	4.2224197	0.0	-28.75	-39.625	-9.1875	1.7306647	0.29047304	-0.14848912
1276873089779	5.9793324	15.431854	-4.140586	7.253214	0.0	-28.5	-38.0625	-12.0	0.5131818	-0.24515758	-0.36965552
1276873089811	3.5276701	15.28203	-7.164303	7.4360905	0.0	-28.5	-36.0625	-16.0625	0.552652	-0.42848885	-0.22686395
1276873089859	6.1291566	12.789507	3.405087	4.7787075	0.0	-28.5	-34.5	-19.875	0.8655285	0.23563376	-0.4468966
1276873089889	8.281172	9.697687	3.445948	3.4031	0.0	-27.75	-31.6875	-24.5	0.04146806	0.26391706	-0.70677274
1276873089919	6.932757	7.4639506	-5.175732	1.6197176	0.0	-27.25	-28.875	-28.3125	0.007288296	-0.47008705	-0.748518
1276873089959	-0.14982383	6.851035	-1.9885708	-2.6712775	0.0	-27.25	-25.5625	-30.625	0.65270025	-0.2824318	0.0218653
1276873089999	-1.334794	5.134871	-2.4108016	-3.979083	0.0	-28.75	-22.0	-32.625	0.75407183	-0.4265026	0.25431836
1276873090029	2.9147544	0.7218784	-2.5333846	-5.8779173	0.0	-30.4375	-18.9375	-33.1875	-0.22954978	-0.7008075	-1.328018
1276873090059	2.9556155	-0.84446156	-1.4165162	-6.422083	0.0	-32.875	-17.125	-31.875	-0.5651275	-0.4318174	-1.849096
1276873090099	3.718355	1.1168685	1.4573772	-5.6596622	0.0	-34.625	-17.125	-30.875	-0.39334717	0.3590984	-1.2790035
1276873090139	8.19945	8.240311	11.727119	6.70574	0.0	-35.3125	-18.4375	-29.0625	2.0670233	0.78978395	-0.7829127
1276873090169	9.724928	11.645397	10.991621	8.928484	0.0	-36.5625	-20.75	-27.3125	1.6367673	0.62695915	-0.6957727
1276873090199	7.4639506	6.5513873	7.273266	2.503168	0.0	-36.8125	-22.75	-26.0	2.1036148	0.632113	-0.85041815
1276873090239	8.853226	7.014479	3.255263	1.9483175	0.0	-37.5	-24.3125	-25.0	0.3470082	0.2805941	-0.9007634
1276873090279	9.888372	10.841797	-2.5606253	5.0890293	0.0	-37.3125	-24.8125	-25.0	0.32587212	-0.172762	-0.7394385
1276873090310	6.0474343	5.938472	-4.0180025	-0.4268179	0.0	-35.8125	-24.8125	-25.75	0.1755163	-0.44268382	-0.79448885
1276873090349	3.759216	8.539958	-3.9771416	0.33633995	0.0	-35.0625	-25.8125	-26.0	0.5106471	-0.40292132	-0.41466722
1276873090389	-1.879608	13.906375	-6.3198414	5.583626	0.0	-32.875	-27.125	-26.0	0.83272785	-0.42315435	0.13434744
1276873090419	-1.6889231	9.615966	-4.7535014	1.0522194	0.0	-30.9375	-29.625	-24.75	0.82803816	-0.45309782	0.17386405
1276873090459	-0.53119355	7.9679036	5.053149	-0.35657215	0.0	-30.1875	-32.4375	-21.6875	1.5060221	0.5641768	0.06656816
1276873090489	3.759216	7.246025	4.440233	-0.51405907	0.0	-29.0	-34.75	-18.625	2.025322	0.4981772	-0.47857186
1276873090519	4.7535014	7.9679036	2.152015	-0.282238	0.0	-28.75	-36.8125	-15.5625	0.8934433	0.22791535	-0.5379019
1276873090559	3.759216	7.8861814	1.1849703	-0.9903183	0.0	-29.0	-37.5625	-12.75	1.0021763	0.13481428	-0.4448214
1276873090589	2.1111538	7.205164	0.10896278	-2.2977734	0.0	-29.0	-38.8125	-10.6875	1.0357119	0.014511706	-0.28502768
1276873090619	2.070293	9.112013	-0.29964766	-0.45760345	0.0	-28.75	-39.0625	-9.6875	1.0503759	-0.032056637	-0.22341199
1276873090659	2.4925237	12.9529505	1.4573772	3.4642038	0.0	-28.75	-39.375	-8.6875	1.3903902	0.11003983	-0.19010529
1276873090689	1.3756552	12.9529505	7.205164	5.0791063	0.0	-28.75	-39.625	-7.625	2.0876062	0.50525516	-0.10580738
1276873090719	0.3405087	13.102775	7.273266	5.1833153	0.0	-28.75	-38.5625	-7.9375	1.9829292	0.5066021	-0.02598168
1276873090759	3.1054392	14.2877445	3.0237172	5.1240654	0.0	-28.75	-38.3125	-8.1875	1.6108946	0.20392704	-0.2140211
1276873090789	5.47538	12.639683	-1.607201	4.0614595	0.0	-28.25	-37.3125	-10.4375	0.6169307	-0.11615286	-0.40878686
1276873090819	4.630918	13.0619135	-6.5922484	5.5399036	0.0	-28.25	-36.3125	-13.75	0.43516237	-0.4440042	-0.34071004
1276873090859	6.66035	11.563675	0.88532263	3.5673037	0.0	-28.0	-35.25	-16.8125	0.4494052	0.066245966	-0.52256423
1276873090889	7.668256	8.771504	3.7864566	2.4440107	0.0	-28.0	-33.25	-20.9375	-0.12346201	0.31422743	-0.7183901
1276873090919	6.5922484	7.082581	-0.14982383	-0.12971115	0.0	-27.75	-31.1875	-24.25	-0.03757285	-0.015483183	-0.7495569
1276873090959	1.6889231	5.6660647	-5.202973	-1.9308848	0.0	-27.75	-28.625	-27.0625	0.39904943	-0.72165865	-0.28969157
1276873090989	-1.9477097	5.5162406	-0.040861044	-3.9565086	0.0	-28.75	-25.5625	-29.5625	0.8763982	-0.006984682	0.33942178
1276873091019	-0.46309182	3.336985	-2.7240696	-5.4741592	0.0	-29.9375	-23.5625	-30.625	0.7416875	-0.6799494	0.1378948
1276873091049	2.7921712	1.2666923	-2.4516625	-5.8809175	0.0	-32.125	-21.75	-30.625	-0.13587525	-0.67450505	-1.1449041
1276873091085	3.173541	2.1792557	-0.7218784	-5.8898115	0.0	-33.875	-20.75	-30.125	0.056024425	-0.18536091	-0.9690556
1276873091119	6.2789803	5.407278	6.0474343	0.45179558	0.0	-34.8125	-21.75	-28.3125	1.7372568	0.6304495	-0.8598523
1276873091159	10.95076	13.865514	16.548723	14.401445	0.0	-35.0625	-23.25	-26.25	2.1282394	0.7526877	-0.6684805
1276873091189	6.469665	7.668256	8.308413	3.219801	0.0	-35.3125	-24.5625	-24.5	2.1707475	0.6916526	-0.700822
1276873091219	6.8237944	5.47538	2.8738933	-0.59778404	0.0	-35.0625	-26.0625	-22.6875	0.20099878	0.3173805	-0.8945966
1276873091259	11.372991	10.923519	-2.070293	6.097887	0.0	-34.625	-26.625	-22.6875	0.1683211	-0.1305404	-0.8055543
1276873091289	6.1700177	7.273266	-3.9771416	0.52713776	0.0	-33.875	-26.875	-23.75	0.21738392	-0.3950645	-0.7035148
1276873091319	4.7535014	5.6660647	-5.597963	-0.531023	0.0	-32.375	-28.125	-25.5	0.14552313	-0.64789987	-0.6980394
1276873091359	2.8738933	11.985906	-4.4810944	3.30828	0.0	-30.6875	-29.625	-26.0	0.55824965	-0.3487027	-0.23533008
1276873091389	-1.334794	11.495573	-6.782933	3.6074486	0.0	-29.1875	-31.6875	-25.25	0.73663026	-0.5301433	0.1155961
1276873091419	-2.3018389	9.80665	-1.920469	0.44796085	0.0	-28.75	-33.5	-22.4375	0.92398816	-0.18839099	0.23054872
1276873091459	0.84446156	7.9270425	7.1234417	0.8842125	0.0	-28.75	-35.5	-18.375	2.0160596	0.72925085	-0.10612895
1276873091489	4.399372	7.014479	2.6423476	-1.1153097	0.0	-28.5	-37.3125	-14.8125	1.5945117	0.30891034	-0.5601686
1276873091519	4.440233	7.164303	1.4165162	-1.2597542	0.0	-28.25	-39.0625	-12.0	0.72646606	0.16650283	-0.5548309
1276873091559	2.9147544	7.014479	-0.0	-2.2106833	0.0	-27.5	-40.625	-10.6875	0.74241257	-0.0	-0.3938256
1276873091599	2.4516625	8.62168	-0.08172209	-0.8427954	0.0	-26.75	-41.125	-9.4375	0.9728185	-0.009116973	-0.2770473
1276873091639	1.2666923	11.876944	3.7864566	2.7234554	0.0	-27.0	-41.625	-8.4375	1.8040595	0.30698788	-0.106249735
1276873091679	0.5720546	12.53072	3.0237172	3.0964136	0.0	-27.5	-41.875	-6.875	1.7035372	0.23654068	-0.0456205
1276873091709	1.6889231	15.785983	4.2086873	6.6178074	0.0	-28.5	-41.875	-6.375	1.7885344	0.25913563	-0.10658334
1276873091749	4.399372	15.322891	3.6774938	6.553955	0.0	-29.1875	-42.125	-6.625	1.8356544	0.22671455	-0.27959058
1276873091789	4.9850473	9.575105	-2.3699405	1.2454958	0.0	-29.0	-41.625	-9.1875	0.3177924	-0.21611089	-0.48001185
1276873091819	5.8567495	12.408136	-4.0180025	4.490473	0.0	-29.1875	-40.125	-14.3125	0.32577214	-0.2848732	-0.44100493
1276873091859	7.3549876	11.304889	2.1792557	3.855177	0.0	-28.75	-38.0625	-18.625	0.30015156	0.16019855	-0.5767986
1276873091899	5.243834	8.689782	0.8036005	0.37450314	0.0	-27.75	-35.75	-24.0	0.25392124	0.07901239	-0.54295117
1276873091931	2.1111538	6.932757	-3.718355	-1.6613293	0.0	-28.25	-33.25	-27.8125	0.38310108	-0.4740596	-0.2955972
1276873091969	0.7218784	5.284695	-0.6537767	-4.432961	0.0	-28.5	-30.1875	-30.125	0.6175133	-0.1219647	-0.13575773
1276873091999	1.6480621	2.6832085	-2.5333846	-5.7651463	0.0	-29.6875	-26.875	-32.375	0.22390498	-0.6774935	-0.5508049
1276873092029	2.5606253	0.7218784	-1.920469	-6.5254745	0.0	-31.4375	-24.5625	-33.1875	-0.30191448	-0.6252489	-1.2960129
1276873092059	2.6423476	1.1441092	-0.6537767	-6.8539543	0.0	-32.625	-23.0	-33.6875	-0.19374113	-0.2232672	-1.1621778
1276873092089	4.2086873	3.2961242	3.173541	-3.5898304	0.0	-33.125	-23.5625	-32.375	0.25768578	0.535739	-0.9064012
1276873092119	7.7363577	8.430995	12.912089	7.4460297	0.0	-33.125	-25.8125	-30.375	2.5715446	0.8456625	-0.7424591
1276873092159	7.205164	14.137921	13.293459	10.893862	0.0	-33.125	-27.875	-28.8125	1.7767596	0.69733906	-0.47132498
1276873092189	5.2165933	6.4424243	5.706926	0.2574787	0.0	-33.125	-29.625	-27.3125	1.8941233	0.6029274	-0.68064284
1276873092219	11.34575	9.997335	-0.29964766	5.318248	0.0	-33.375	-30.6875	-27.0625	-0.034314327	-0.019812845	-0.8484924
1276873092259	10.732834	10.460427	-2.9147544	5.4612913	0.0	-33.125	-30.4375	-27.5625	0.037091225	-0.19208589	-0.79825085
1276873092289	5.597963	5.2165933	-3.9771416	-1.1829796	0.0	-32.375	-29.9375	-28.0625	0.0037504842	-0.4793347	-0.820648
1276873092319	2.0294318	10.800936	-5.8567495	2.6464748	0.0	-31.4375	-30.1875	-28.0625	0.5484191	-0.48963475	-0.18572862
1276873092359	-1.607201	14.015338	-6.851035	5.8761272	0.0	-29.9375	-31.1875	-27.5625	0.7349196	-0.45209485	0.11417571
1276873092389	-1.56634	10.310603	-3.8273177	1.3023701	0.0	-29.0	-33.75	-25.75	0.77908593	-0.3517311	0.15076272
1276873092419	-0.0	8.730643	5.6660647	0.6014433	0.0	-28.5	-35.75	-22.9375	1.578559	0.5756621	0.0
1276873092449	4.671779	6.4015636	5.7886477	0.0073184967	0.0	-27.75	-38.0625	-20.4375	-3.1396215	0.6308577	-0.6304389
1276873092479	5.012288	6.0882955	1.4573772	-1.7870293	0.0	-27.25	-39.625	-17.875	-0.43733752	0.18274185	-0.68876755
1276873092509	3.990762	6.932757	0.6537767	-1.7806473	0.0	-26.75	-40.375	-15.5625	0.25693214	0.08154768	-0.522314
1276873092549	2.6832085	7.7363577	-0.3405087	-1.6111155	0.0	-26.3125	-41.875	-14.0	0.60841906	-0.04156004	-0.33384886
1276873092579	1.6889231	9.302697	2.1111538	-0.11904907	0.0	-26.3125	-42.4375	-12.25	1.4710706	0.2196861	-0.17959581
1276873092609	0.313268	10.501288	5.053149	1.8513737	0.0	-26.5	-42.4375	-10.4375	1.9248376	0.4483156	-0.029822543
1276873092649	0.7627395	10.800936	2.6832085	1.3486891	0.0	-27.0	-42.125	-9.1875	1.6394088	0.24291322	-0.07050087
1276873092679	2.070293	11.563675	3.173541	2.3620005	0.0	-27.5	-41.625	-8.1875	1.7729973	0.26384714	-0.17715725
1276873092709	3.445948	14.750836	7.8861814	7.2712193	0.0	-27.75	-41.625	-8.9375	2.2336998	0.47999847	-0.22949462
1276873092749	5.597963	14.206022	-0.23154591	5.4642982	0.0	-28.0	-41.625	-11.0	0.74318665	-0.015163091	-0.37537143
1276873092779	2.6423476	12.176591	-5.597963	3.8530912	0.0	-28.0	-40.875	-14.0	0.53459	-0.4222509	-0.21368916
1276873092809	3.3778462	11.454713	-1.920469	2.289155	0.0	-28.25	-39.875	-18.125	0.55988973	-0.15944622	-0.2867594
1276873092849	6.782933	11.114203	3.8273177	3.764719	0.0	-27.75	-38.0625	-21.9375	0.4590263	0.2858928	-0.5479544
1276873092879	6.973618	9.956474	1.56634	2.4496193	0.0	-26.75	-36.0625	-26.0	0.060850862	0.12814954	-0.6110013
1276873092909	5.7886477	6.1700177	-5.5162406	0.29317474	0.0	-25.8125	-34.5	-29.875	-0.0984244	-0.57778746	-0.7535183
1276873092939	1.8387469	5.407278	-1.56634	-3.8843985	0.0	-25.8125	-32.1875	-32.625	0.3253829	-0.2676687	-0.32778364
1276873092969	0.27240697	4.862464	-0.29964766	-4.927352	0.0	-26.3125	-29.625	-34.6875	0.592945	-0.06145071	-0.055963915
1276873092999	1.0351465	2.982856	-2.1383946	-5.9932933	0.0	-27.5	-27.375	-35.6875	0.33336565	-0.5953087	-0.33402827
1276873093029	2.7240696	1.1849703	-1.9885708	-6.23186	0.0	-29.1875	-25.8125	-35.6875	-0.23482767	-0.58989793	-1.1604862
1276873093059	3.7864566	1.8387469	-0.53119355	-5.563961	0.0	-29.9375	-25.8125	-34.6875	-0.2531834	-0.12553152	-1.1187257
1276873093089	5.6252036	4.671779	1.56634	-2.328558	0.0	-30.9375	-26.875	-32.9375	-0.038441524	0.21101977	-0.8777275
1276873093119	8.499097	11.264028	11.75436	8.558479	0.0	-31.875	-29.375	-30.375	2.0428536	0.6945463	-0.6463969
1276873093159	4.2086873	14.137921	11.073342	8.6382065	0.0	-32.375	-31.1875	-27.5625	1.636121	0.6439369	-0.2893342
1276873093189	3.759216	4.671779	3.990762	-2.6036363	0.0	-32.625	-31.9375	-26.25	2.1148956	0.5872101	-0.67757887
1276873093219	9.956474	8.62168	-1.334794	3.4314175	0.0	-32.875	-31.6875	-26.25	-0.07908497	-0.10100161	-0.8571224
1276873093259	11.372991	11.795221	-3.2961242	6.9067154	0.0	-32.375	-30.9375	-26.5	0.052591383	-0.19851618	-0.7671756
1276873093289	5.2165933	6.469665	-2.070293	-1.2418661	0.0	-31.875	-30.4375	-27.8125	0.15085767	-0.24413963	-0.67858016
1276873093319	0.88532263	10.800936	-6.0474343	2.6036472	0.0	-30.9375	-30.6875	-27.8125	0.6112489	-0.5089855	-0.08178438
1276873093359	-0.6537767	12.067628	-7.5456724	4.4408846	0.0	-29.9375	-32.1875	-27.3125	0.677363	-0.55814373	0.054123167
1276873093389	0.040861044	10.419566	-2.3699405	0.87911797	0.0	-29.6875	-33.75	-25.75	0.7361448	-0.22364444	-0.0039215484
1276873093419	1.7297841	8.730643	7.3958488	1.7655087	0.0	-29.4375	-36.3125	-22.9375	1.9533684	0.6933368	-0.19559483
1276873093459	4.630918	6.891896	3.6774938	-0.72548294	0.0	-29.6875	-38.3125	-20.125	1.917278	0.4169332	-0.5916422
1276873093489	3.990762	6.701211	0.50395286	-1.9908729	0.0	-29.6875	-39.875	-17.0625	0.35336185	0.06452368	-0.5371252
1276873093519	2.9147544	5.938472	-0.27240697	-3.1858158	0.0	-29.6875	-40.875	-15.0625	0.4679204	-0.041155517	-0.45628124
1276873093559	2.6832085	7.246025	-1.2258313	-1.9831505	0.0	-29.4375	-40.875	-13.5	0.5696276	-0.15733409	-0.35464442
1276873093589	3.336985	10.269742	1.7297841	1.1293097	0.0	-29.6875	-41.375	-11.25	1.3521167	0.15884106	-0.3141719
1276873093619	2.7649305	11.073342	8.430995	4.3829737	0.0	-29.6875	-41.625	-8.6875	2.4201472	0.63622856	-0.24468923
1276873093659	2.6832085	11.34575	4.7943625	2.7993631	0.0	-29.9375	-41.625	-6.875	2.1087923	0.390146	-0.23222786
1276873093689	2.7649305	12.14935	5.6660647	3.8811483	0.0	-30.6875	-41.875	-6.875	2.148974	0.4267891	-0.22376733
1276873093719	4.903325	14.056199	3.2961242	5.4407682	0.0	-30.6875	-41.125	-8.9375	1.6903177	0.21789604	-0.33563852
1276873093759	4.0588636	13.33432	-3.718355	4.6191816	0.0	-31.4375	-39.625	-12.5	0.65347314	-0.26069975	-0.2954815
1276873093789	1.5390993	13.443283	-4.5628166	4.473055	0.0	-31.1875	-38.3125	-17.0625	0.7348647	-0.32523513	-0.11399203
1276873093819	3.7864566	11.604536	1.6480621	2.5107613	0.0	-29.9375	-36.5625	-21.1875	0.8478649	0.13420185	-0.31539917
1276873093849	6.0474343	10.691973	4.099725	3.143156	0.0	-28.5	-34.75	-25.5	0.6479594	0.32212797	-0.5147451
1276873093879	5.829509	8.390134	-2.3018389	0.6659794	0.0	-26.3125	-34.25	-28.8125	0.05489918	-0.22160503	-0.607231
1276873093909	2.8738933	6.1291566	-3.759216	-2.0634255	0.0	-25.5625	-33.25	-31.125	0.18941458	-0.50691736	-0.4384504
1276873093939	0.38136974	5.8976107	-0.38136974	-3.8844295	0.0	-26.5	-31.6875	-32.625	0.6127992	-0.064441	-0.06457522
1276873093969	1.334794	4.399372	-1.8387469	-4.8551717	0.0	-27.75	-30.1875	-33.1875	0.38005525	-0.3804659	-0.29457825
1276873093999	3.0237172	2.9147544	-2.4108016	-4.964066	0.0	-29.4375	-28.375	-33.6875	2.4553026E-5	-0.5210992	-0.80374473
1276873094029	4.0180025	1.879608	-1.879608	-4.988954	0.0	-30.9375	-27.375	-32.9375	-0.2499171	-0.40079084	-1.1332417
1276873094059	4.7535014	2.8738933	-0.50395286	-4.2291055	0.0	-31.1875	-27.125	-32.125	-0.19583413	-0.09047727	-1.0270127
1276873094089	7.1234417	5.706926	1.7978859	-0.5037031	0.0	-31.4375	-28.375	-29.875	-0.11717899	0.19448352	-0.8953562
1276873094119	9.507003	11.454713	11.727119	9.143782	0.0	-32.125	-30.4375	-26.8125	2.430336	0.66725403	-0.6927467
1276873094159	4.2904096	14.9006605	12.176591	9.908995	0.0	-32.125	-32.1875	-24.5	1.8086048	0.665701	-0.2803508
1276873094189	4.0180025	5.012288	3.3778462	-2.5487423	0.0	-32.625	-33.75	-22.1875	2.023612	0.484089	-0.6757343
1276873094219	9.084772	8.240311	-1.0760075	2.5056849	0.0	-33.375	-33.5	-22.1875	-0.090883695	-0.08750427	-0.83410174
1276873094259	10.378705	10.923519	-4.372132	5.88272	0.0	-33.375	-33.0	-23.1875	0.041429922	-0.2824073	-0.75982827
1276873094289	5.243834	7.43671	-4.5219555	0.3545761	0.0	-33.125	-32.1875	-24.75	0.1985257	-0.46119732	-0.6141594
1276873094319	1.8387469	11.372991	-5.597963	3.0020618	0.0	-32.375	-31.9375	-25.5	0.60348135	-0.4523089	-0.16028962
1276873094349	-0.5720546	11.795221	-7.504812	4.1853724	0.0	-31.6875	-33.75	-25.25	0.71200347	-0.56612265	0.048460875
1276873094379	-0.040861044	9.615966	-6.0201936	1.5384455	0.0	-30.6875	-35.0	-23.5	0.67630446	-0.5593588	0.004249266
1276873094409	0.92618364	9.00305	2.7240696	-0.35502148	0.0	-30.6875	-36.8125	-20.6875	1.2683125	0.29235873	-0.102513805
1276873094439	2.6423476	7.43671	7.273266	0.9258728	0.0	-30.4375	-38.8125	-17.625	2.4444072	0.74460936	-0.3413987
1276873094479	3.8273177	7.7363577	1.7978859	-0.99007607	0.0	-29.9375	-39.625	-14.8125	1.1140572	0.20536157	-0.45941335
1276873094509	3.336985	7.1234417	0.61291564	-1.9164944	0.0	-29.9375	-40.375	-13.0	0.82976633	0.077759385	-0.4380916
1276873094539	2.6423476	7.164303	-0.29964766	-2.1647243	0.0	-29.1875	-41.375	-11.75	0.7632503	-0.039221067	-0.35334277
1276873094579	2.7921712	9.152874	1.2258313	-0.15916443	0.0	-29.4375	-42.4375	-10.6875	1.3015988	0.12740667	-0.29609206
1276873094609	2.7649305	11.114203	4.903325	2.6517992	0.0	-29.6875	-42.6875	-8.4375	2.1217043	0.40451643	-0.24382494
1276873094639	1.607201	11.454713	4.5219555	2.6127558	0.0	-30.4375	-43.1875	-6.625	1.9963406	0.3726706	-0.13939913
1276873094680	1.1168685	12.299174	2.6832085	2.831256	0.0	-31.1875	-43.1875	-5.125	1.7429868	0.21394266	-0.090560034
1276873094719	3.3778462	13.102775	5.6252036	4.847205	0.0	-31.1875	-41.875	-5.375	2.1736097	0.39398584	-0.25230277
1276873094759	6.510526	12.299174	-2.1792557	4.279009	0.0	-31.4375	-41.125	-8.1875	0.49083218	-0.15533847	-0.48684835
1276873094789	3.990762	12.830367	-6.782933	5.245017	0.0	-31.4375	-39.625	-12.25	0.51570547	-0.46748587	-0.30155453
1276873094829	6.4015636	9.765789	0.95342433	1.9091368	0.0	-30.6875	-37.5625	-17.0625	0.36992934	0.08146955	-0.58023834
1276873094859	6.4015636	9.915613	2.5606253	2.2704449	0.0	-29.9375	-36.0625	-21.9375	0.45009336	0.21364486	-0.57327896
1276873094889	4.944186	7.7772183	-3.1463003	-0.06861591	0.0	-30.1875	-34.5	-26.0	0.17568003	-0.328997	-0.5662758
1276873094919	2.0294318	5.366417	-0.6946377	-4.027416	0.0	-30.1875	-32.6875	-28.0625	0.47008276	-0.12048677	-0.3615492
1276873094949	0.84446156	4.372132	-2.1383946	-4.866874	0.0	-31.1875	-30.4375	-29.875	0.52982473	-0.4476996	-0.19079697
1276873094979	1.3756552	3.255263	-2.7240696	-5.3446193	0.0	-32.375	-28.375	-30.625	0.37353742	-0.6566916	-0.39983112
1276873095009	2.8330324	2.1111538	-1.9477097	-5.772221	0.0	-32.875	-26.625	-30.875	-0.0359284	-0.5038173	-0.9303793
1276873095039	3.718355	2.2201166	-1.1441092	-5.327357	0.0	-33.375	-26.625	-30.625	-0.14134419	-0.25828397	-1.0325344
1276873095079	4.8216033	4.5628166	0.7218784	-3.1292062	0.0	-33.625	-28.125	-29.3125	0.10951196	0.108318694	-0.81296736
1276873095119	9.084772	12.176591	14.056199	10.890673	0.0	-33.625	-29.9375	-27.0625	2.4104269	0.74657845	-0.6409908
1276873095159	4.7943625	11.836082	9.847511	6.3194847	0.0	-33.375	-31.9375	-25.0	1.8741885	0.656888	-0.38486364
1276873095189	7.7363577	5.5571017	2.4925237	0.039429665	0.0	-33.625	-32.4375	-24.0	-0.528837	0.25593373	-0.9478873
1276873095219	13.143636	11.836082	-1.7297841	7.9652424	0.0	-34.125	-32.1875	-24.0	-0.038045242	-0.09748692	-0.83769506
1276873095259	7.5456724	8.812365	-4.2086873	2.5346622	0.0	-34.375	-32.1875	-24.75	0.13118511	-0.3480063	-0.70811695
1276873095289	2.5333846	6.5513873	-5.8976107	-0.63492584	0.0	-34.625	-31.6875	-24.75	0.42593712	-0.6984363	-0.36898363
1276873095319	-0.27240697	12.367276	-6.4015636	4.121873	0.0	-33.875	-32.6875	-25.0	0.7533206	-0.47754595	0.022022871
1276873095349	-1.3075534	11.114203	-6.6331096	3.202322	0.0	-32.375	-34.25	-24.5	0.7807716	-0.53505373	0.117108755
1276873095379	-0.7627395	9.956474	-3.636633	0.820591	0.0	-31.4375	-35.75	-22.6875	0.80609924	-0.34925634	0.07645805
1276873095409	1.9477097	8.730643	6.2789803	1.1223612	0.0	-30.1875	-37.8125	-20.6875	1.9330945	0.6120225	-0.21949469
1276873095439	4.6036777	7.164303	4.6036777	-0.12600231	0.0	-29.4375	-39.375	-18.375	2.6890762	0.49559453	-0.57114536
1276873095479	3.3778462	7.273266	0.53119355	-1.7697096	0.0	-29.0	-40.625	-15.0625	0.6622356	0.06614222	-0.43478024
1276873095509	2.7649305	7.164303	-0.9125633	-2.0732908	0.0	-28.5	-41.375	-13.0	0.55935854	-0.11827908	-0.3683199
1276873095539	2.3426998	7.504812	-1.9477097	-1.7070198	0.0	-28.25	-42.4375	-11.75	0.5536011	-0.24284896	-0.3025748
1276873095579	3.445948	9.507003	1.1849703	0.374794	0.0	-27.75	-42.6875	-9.1875	1.2880331	0.11664965	-0.34773532
1276873095609	2.9147544	10.800936	6.0474343	2.9105616	0.0	-28.75	-42.6875	-7.125	2.3638628	0.4955681	-0.26358256
1276873095639	2.152015	11.304889	5.8567495	3.1058702	0.0	-29.4375	-42.9375	-5.625	2.242741	0.47076857	-0.18811077
1276873095679	1.4982382	11.985906	5.6660647	3.5354242	0.0	-29.9375	-42.6875	-4.875	2.126283	0.43860447	-0.124354996
1276873095709	3.8681788	14.015338	4.7126403	5.477378	0.0	-30.6875	-42.4375	-6.625	2.0204895	0.313445	-0.26929206
1276873095739	5.5571017	14.410328	-4.5628166	6.2979527	0.0	-30.4375	-41.875	-9.9375	0.5123678	-0.28725812	-0.36806023
1276873095779	3.2961242	12.830367	-4.7126403	4.253639	0.0	-30.4375	-40.875	-13.5	0.59504974	-0.34178963	-0.25146237
1276873095809	5.407278	10.95076	1.9477097	2.5607014	0.0	-30.1875	-39.625	-18.125	0.7511975	0.15814641	-0.4586601
1276873095839	7.3958488	9.80665	3.173541	2.8795757	0.0	-30.1875	-37.5625	-21.9375	0.16011733	0.25284183	-0.64616245
1276873095879	6.1291566	8.19945	-3.445948	0.9948349	0.0	-29.4375	-36.0625	-26.0	0.05028192	-0.32470098	-0.64190453
1276873095909	1.4982382	6.0201936	-1.6480621	-3.3876505	0.0	-29.0	-34.0	-29.5625	0.47410056	-0.25965536	-0.2439137
1276873095939	0.46309182	4.6036777	-1.56634	-4.9218035	0.0	-29.4375	-31.6875	-30.875	0.5750444	-0.32641864	-0.10025447
1276873095979	1.3075534	2.9556155	-3.0237172	-5.3807917	0.0	-29.4375	-30.6875	-32.125	0.27830148	-0.7521268	-0.41651273
1276873096009	3.0237172	1.9885708	-2.6423476	-5.3256593	0.0	-29.9375	-29.625	-32.125	-0.16359267	-0.6306617	-0.9890567
1276873096039	4.0180025	2.7921712	-1.2258313	-4.762522	0.0	-30.4375	-29.625	-31.125	-0.17066813	-0.24547946	-0.9634911
1276873096069	6.0474343	5.366417	1.3756552	-1.6052895	0.0	-30.6875	-30.6875	-29.875	-0.11598833	0.16853166	-0.8449934
1276873096099	9.466142	12.680544	13.102775	10.7381	0.0	-31.4375	-32.4375	-27.0625	2.4987392	0.69159627	-0.6412632
1276873096129	6.5922484	15.6634	13.33432	11.794367	0.0	-31.875	-33.5	-24.75	1.9859473	0.66530687	-0.39836696
1276873096159	4.1814466	4.440233	5.5162406	-1.5829601	0.0	-32.125	-34.75	-23.5	-3.111101	0.73525244	-0.7553914
1276873096189	9.384419	6.5922484	-2.0294318	1.8399658	0.0	-31.875	-35.0	-23.75	-0.31712025	-0.17514484	-0.95841634
1276873096219	10.841797	10.528529	-5.5162406	6.2813396	0.0	-31.4375	-33.75	-25.75	-0.05772487	-0.3499804	-0.8000561
1276873096249	7.7363577	8.853226	-3.486809	2.4566555	0.0	-31.1875	-33.5	-27.3125	0.036750525	-0.2883061	-0.7181762
1276873096289	0.95342433	12.026767	-6.469665	3.8830795	0.0	-31.1875	-32.6875	-28.3125	0.601711	-0.4922303	-0.07910975
1276873096319	-0.7218784	12.762266	-7.5456724	5.036992	0.0	-30.6875	-33.5	-28.0625	0.6792706	-0.53326035	0.05650329
1276873096349	1.1849703	9.80665	-4.099725	0.8883152	0.0	-30.1875	-35.25	-26.0	0.58555406	-0.39340144	-0.12025035
1276873096379	2.8738933	8.240311	5.6660647	0.59845734	0.0	-29.4375	-37.5625	-23.1875	1.8926872	0.5758483	-0.33556998
1276873096409	4.9850473	6.2789803	5.175732	-0.26387882	0.0	-28.5	-39.625	-20.125	-2.9031537	0.57325786	-0.67102647
1276873096439	3.990762	7.082581	1.0351465	-1.6114893	0.0	-28.75	-40.625	-17.625	0.42662624	0.12665023	-0.5131196
1276873096479	2.7240696	6.510526	-0.08172209	-2.7487335	0.0	-28.75	-41.375	-15.3125	0.58642876	-0.011579042	-0.39627567
1276873096509	2.2201166	6.782933	-1.0760075	-2.5889711	0.0	-29.0	-41.875	-13.75	0.6082531	-0.14963724	-0.3163191
1276873096539	2.6423476	8.921328	1.1168685	-0.43544483	0.0	-29.0	-42.9375	-12.25	1.1886554	0.119464844	-0.2879515
1276873096579	1.56634	10.760075	7.6954966	3.5145092	0.0	-29.0	-43.4375	-9.6875	2.282061	0.6158955	-0.14455427
1276873096609	1.7297841	11.182305	4.671779	2.4351482	0.0	-29.4375	-43.6875	-8.6875	1.9965343	0.39155397	-0.15347296
1276873096639	2.152015	11.032481	3.214402	1.8843374	0.0	-29.6875	-43.1875	-8.4375	1.8106978	0.27853456	-0.19264276
1276873096679	4.7126403	12.762266	3.9090397	4.348385	0.0	-30.1875	-41.875	-9.4375	1.8965267	0.27979535	-0.35373202
1276873096709	7.082581	14.982383	-2.4516625	6.9458237	0.0	-30.6875	-40.875	-13.0	0.47078833	-0.14687379	-0.44159237
1276873096739	2.1111538	11.876944	-6.0882955	3.7057915	0.0	-30.6875	-39.375	-16.5625	0.5921328	-0.46740326	-0.17591491
1276873096779	4.2904096	11.413852	-0.8036005	2.4133902	0.0	-30.4375	-38.0625	-20.125	0.5783453	-0.065808356	-0.3595551
1276873096809	6.891896	10.923519	4.4810944	3.8645496	0.0	-30.1875	-37.0625	-23.5	0.7134872	0.3339488	-0.56284696
1276873096839	5.7477865	8.349273	-0.7627395	0.35844612	0.0	-28.5	-35.75	-26.5	0.10691588	-0.075105734	-0.6029102
1276873096869	3.6774938	6.4424243	-3.9090397	-1.4215813	0.0	-27.25	-35.0	-29.3125	0.13526124	-0.48497984	-0.51869065
1276873096933	0.6537767	5.7886477	-0.84446156	-3.9203115	0.0	-27.25	-33.75	-31.375	0.5704439	-0.14395797	-0.11246461
1276873096973	2.3426998	2.3699405	-2.8330324	-5.432758	0.0	-27.25	-32.1875	-32.625	-0.06227765	-0.7045805	-0.77961785
1276873097009	4.2904096	2.3018389	-1.7978859	-4.616422	0.0	-29.0	-31.4375	-32.125	-0.30699852	-0.35372892	-1.0783707
1276873097039	5.7886477	4.5628166	0.10896278	-2.4351096	0.0	-30.4375	-31.1875	-30.375	-0.18782139	0.014782086	-0.90327024
1276873097069	7.8589406	7.246025	5.597963	2.2600403	0.0	-31.1875	-31.6875	-27.8125	-0.49053067	0.48241356	-0.825953
1276873097109	8.430995	15.935807	15.704261	14.102667	0.0	-31.875	-33.25	-25.75	2.2248178	0.7166016	-0.48662427
1276873097139	4.2904096	6.742072	5.7477865	0.037139893	0.0	-31.6875	-33.75	-24.25	2.2442052	0.6235241	-0.5667292
1276873097179	6.0474343	2.4925237	-0.61291564	-3.2370386	0.0	-31.4375	-34.25	-24.0	-0.6157454	-0.09343144	-1.1798495
1276873097209	11.727119	10.079058	-5.5162406	6.6110744	0.0	-31.1875	-34.0	-25.5	-0.13758786	-0.34265935	-0.8608325
1276873097239	9.956474	12.912089	-4.7943625	7.1886234	0.0	-31.6875	-32.6875	-27.0625	0.13179386	-0.28598204	-0.6568671
1276873097279	2.4925237	11.75436	-2.4925237	2.4648752	0.0	-31.6875	-32.6875	-28.3125	0.59798425	-0.20453759	-0.20895573
1276873097309	0.23154591	11.413852	-5.5162406	2.8724089	0.0	-30.6875	-33.0	-28.8125	0.6369385	-0.45011273	-0.020283613
1276873097339	2.4108016	8.471856	-6.0474343	0.87772083	0.0	-29.1875	-34.75	-27.8125	0.38078013	-0.6016549	-0.27723765
1276873097369	2.6423476	7.6954966	-1.920469	-1.4465742	0.0	-27.5	-37.0625	-25.5	0.3806176	-0.23178904	-0.33074978
1276873097399	3.1054392	7.273266	6.4015636	0.36803246	0.0	-26.5	-39.375	-22.4375	2.4985151	0.6804797	-0.40353492
1276873097429	2.7921712	7.8861814	3.7864566	-0.62376785	0.0	-26.3125	-41.125	-19.875	1.7053359	0.4250195	-0.34028602
1276873097459	2.3699405	7.8589406	0.92618364	-1.5460577	0.0	-26.5	-41.875	-16.8125	0.8634973	0.112356976	-0.29288718
1276873097499	2.4925237	7.082581	0.19068487	-2.2958589	0.0	-25.8125	-42.6875	-15.0625	0.6348565	0.02539085	-0.338387
1276873097529	2.6832085	7.5456724	0.46309182	-1.784728	0.0	-25.0625	-43.1875	-13.5	0.7097684	0.0577604	-0.3416511
1276873097559	2.6423476	9.00305	2.0294318	-0.20688438	0.0	-24.8125	-43.1875	-11.5	1.4849378	0.2130115	-0.28547803
1276873097589	1.6480621	10.269742	4.1814466	1.403533	0.0	-25.3125	-43.4375	-9.6875	2.00987	0.3822449	-0.15912077
1276873097619	1.3756552	11.073342	4.2495484	2.1336184	0.0	-26.5	-43.6875	-8.1875	1.9748343	0.36387756	-0.123598
1276873097659	0.9942854	12.026767	5.407278	3.4172058	0.0	-27.75	-43.1875	-8.1875	2.0011764	0.42125198	-0.08248513
1276873097709	5.134871	15.472715	2.9556155	6.7616177	0.0	-28.25	-42.9375	-9.6875	1.5200388	0.17935011	-0.32042953
1276873097739	5.829509	12.299174	-4.5628166	4.548563	0.0	-27.25	-41.625	-14.0	0.23065822	-0.3234619	-0.44261223
1276873097779	5.706926	11.686258	-4.0588636	3.8172998	0.0	-25.5625	-40.125	-19.375	0.16313553	-0.30251423	-0.45428023
1276873097809	7.0553403	10.991621	3.486809	3.7119074	0.0	-24.3125	-38.5625	-24.0	-0.032393467	0.2608766	-0.5706482
1276873097849	6.851035	9.765789	3.7864566	2.7091227	0.0	-23.375	-37.0625	-28.5625	-0.15251853	0.30735096	-0.6117549
1276873097879	4.7943625	5.5162406	-2.3426998	-2.1318169	0.0	-23.125	-35.5	-31.875	-0.13434394	-0.31019506	-0.71549904
1276873097909	2.0294318	5.284695	-3.445948	-3.1793466	0.0	-23.125	-34.0	-33.9375	0.18653011	-0.5468068	-0.3666556
1276873097940	0.46309182	5.47538	-0.9942854	-4.22249	0.0	-23.375	-31.9375	-35.9375	0.46190766	-0.17900911	-0.084376305
1276873097979	1.9477097	3.1463003	-1.9885708	-5.605794	0.0	-24.0625	-29.375	-37.0	0.098819725	-0.49311575	-0.5543075
1276873098009	3.568531	1.0760075	-1.3756552	-5.833662	0.0	-25.5625	-27.375	-37.0	-0.38913265	-0.35357305	-1.2779394
1276873098039	3.9499009	1.4165162	0.19068487	-5.6061034	0.0	-27.5	-26.3125	-36.75	-0.41512483	0.045410853	-1.2264624
1276873098069	4.399372	3.173541	1.4165162	-4.2001934	0.0	-28.5	-26.625	-35.6875	-0.19618659	0.2554264	-0.94587666
1276873098099	5.012288	4.9850473	5.012288	-1.1408119	0.0	-29.6875	-28.375	-33.6875	0.21528322	0.61676127	-0.78812295
1276873098129	7.0553403	11.264028	12.067628	8.145615	0.0	-29.9375	-30.6875	-31.625	2.0527487	0.737185	-0.5595769
1276873098159	5.8976107	14.982383	10.800936	9.581846	0.0	-29.9375	-31.9375	-29.3125	1.4672697	0.590865	-0.3750085
1276873098199	4.6036777	7.4639506	4.903325	0.24058819	0.0	-31.1875	-32.4375	-28.5625	1.2214625	0.50982803	-0.5526725
1276873098239	5.366417	5.47538	4.5628166	-0.88490677	0.0	-31.875	-31.6875	-28.3125	0.40974304	0.5368441	-0.7753482
1276873098279	11.985906	8.921328	-2.070293	5.2777176	0.0	-32.875	-30.1875	-28.5625	-0.13261393	-0.13768215	-0.93094146
1276873098320	14.859799	10.419566	-0.9942854	8.369423	0.0	-34.625	-28.875	-29.3125	-0.11806549	-0.0547303	-0.95927113
1276873098359	0.7218784	12.408136	-3.2961242	3.0520973	0.0	-35.0625	-28.625	-29.0625	0.74791765	-0.25922677	-0.058112323
1276873098389	-1.4165162	13.143636	-4.5219555	4.165098	0.0	-33.375	-29.375	-29.3125	0.78955185	-0.32958454	0.10735765
1276873098419	1.1441092	9.575105	-7.082581	2.1580715	0.0	-31.1875	-31.6875	-28.8125	0.5534268	-0.6334827	-0.118924074
1276873098449	2.152015	8.076866	-2.0294318	-1.2051668	0.0	-28.5	-34.5	-27.3125	0.47657496	-0.2381855	-0.26039246
1276873098489	2.152015	8.049625	5.2165933	0.023939133	0.0	-26.3125	-37.5625	-25.5	1.6500808	0.55936617	-0.2612342
1276873098519	2.3699405	8.281172	3.7864566	-0.39752293	0.0	-26.5	-40.125	-22.6875	1.4120599	0.41416293	-0.27873406
1276873098549	2.7649305	7.6273947	2.4108016	-1.3429651	0.0	-26.5	-41.625	-19.375	1.1459521	0.2888402	-0.347767
1276873098589	2.7649305	6.0474343	1.3756552	-3.0163093	0.0	-26.0625	-42.6875	-17.0625	0.73026574	0.20400205	-0.42883125
1276873098619	3.1463003	5.9793324	-0.0	-3.0500522	0.0	-25.3125	-43.6875	-14.8125	0.13798214	-0.0	-0.48438406
1276873098649	4.0588636	7.504812	-0.50395286	-1.2596893	0.0	-24.3125	-44.4375	-13.25	0.015143045	-0.058997035	-0.49577937
1276873098679	3.405087	9.275456	-1.7978859	0.23631287	0.0	-24.0625	-45.1875	-12.5	0.31713426	-0.17998973	-0.35183308
1276873098709	2.3018389	10.841797	0.19068487	1.2784472	0.0	-24.5625	-46.0	-11.0	0.9598341	0.017202761	-0.20920509
1276873098739	2.9147544	11.495573	4.7126403	2.9547358	0.0	-25.3125	-46.25	-9.1875	2.235266	0.37824386	-0.24832128
1276873098779	2.0294318	11.75436	9.384419	5.3706646	0.0	-26.0625	-46.0	-7.625	2.5171235	0.66660184	-0.17096801
1276873098809	0.7218784	12.912089	6.3198414	4.587222	0.0	-27.0	-45.75	-7.375	2.0944498	0.45455745	-0.05584903
1276873098839	3.759216	15.431854	0.9942854	6.1075706	0.0	-27.0	-44.6875	-9.4375	1.1878332	0.06251851	-0.23894712
1276873098869	4.440233	14.1787815	-5.09401	5.900114	0.0	-27.0	-43.4375	-13.75	0.41436687	-0.33029222	-0.30348644
1276873098899	3.405087	12.912089	-6.3198414	4.966876	0.0	-26.5	-42.4375	-18.375	0.38007036	-0.44203693	-0.2578429
1276873098929	5.5571017	12.598822	-1.9477097	4.1003714	0.0	-25.3125	-40.875	-22.6875	0.2248759	-0.14051418	-0.41541225
1276873098959	7.6273947	11.34575	5.6660647	4.9922514	0.0	-25.0625	-39.625	-26.25	-0.2045404	0.39290172	-0.5918711
1276873098989	8.894087	9.507003	3.336985	3.632969	0.0	-24.3125	-37.5625	-29.3125	-0.42526072	0.25091934	-0.7521018
1276873099019	7.205164	6.891896	-0.6537767	0.18534851	0.0	-23.375	-34.75	-32.625	-0.24888805	-0.0654768	-0.8076168
1276873099059	3.336985	4.4810944	-6.2789803	-1.4018145	0.0	-22.625	-32.6875	-35.4375	-0.02585757	-0.84363973	-0.64008814
1276873099089	-1.3756552	7.3958488	-0.46309182	-2.2697105	0.0	-22.625	-29.625	-38.0	0.6113456	-0.061481677	0.18390207
1276873099119	0.8036005	2.4925237	-1.334794	-6.8672414	0.0	-23.375	-27.125	-39.3125	0.27156848	-0.47136506	-0.31188244
1276873099159	2.152015	-0.9942854	-1.7297841	-6.8720417	0.0	-25.3125	-25.0625	-39.8125	-0.7013295	-0.630369	-2.0036054
1276873099199	2.2609777	1.0760075	-0.38136974	-7.2738147	0.0	-28.0	-23.25	-39.3125	-0.20014775	-0.1511451	-1.126611
1276873099229	4.099725	4.0588636	5.434519	-1.8809881	0.0	-29.6875	-24.0625	-37.5	1.2586846	0.7555463	-0.79040647
1276873099259	8.349273	10.95076	15.363752	10.825228	0.0	-31.1875	-25.5625	-35.4375	2.109998	0.8400267	-0.65141386
1276873099299	8.158588	12.408136	9.615966	7.884907	0.0	-32.375	-27.875	-32.625	1.1639174	0.5746418	-0.581643
1276873099329	6.1291566	4.7943625	5.6252036	-0.20480728	0.0	-33.625	-29.125	-30.875	-1.9960555	0.6259239	-0.90698993
1276873099369	12.598822	7.3141265	-4.5900574	5.4673595	0.0	-33.875	-29.625	-29.875	-0.20336086	-0.30523178	-1.0448081
1276873099399	17.965239	12.258313	-0.7627395	11.955652	0.0	-33.375	-29.375	-30.625	-0.16801324	-0.035055835	-0.9720246
1276873099429	6.469665	9.534244	-1.0760075	1.7655649	0.0	-33.125	-28.125	-31.625	0.31726986	-0.09311649	-0.5961991
1276873099459	-3.214402	15.6634	-6.1291566	7.317631	0.0	-31.6875	-28.875	-31.875	0.77516305	-0.3660415	0.2024072
1276873099499	-1.7297841	13.715691	-6.5922484	5.5090303	0.0	-29.1875	-30.1875	-32.375	0.6792641	-0.44496334	0.12545483
1276873099529	0.50395286	8.962189	-2.3699405	-0.5227175	0.0	-27.0	-33.0	-30.375	0.58181894	-0.2581304	-0.05617185
1276873099569	2.4516625	7.246025	6.0201936	-0.07226467	0.0	-25.3125	-36.8125	-27.8125	1.941027	0.66676384	-0.32625502
1276873099609	3.8681788	7.7363577	2.6423476	-0.7625332	0.0	-24.5625	-39.375	-25.0	0.39664057	0.29648674	-0.4636476
1276873099639	3.1054392	7.3958488	1.9477097	-1.5522032	0.0	-25.0625	-41.875	-21.4375	0.6313154	0.23820513	-0.39753404
1276873099679	1.879608	4.862464	0.46309182	-4.5730147	0.0	-25.3125	-43.1875	-18.625	0.5157168	0.08859965	-0.36886206
1276873099709	3.2961242	4.7126403	-0.040861044	-4.055556	0.0	-24.0625	-44.4375	-16.8125	-0.32322064	-0.007104976	-0.6103379
1276873099739	5.053149	7.6954966	-0.7627395	-0.56886005	0.0	-22.625	-45.75	-15.0625	-0.31239808	-0.08266141	-0.581027
1276873099779	3.2961242	11.413852	1.3075534	2.1453438	0.0	-22.625	-46.0	-13.0	0.8812213	0.10961985	-0.28113428
1276873099809	1.6480621	12.367276	8.812365	5.468277	0.0	-23.375	-46.25	-11.0	2.4162824	0.61494917	-0.13247938
1276873099839	0.53119355	13.021052	8.471856	5.736912	0.0	-25.0625	-45.5	-9.4375	2.2151997	0.5764363	-0.04077237
1276873099879	0.84446156	15.173067	2.9556155	5.674653	0.0	-26.75	-44.6875	-9.6875	1.5416129	0.19209437	-0.05559794
1276873099909	4.2495484	13.021052	-1.2258313	3.9450455	0.0	-27.25	-43.6875	-12.25	0.63803333	-0.08925886	-0.31546134
1276873099940	5.7477865	13.443283	-4.2904096	5.4303617	0.0	-27.5	-42.125	-16.3125	0.28661972	-0.28543842	-0.4040355
1276873099979	6.782933	12.980191	-3.5957718	5.273905	0.0	-26.75	-41.125	-20.9375	0.14475441	-0.24075675	-0.48153257
1276873100019	7.273266	10.61025	5.175732	4.059352	0.0	-25.5625	-39.375	-24.75	-0.21320589	0.38252893	-0.60092413
1276873100059	5.5571017	8.076866	1.1849703	0.068636894	0.0	-23.8125	-37.3125	-29.3125	-0.064298406	0.120283335	-0.6026451
1276873100099	2.0294318	6.510526	-5.407278	-1.1035357	0.0	-22.375	-35.25	-32.625	0.21158795	-0.6704055	-0.30217
1276873100129	-0.9125633	6.973618	-0.29964766	-2.7671962	0.0	-22.375	-32.6875	-35.6875	0.6213609	-0.04257975	0.13012
1276873100159	1.5390993	4.0588636	-1.7570249	-5.1236663	0.0	-22.875	-29.375	-39.0	0.21816584	-0.38460547	-0.3624431
1276873100199	4.0180025	0.92618364	-1.4982382	-5.4195237	0.0	-24.8125	-26.0625	-39.8125	-0.39404878	-0.34852076	-1.3442451
1276873100229	3.9090397	0.38136974	-0.5720546	-5.83761	0.0	-27.0	-24.0625	-40.5625	-0.4482465	-0.14463294	-1.4735432
1276873100269	3.990762	2.1111538	1.1168685	-5.155785	0.0	-28.75	-23.0	-39.5625	-0.22770576	0.24251223	-1.0842108
1276873100299	5.6252036	4.3312707	5.407278	-0.8824425	0.0	-30.1875	-24.0625	-37.25	-0.10350309	0.65091085	-0.9146328
1276873100329	8.662541	12.14935	15.431854	11.659334	0.0	-30.4375	-27.375	-34.6875	2.0496218	0.80221575	-0.6194006
1276873100369	3.214402	13.402422	9.343558	6.8444576	0.0	-30.6875	-29.9375	-32.125	1.3043644	0.5957592	-0.23539123
1276873100399	3.718355	6.0474343	4.630918	-1.3306236	0.0	-30.1875	-31.9375	-30.875	1.3143574	0.57800585	-0.55127794
1276873100429	12.176591	9.80665	-3.486809	6.2120132	0.0	-29.6875	-33.0	-30.875	-0.17659903	-0.2194283	-0.89279014
1276873100459	14.941522	12.571581	-3.173541	9.976299	0.0	-29.4375	-32.4375	-31.875	-0.15154824	-0.16111411	-0.87132466
1276873100499	5.9793324	6.782933	-1.56634	-0.62983036	0.0	-28.25	-31.9375	-32.625	0.001831593	-0.17152421	-0.7225143
1276873100529	2.8330324	12.980191	-7.3549876	5.3791094	0.0	-26.75	-32.6875	-33.1875	0.3852096	-0.50560236	-0.21488824
1276873100560	0.23154591	12.53072	-10.038197	6.250683	0.0	-25.0625	-34.0	-32.625	0.4793105	-0.67532015	-0.018476158
1276873100599	-0.23154591	9.084772	-1.7978859	-0.54279137	0.0	-24.0625	-35.75	-29.875	0.6047337	-0.1953147	0.02548174
1276873100629	0.7627395	8.008764	8.049625	1.5739717	0.0	-23.8125	-38.8125	-26.5	2.0416079	0.7856853	-0.094951704
1276873100669	2.9556155	7.3549876	3.1463003	-1.2784195	0.0	-23.8125	-41.125	-22.9375	1.0403072	0.37785506	-0.3821018
1276873100709	3.5276701	7.164303	1.1168685	-1.7432089	0.0	-23.8125	-43.4375	-19.125	0.17803322	0.1389569	-0.4575455
1276873100749	3.3778462	5.5571017	0.27240697	-3.2977767	0.0	-22.625	-45.1875	-16.5625	-0.27905342	0.041863855	-0.5461666
1276873100789	4.140586	7.504812	0.6537767	-1.2104836	0.0	-21.625	-47.0	-14.0	-0.35939008	0.07612796	-0.50416595
1276873100819	2.5333846	10.61025	2.1792557	1.3174047	0.0	-21.375	-47.25	-11.75	1.4145608	0.19718005	-0.23437943
1276873100849	0.84446156	11.836082	3.1054392	2.4591446	0.0	-22.375	-47.0	-9.6875	1.722493	0.25596467	-0.07122568
1276873100889	0.19068487	11.536434	1.56634	1.8371935	0.0	-24.5625	-46.5	-7.9375	1.5054696	0.13492991	-0.016527422
1276873100919	1.1168685	11.563675	5.284695	2.9563427	0.0	-26.0625	-45.1875	-7.9375	2.093243	0.4269142	-0.09628555
1276873100949	2.2201166	10.61025	9.615966	4.6837997	0.0	-26.75	-45.1875	-8.4375	2.5761087	0.7256304	-0.2062667
1276873100979	5.7477865	12.4489975	5.366417	4.917922	0.0	-26.75	-44.6875	-11.0	2.5697343	0.3730455	-0.43254653
1276873101019	6.2789803	17.161638	-8.117727	10.189472	0.0	-26.3125	-44.1875	-15.0625	0.27108154	-0.4180346	-0.35074502
1276873101049	1.56634	14.750836	-7.6546354	6.885685	0.0	-25.8125	-42.6875	-19.875	0.50390095	-0.47638747	-0.10579009
1276873101084	4.7126403	11.495573	3.636633	3.1387072	0.0	-24.8125	-40.375	-24.5	0.6349454	0.28475443	-0.38905668
1276873101119	9.084772	10.501288	6.851035	5.6771097	0.0	-23.5625	-37.8125	-29.0625	-0.80987304	0.45834646	-0.71320117
1276873101149	7.8589406	6.701211	-2.7240696	0.874629	0.0	-22.125	-35.0	-33.4375	-0.28173873	-0.25788096	-0.8647448
1276873101189	1.7570249	6.2789803	-4.9850473	-1.5991278	0.0	-21.125	-31.9375	-35.9375	0.2275498	-0.65275264	-0.27284777
1276873101219	-1.0760075	6.851035	-1.6889231	-2.6689377	0.0	-21.875	-28.375	-39.3125	0.5336643	-0.23888524	0.15578504
1276873101249	2.4108016	1.8387469	-2.6014864	-5.8115673	0.0	-23.8125	-24.5625	-40.5625	-0.09606437	-0.70912784	-0.9192092
1276873101279	4.7943625	-0.7218784	-1.7570249	-4.649698	0.0	-26.3125	-22.25	-41.0625	-0.5099651	-0.3476719	-1.7202419
1276873101309	3.718355	-0.46309182	-0.23154591	-6.0524216	0.0	-29.4375	-20.5	-41.0625	-0.51242	-0.061715204	-1.6947005
1276873101349	4.440233	0.42223078	2.2201166	-4.8243947	0.0	-31.4375	-20.5	-39.0	-0.7143447	0.46184966	-1.4759893
1276873101389	8.240311	7.9679036	12.871228	7.4287415	0.0	-31.875	-22.75	-37.0	2.210232	0.84322315	-0.8022033
1276873101419	7.8861814	15.431854	11.75436	11.133717	0.0	-32.625	-24.0625	-34.1875	1.1577815	0.5959865	-0.47243473
1276873101449	6.238119	8.390134	7.43671	3.0235147	0.0	-32.625	-25.8125	-32.125	1.3090044	0.6182709	-0.6393323
1276873101479	9.534244	7.9679036	2.2609777	2.822732	0.0	-32.875	-26.875	-31.625	0.019548967	0.17999555	-0.87465453
1276873101519	11.223166	9.466142	-3.8273177	5.366209	0.0	-32.875	-27.375	-31.375	0.006562714	-0.2550023	-0.87011915
1276873101549	9.466142	6.8237944	-2.5606253	2.1402664	0.0	-31.6875	-28.625	-31.625	-0.11677609	-0.2160095	-0.9462049
1276873101589	1.9885708	10.460427	-4.903325	1.9158735	0.0	-29.6875	-29.9375	-31.125	0.50254214	-0.43155348	-0.18786247
1276873101629	-2.8738933	12.639683	-7.43671	5.137429	0.0	-27.25	-32.4375	-30.125	0.7152891	-0.52087104	0.22356974
1276873101669	-1.1849703	9.084772	-0.9942854	-0.59112835	0.0	-25.3125	-35.5	-28.3125	0.7543951	-0.108102895	0.12970254
1276873101709	3.6774938	7.3549876	6.238119	0.5148773	0.0	-24.5625	-38.3125	-25.5	2.5393333	0.64898676	-0.4636476
1276873101739	4.7943625	7.7363577	2.4108016	-0.39128494	0.0	-24.0625	-41.125	-22.4375	-0.12676543	0.25893348	-0.5547923
1276873101779	4.2495484	7.5865335	1.879608	-0.9101858	0.0	-23.5625	-42.9375	-19.375	-0.04959009	0.21288009	-0.51059765
1276873101809	3.173541	6.3607025	0.53119355	-2.678392	0.0	-23.375	-43.9375	-16.8125	0.099258564	0.074588545	-0.46279073
1276873101839	2.3699405	6.891896	-0.88532263	-2.4650807	0.0	-22.375	-44.6875	-15.3125	0.30332944	-0.12088458	-0.33120656
1276873101879	2.6423476	9.084772	-1.7570249	-0.18364525	0.0	-21.375	-45.5	-14.8125	0.3194759	-0.18361591	-0.2830455
1276873101909	1.334794	11.563675	1.6480621	1.9498959	0.0	-21.875	-46.0	-12.75	1.2283393	0.14064574	-0.11492132
1276873101939	1.8387469	11.182305	7.1234417	3.5787287	0.0	-22.875	-46.25	-11.0	2.4149048	0.56117433	-0.16297519
1276873101969	0.84446156	12.4489975	6.932757	4.4675846	0.0	-23.5625	-45.75	-9.1875	2.201743	0.50714463	-0.06772994
1276873102009	0.08172209	12.598822	4.4810944	3.5656042	0.0	-25.0625	-45.5	-8.1875	1.8680668	0.3417155	-0.006486396
1276873102049	5.6252036	12.217452	2.982856	3.970377	0.0	-25.3125	-44.9375	-10.4375	1.7909911	0.21823765	-0.43148834
1276873102079	4.1814466	13.293459	-6.238119	5.461444	0.0	-24.5625	-43.9375	-14.5625	0.29745233	-0.4208892	-0.30475065
1276873102109	2.7921712	14.9006605	-4.7943625	6.0934067	0.0	-24.5625	-42.4375	-19.625	0.46363917	-0.30629814	-0.18523757
1276873102139	5.366417	14.137921	4.440233	5.9538994	0.0	-23.5625	-40.375	-24.75	0.6213141	0.28559756	-0.36277655
1276873102179	7.246025	10.079058	4.0180025	3.2408257	0.0	-22.375	-38.5625	-29.3125	-0.2963186	0.31304017	-0.6233107
1276873102219	7.0553403	5.434519	-6.1700177	1.0275984	0.0	-20.875	-35.75	-32.9375	-0.30840987	-0.6058877	-0.91444796
1276873102259	1.5390993	5.5571017	-1.1849703	-3.9198546	0.0	-20.875	-32.4375	-36.5	0.2594879	-0.20267768	-0.27018824
1276873102299	1.3756552	3.8681788	-1.6480621	-5.382699	0.0	-22.875	-27.875	-39.5625	0.24257179	-0.38173562	-0.34168497
1276873102329	3.568531	0.84446156	-1.9885708	-5.6350865	0.0	-25.5625	-23.0	-40.5625	-0.3184244	-0.4968932	-1.3384296
1276873102369	2.8330324	0.313268	-0.42223078	-6.9252462	0.0	-29.1875	-19.9375	-40.8125	-0.35397798	-0.14706604	-1.4606668
1276873102399	4.630918	2.3018389	5.5162406	-2.2453818	0.0	-31.4375	-19.1875	-39.3125	-1.5334762	0.8176478	-1.1095043
1276873102429	8.349273	6.851035	13.565866	7.53347	0.0	-31.875	-20.75	-37.0	2.5723403	0.8984136	-0.8836471
1276873102459	8.662541	11.073342	11.795221	8.545074	0.0	-32.125	-23.0	-34.4375	1.3915533	0.6980577	-0.6638472
1276873102489	7.014479	9.534244	8.812365	4.9501276	0.0	-32.375	-25.3125	-32.625	1.3457456	0.63997334	-0.6342954
1276873102529	14.09706	13.021052	-0.0	9.383841	0.0	-32.625	-26.625	-31.875	0.08071011	-0.0	-0.82505596
1276873102559	8.853226	7.3141265	-4.0180025	2.3597136	0.0	-32.625	-26.625	-32.125	0.0057218173	-0.33657372	-0.88031006
1276873102599	5.7886477	4.1814466	-5.325556	-0.89853764	0.0	-31.875	-27.125	-33.1875	-0.064388	-0.64079404	-0.94522536
1276873102639	3.9090397	12.4489975	-8.158588	5.5823298	0.0	-29.1875	-28.875	-32.625	0.3884765	-0.55878675	-0.3042548
1276873102669	-1.1168685	14.2877445	-7.246025	6.252363	0.0	-25.3125	-32.4375	-31.125	0.5898595	-0.46812338	0.07801105
1276873102699	-5.09401	11.223166	-0.040861044	2.51853	0.0	-22.625	-36.5625	-28.3125	0.8991215	-0.0033152553	0.42607874
1276873102739	-2.6832085	8.689782	6.6331096	1.4499063	0.0	-20.6875	-40.375	-25.25	1.5309027	0.6301505	0.2994899
1276873102769	3.9499009	7.164303	2.7240696	-1.1840343	0.0	-20.4375	-43.1875	-22.4375	-0.4431973	0.32142773	-0.5038644
1276873102809	5.284695	7.5456724	1.2258313	-0.5132208	0.0	-21.125	-44.4375	-19.875	-0.5518179	0.13228852	-0.61096823
1276873102849	4.0180025	6.1700177	0.040861044	-2.4435573	0.0	-20.4375	-45.75	-17.375	-0.42986876	0.0055494686	-0.57722825
1276873102889	3.9090397	7.6273947	1.9477097	-1.0173779	0.0	-19.9375	-46.5	-14.3125	-0.89620185	0.22345577	-0.47359753
1276873102929	1.607201	11.182305	0.6946377	1.5119	0.0	-19.9375	-46.5	-12.5	0.9451858	0.061410207	-0.14274958
1276873102959	-0.46309182	12.830367	0.3405087	3.0365858	0.0	-20.4375	-46.75	-10.4375	1.1759274	0.026515793	0.036077756
1276873102989	-0.23154591	13.143636	2.3018389	3.539032	0.0	-21.625	-46.75	-9.1875	1.5238982	0.17334498	0.017614758
1276873103029	2.0294318	15.745122	4.7943625	6.7768764	0.0	-22.125	-47.0	-8.6875	1.9296693	0.29329064	-0.12818599
1276873103059	2.7649305	15.6634	2.7921712	6.3421307	0.0	-22.125	-47.0	-8.6875	1.9296693	0.29329064	-0.12818599
1276873103099	3.568531	9.80665	1.9477097	0.8092985	0.0	-21.875	-46.5	-10.6875	1.3353944	0.18451536	-0.34899402
1276873103129	5.7886477	11.495573	-3.255263	3.4693947	0.0	-21.125	-45.5	-14.5625	-0.060346883	-0.24772419	-0.46648717
1276873103159	8.049625	12.871228	-4.7943625	6.113492	0.0	-20.4375	-43.4375	-20.6875	-0.1658398	-0.30589917	-0.5588846
1276873103199	6.701211	8.853226	1.1849703	1.3598166	0.0	-20.1875	-41.625	-25.5	-0.41399208	0.106318824	-0.64791715
1276873103239	6.5513873	6.469665	4.0588636	0.25573635	0.0	-19.4375	-38.8125	-30.125	-0.90399605	0.41519666	-0.79167426
1276873103269	4.099725	6.3607025	-3.9090397	-1.2892046	0.0	-20.1875	-35.25	-34.4375	-0.04322658	-0.4768075	-0.57252705
1276873103299	0.38136974	7.8861814	-1.3075534	-1.8037138	0.0	-22.125	-31.1875	-37.0	0.4580626	-0.16411997	-0.048321597
1276873103331	0.42223078	4.7535014	-0.46309182	-5.012017	0.0	-23.5625	-26.0625	-40.0625	0.4612438	-0.09673625	-0.08859271
1276873103369	1.9477097	0.84446156	-0.8036005	-7.536747	0.0	-25.8125	-21.5	-41.8125	-0.18508098	-0.36187035	-1.1616923
1276873103409	1.6480621	0.10896278	-0.10896278	-8.1514	0.0	-27.75	-17.9375	-41.8125	-0.35291514	-0.06587621	-1.5047767
1276873103439	2.3699405	1.7978859	3.255263	-5.3969164	0.0	-29.4375	-16.625	-41.3125	0.966599	0.83039737	-0.9218008
