#timestamp	accel_x	accel_y	accel_z	accel_mag	temperature	mag_x	mag_y	mag_z	azimuth	pitch	roll
1276877643789	2.7649305	0.92618364	9.80665	0.42433453	0.0	-5.375	-20.6875	-40.0	-1.5586962	1.2817796	-1.2475686
1276877643837	2.7649305	1.1168685	9.534244	0.18304634	0.0	-4.125	-20.6875	-40.0	-1.5201007	1.2676692	-1.1868973
1276877643870	2.7649305	1.1849703	9.343558	0.0092077255	0.0	-3.4375	-21.6875	-40.0	-1.510656	1.2593261	-1.1659045
1276877643899	2.7649305	1.0760075	9.425281	0.07457161	0.0	-3.1875	-21.9375	-40.0	-1.4886501	1.2658325	-1.1996673
1276877643929	2.7649305	0.95342433	9.466142	0.101008415	0.0	-2.9375	-22.4375	-40.0	-1.4642563	1.2711358	-1.2387369
1276877643959	2.7921712	0.95342433	9.534244	0.17368221	0.0	-3.4375	-22.6875	-40.25	-1.483214	1.2706836	-1.2417467
1276877643989	2.7649305	1.1168685	9.425281	0.07910442	0.0	-3.4375	-22.1875	-40.75	-1.5019296	1.264379	-1.1868973
1276877644019	2.7649305	1.1168685	9.384419	0.040154457	0.0	-3.4375	-21.9375	-41.25	-1.485776	1.2631273	-1.1868973
1276877644059	2.8330324	1.1168685	9.534244	0.20210934	0.0	-3.625	-21.6875	-41.25	-1.477623	1.2616378	-1.1952733
1276877644099	2.7240696	0.9942854	9.656827	0.27618027	0.0	-3.625	-21.4375	-41.5	-1.4845153	1.2790728	-1.2208215
1276877644139	2.6832085	0.9942854	9.615966	0.22604656	0.0	-3.625	-21.6875	-41.5	-1.4998404	1.2815626	-1.2159253
1276877644169	2.7921712	0.95342433	9.534244	0.17368221	0.0	-3.625	-22.1875	-41.0	-1.4705437	1.2706836	-1.2417467
1276877644199	2.9556155	1.0760075	9.656827	0.34951878	0.0	-3.875	-22.1875	-40.75	-1.4716911	1.2559166	-1.2216554
1276877644229	2.8738933	1.0760075	9.724928	0.39096165	0.0	-4.125	-22.6875	-40.75	-1.5207223	1.265133	-1.2125452
1276877644259	2.8330324	0.9942854	9.656827	0.30616283	0.0	-4.375	-22.4375	-40.25	-1.5245531	1.2693568	-1.2332652
1276877644290	2.8738933	1.1441092	9.575105	0.25569916	0.0	-4.625	-22.4375	-39.75	-1.5585978	1.2583271	-1.1919253
1276877644329	2.7649305	1.1849703	9.534244	0.19088936	0.0	-4.375	-22.4375	-40.25	-1.5788959	1.265171	-1.1659045
1276877644369	2.9147544	1.1168685	9.534244	0.22554779	0.0	-4.625	-22.1875	-39.5	-1.5371997	1.2544048	-1.2048756
1276877644399	2.7921712	1.3075534	9.80665	0.47324753	0.0	-4.625	-22.4375	-39.75	-1.6334279	1.2661855	-1.1328348
1276877644439	2.6423476	1.334794	10.038197	0.6589632	0.0	-4.375	-22.1875	-40.5	-1.676123	1.284017	-1.1030335
1276877644479	3.214402	0.95342433	9.888372	0.634676	0.0	-5.375	-21.9375	-40.5	-1.4576154	1.2438947	-1.2824523
1276877644510	3.8273177	0.3405087	9.425281	0.37176895	0.0	-5.875	-20.9375	-40.75	-1.1855246	1.1836926	-1.482062
1276877644549	3.990762	0.23154591	9.193735	0.21854591	0.0	-7.375	-20.1875	-40.75	-1.167179	1.160651	-1.5128409
1276877644589	4.1814466	0.0	9.152874	0.25613308	0.0	-9.125	-19.1875	-41.0	-1.1435	1.1422644	-1.5707964
1276877644629	4.372132	-0.6537767	8.499097	-0.2265873	0.0	-10.375	-17.75	-41.5	-0.9956	1.0911648	-1.7192292
1276877644670	4.5219555	-0.6946377	8.730643	0.050060272	0.0	-11.5625	-16.75	-42.0	-1.0051765	1.0881209	-1.7232193
1276877644709	4.7126403	-0.84446156	8.689782	0.11476135	0.0	-12.3125	-15.25	-42.5	-0.9514508	1.0672181	-1.7481053
1276877644753	4.8216033	-1.0351465	8.349273	-0.10975647	0.0	-12.8125	-14.25	-42.75	-0.8875735	1.0372827	-1.7822754
1276877644789	4.7943625	-0.9125633	8.076866	-0.36978436	0.0	-13.0625	-14.5	-42.5	-0.8972279	1.0272586	-1.7588873
1276877644819	4.440233	-0.42223078	8.349273	-0.34069443	0.0	-12.5625	-15.0	-42.25	-1.0098227	1.0801568	-1.6656033
1276877644859	3.9499009	0.27240697	8.049625	-0.836009	0.0	-12.0625	-16.0	-41.75	-1.1572628	1.1136823	-1.5019399
1276877644899	3.5276701	1.6480621	9.384419	0.35346317	0.0	-10.8125	-18.4375	-40.75	-1.6235063	1.1775057	-1.1337465
1276877644929	3.445948	1.7570249	10.691973	1.5634851	0.0	-8.875	-20.6875	-40.0	-1.7537392	1.2236747	-1.0992749
1276877644969	3.445948	1.7978859	11.073342	1.9290161	0.0	-8.125	-22.6875	-39.75	-1.7836064	1.233229	-1.0899091
1276877645010	3.759216	1.6480621	10.18802	1.1771364	0.0	-7.375	-24.1875	-39.3125	-1.6011208	1.1878046	-1.1576259
1276877645049	3.759216	1.3075534	9.847511	0.814785	0.0	-8.125	-23.6875	-39.75	-1.5420955	1.1866952	-1.2360595
1276877645079	3.9499009	0.19068487	9.193735	0.2014885	0.0	-9.375	-22.1875	-40.25	-1.2875528	1.1645887	-1.522558
1276877645119	3.990762	-0.23154591	8.539958	-0.3774042	0.0	-10.8125	-19.9375	-40.75	-1.1763773	1.1330005	-1.6287519
1276877645159	4.099725	-0.9125633	8.471856	-0.3508129	0.0	-11.5625	-17.9375	-41.5	-1.0377334	1.1105413	-1.789817
1276877645199	4.399372	-0.95342433	8.158588	-0.48860073	0.0	-11.5625	-16.25	-41.75	-0.9435178	1.0666109	-1.7842143
1276877645229	4.399372	-0.6537767	8.499097	-0.21412468	0.0	-11.5625	-15.75	-41.75	-0.9925994	1.088673	-1.7183235
1276877645269	4.2086873	-0.19068487	8.662541	-0.17394352	0.0	-10.375	-16.5	-41.25	-1.0648608	1.1181303	-1.6160728
1276877645309	3.568531	0.92618364	9.343558	0.23796558	0.0	-9.625	-17.5	-41.0	-1.414178	1.1949729	-1.3168573
1276877645339	3.5957718	1.2258313	9.656827	0.57056236	0.0	-8.625	-19.6875	-40.25	-1.4935758	1.195994	-1.2422432
1276877645369	3.6774938	1.4165162	9.697687	0.6611872	0.0	-7.625	-21.4375	-39.5	-1.5048463	1.1848085	-1.2031262
1276877645400	3.5957718	1.920469	9.765789	0.7758074	0.0	-7.125	-23.4375	-39.0625	-1.6251363	1.1753589	-1.0802493
1276877645439	3.2961242	1.8387469	9.425281	0.34624767	0.0	-6.625	-24.9375	-38.5625	-1.6948826	1.1899059	-1.0619453
1276877645479	3.486809	1.9885708	9.275456	0.30009747	0.0	-6.625	-25.375	-38.3125	-1.655999	1.162375	-1.0524919
1276877645519	3.405087	1.7297841	9.275456	0.2243452	0.0	-6.875	-25.625	-38.3125	-1.6623739	1.1801932	-1.1007693
1276877645559	3.568531	1.7570249	9.384419	0.3859396	0.0	-7.375	-25.375	-38.5625	-1.6405541	1.1698959	-1.1132742
1276877645599	3.5957718	1.7978859	9.193735	0.22762775	0.0	-7.375	-25.375	-39.0625	-1.6115539	1.1585745	-1.1071488
1276877645629	3.568531	1.56634	9.112013	0.10377979	0.0	-7.375	-25.375	-38.8125	-1.5867561	1.1666456	-1.1571852
1276877645670	3.759216	1.607201	9.112013	0.18052006	0.0	-7.625	-25.625	-38.8125	-1.5561699	1.1490412	-1.1667794
1276877645710	3.8273177	1.5390993	9.043911	0.13364792	0.0	-7.625	-25.125	-38.3125	-1.5251747	1.1428572	-1.1884506
1276877645749	3.7864566	1.4165162	9.193735	0.23668289	0.0	-8.625	-24.9375	-38.0625	-1.5743437	1.1565173	-1.2128143
1276877645789	4.0588636	0.84446156	9.275456	0.35315228	0.0	-9.375	-24.6875	-38.0625	-1.4562427	1.1504713	-1.365669
1276877645829	3.9090397	1.3756552	9.00305	0.10435009	0.0	-9.875	-24.4375	-38.3125	-1.5612576	1.1394163	-1.2324153
1276877645869	4.2495484	1.9477097	8.62168	7.762909E-4	0.0	-10.375	-24.4375	-38.5625	-1.507262	1.0739646	-1.141034
1276877645909	4.7535014	1.334794	8.730643	0.2233839	0.0	-10.625	-23.9375	-38.5625	-1.3539032	1.0561156	-1.2970438
1276877645949	4.5219555	0.7218784	8.539958	-0.11644459	0.0	-11.3125	-23.6875	-38.8125	-1.3344014	1.0786018	-1.4124935
1276877645979	4.630918	0.61291564	8.689782	0.05911827	0.0	-12.0625	-23.1875	-38.8125	-1.334034	1.0775521	-1.4392081
1276877646021	4.4810944	0.8036005	9.084772	0.35499668	0.0	-12.5625	-22.9375	-38.8125	-1.4382749	1.1062515	-1.3933512
1276877646060	4.1814466	1.4573772	9.152874	0.36112022	0.0	-12.3125	-23.4375	-38.0625	-1.6168536	1.1201941	-1.235428
1276877646102	4.140586	1.4165162	9.275456	0.44932652	0.0	-12.0625	-23.4375	-38.0625	-1.622306	1.1299604	-1.241172
1276877646153	4.1814466	1.7570249	9.112013	0.3717785	0.0	-11.3125	-24.1875	-37.3125	-1.6319993	1.1089423	-1.1730022
1276877646204	4.0180025	1.4982382	8.771504	-0.04302597	0.0	-10.8125	-24.4375	-37.5625	-1.5851468	1.116081	-1.2138844
1276877646253	4.2086873	1.6889231	8.390134	-0.26936245	0.0	-11.0625	-24.4375	-38.0625	-1.5137331	1.0752711	-1.1891745
1276877646289	4.2904096	1.3756552	9.00305	0.26086903	0.0	-11.0625	-24.6875	-38.3125	-1.5219054	1.1067905	-1.2605176
1276877646339	4.0588636	1.334794	8.962189	0.121938705	0.0	-10.8125	-24.4375	-38.8125	-1.5435826	1.1259224	-1.253078
1276877646379	3.9499009	1.4573772	8.117727	-0.6620798	0.0	-10.375	-24.4375	-38.8125	-1.4820997	1.0923474	-1.2173266
1276877646424	3.2961242	1.6480621	8.771504	-0.29245853	0.0	-8.375	-23.9375	-39.3125	-1.6582323	1.1730571	-1.1071488
1276877646469	1.879608	0.9942854	8.894087	-0.66190815	0.0	-6.125	-23.9375	-39.3125	-1.9367368	1.3361224	-1.0842301
1276877646499	1.7570249	0.92618364	6.4424243	-3.0650048	0.0	-4.375	-24.6875	-39.5	-1.7242482	1.2717438	-1.0856797
1276877646529	3.2961242	1.7297841	8.499097	-0.52811337	0.0	-3.4375	-26.625	-38.5625	-1.5094641	1.157982	-1.0875113
1276877646560	5.407278	3.7864566	13.0619135	4.8285646	0.0	-3.1875	-29.375	-37.0625	-1.600089	1.1028553	-0.95990133
1276877646590	3.445948	4.440233	10.147159	1.7931366	0.0	-2.4375	-31.375	-35.5625	-1.891935	1.0649632	-0.6599805
1276877646629	3.0237172	4.0588636	8.62168	0.19087982	0.0	-1.6875	-32.8125	-34.625	-1.8900415	1.0399542	-0.64027184
1276877646659	2.1792557	2.7240696	9.112013	-0.049678802	0.0	-0.4375	-33.0625	-34.625	-2.1039033	1.2051635	-0.67474097
1276877646720	1.0760075	5.8976107	10.56939	2.3445482	0.0	0.3125	-32.8125	-33.875	-2.6405873	1.0548432	-0.18046312
1276877646761	3.568531	3.990762	9.193735	0.83221054	0.0	2.5625	-32.8125	-33.625	-1.6855389	1.0434893	-0.72960025
1276877646816	0.50395286	6.742072	11.454713	3.4944754	0.0	6.75	-32.5625	-31.375	-2.4725733	1.037594	-0.07460872
1276877646853	-3.5276701	7.6954966	8.580819	2.2472115	0.0	14.4375	-33.3125	-27.0	3.0319107	0.7921615	0.42982322
1276877646902	-5.053149	7.3141265	4.944186	0.36565208	0.0	23.375	-33.5625	-21.3125	-3.0191376	0.50755733	0.6045757
1276877646963	-4.4810944	7.082581	0.6946377	-1.3967943	0.0	30.3125	-33.3125	-12.6875	-0.7154931	0.082692266	0.5641117
1276877647007	-10.147159	8.349273	0.5720546	3.3463888	0.0	35.5	-33.5625	-3.3125	1.2305981	0.043505926	0.88229555
1276877647055	-4.630918	4.944186	-0.46309182	-3.0165958	0.0	38.5	-30.875	3.5625	-1.6025833	-0.06825447	0.7526929
1276877647089	-6.8237944	5.9793324	0.88532263	-0.6907091	0.0	39.9375	-28.125	9.25	-2.7862413	0.09727139	0.8512602
1276877647119	-6.0882955	5.09401	0.5720546	-1.8477855	0.0	41.1875	-25.625	12.6875	-2.7433355	0.07193844	0.8740809
1276877647149	-5.8567495	4.4810944	0.19068487	-2.4297886	0.0	42.6875	-23.4375	13.9375	-2.691927	0.025851931	0.9176908
1276877647179	-6.469665	5.5162406	0.46309182	-1.2919607	0.0	42.1875	-22.9375	15.375	-2.6358304	0.05441425	0.8647765
1276877647209	-7.082581	5.829509	0.46309182	-0.6218481	0.0	41.9375	-23.1875	15.375	-2.6832542	0.050440744	0.88214165
1276877647239	-6.701211	5.9793324	-0.0	-0.825634	0.0	42.1875	-23.6875	14.625	-2.5228643	-0.0	0.84226483
1276877647269	-7.04172	6.1291566	0.23154591	-0.46823597	0.0	42.1875	-23.4375	13.6875	-2.5481796	0.024797535	0.854574
1276877647299	-6.742072	6.0882955	0.6946377	-0.69592094	0.0	42.9375	-23.1875	12.6875	-2.5233867	0.07631799	0.83630955
1276877647346	-6.238119	5.597963	0.6946377	-1.3963089	0.0	43.4375	-22.1875	11.9375	-2.4720726	0.082687475	0.8394307
1276877647379	-7.3958488	5.8976107	1.1441092	-0.2783041	0.0	43.4375	-21.9375	10.6875	-2.5952654	0.1203647	0.89762944
1276877647419	-7.8180795	6.851035	1.3075534	0.67040825	0.0	43.1875	-21.6875	10.25	-2.4922504	0.12512784	0.85122675
1276877647449	-7.04172	6.932757	1.334794	0.16483974	0.0	42.6875	-21.9375	8.75	-2.3729408	0.13426408	0.7931953
1276877647489	-7.5456724	7.0553403	0.8036005	0.5548544	0.0	42.4375	-22.9375	8.0	-2.3295765	0.07763431	0.81896764
1276877647529	-7.5865335	7.082581	0.88532263	0.6097908	0.0	42.4375	-23.4375	9.0	-2.4019668	0.08509547	0.81973934
1276877647569	-7.164303	7.5456724	0.53119355	0.61191845	0.0	42.1875	-23.9375	9.25	-2.258971	0.05100739	0.75947803
1276877647609	-6.742072	6.932757	-0.19068487	-0.1342659	0.0	42.4375	-24.4375	10.0	-2.1662807	-0.019715639	0.7714549
1276877647649	-6.510526	6.1700177	-0.19068487	-0.8348923	0.0	42.6875	-24.1875	10.9375	-2.2696872	-0.021255502	0.81224453
1276877647689	-7.43671	6.5513873	0.5720546	0.12071514	0.0	42.6875	-23.9375	10.4375	-2.4802332	0.05765595	0.848605
1276877647729	-7.3958488	5.7886477	1.0760075	-0.35335445	0.0	42.6875	-23.4375	10.4375	-2.6812925	0.11407076	0.90670055
1276877647769	-7.5456724	6.5922484	0.6537767	0.23438263	0.0	42.4375	-23.1875	10.4375	-2.4820826	0.065156594	0.8527336
1276877647809	-6.973618	5.597963	-0.10896278	-0.8634739	0.0	42.4375	-23.4375	10.25	-2.4328353	-0.012184204	0.8943903
1276877647849	-7.164303	6.742072	0.08172209	0.031513214	0.0	41.6875	-24.1875	10.4375	-2.3503177	0.008306736	0.8157512
1276877647889	-6.428804	7.6954966	0.3405087	0.22660065	0.0	40.9375	-24.9375	10.6875	-2.2407055	0.033944543	0.69595563
1276877647929	-7.3958488	5.7886477	0.61291564	-0.39481258	0.0	40.1875	-25.125	10.9375	-2.7992022	0.065167904	0.9067005
1276877647969	-5.434519	5.325556	1.2258313	-2.0996275	0.0	39.1875	-26.125	10.4375	-2.6808429	0.15973218	0.7955244
1276877648009	-5.8976107	7.9679036	1.3075534	0.19229984	0.0	39.1875	-26.625	10.0	-2.3594878	0.13114467	0.63718075
1276877648049	-6.932757	5.366417	2.8738933	-0.5805559	0.0	39.4375	-27.375	8.25	-3.0325696	0.31676716	0.91206956
1276877648089	-7.164303	7.4639506	1.920469	0.715992	0.0	39.4375	-28.375	6.0625	-2.601466	0.18353696	0.76491684
1276877648129	-6.742072	7.164303	2.7921712	0.41973686	0.0	40.1875	-27.875	3.8125	-2.595704	0.2765475	0.7550451
1276877648169	-6.742072	6.782933	3.718355	0.45443535	0.0	40.6875	-26.875	0.625	-2.6355305	0.3708142	0.782377
1276877648209	-7.082581	6.66035	3.255263	0.44615173	0.0	41.1875	-25.625	-1.625	-2.5280526	0.32309175	0.81611204
1276877648249	-6.742072	6.0201936	4.372132	0.23395729	0.0	41.6875	-24.6875	-4.0625	-2.6397688	0.4505325	0.8419015
1276877648289	-5.938472	5.8976107	5.325556	0.11347103	0.0	41.4375	-24.6875	-7.5	-2.585473	0.5666917	0.7888504
1276877648329	-5.012288	5.434519	5.6252036	-0.5168743	0.0	40.4375	-24.4375	-10.6875	-2.5352669	0.650427	0.745003
1276877648369	-4.2086873	6.8237944	5.8976107	0.14619064	0.0	38.5	-24.9375	-14.875	-2.1392796	0.63422763	0.55265665
1276877648409	-4.5628166	6.3198414	6.469665	0.32331848	0.0	37.0	-25.375	-18.8125	-2.2606542	0.6927632	0.62532765
1276877648449	-3.9090397	4.372132	7.246025	-0.4845791	0.0	34.5	-24.9375	-22.0625	-2.68335	0.8903591	0.7295353
1276877648489	-3.5957718	4.0180025	7.1234417	-0.87259483	0.0	32.75	-24.6875	-25.25	-2.7010117	0.92286783	0.7299987
1276877648529	-3.214402	6.4015636	7.273266	0.40181732	0.0	31.5625	-24.1875	-27.4375	-1.915924	0.7930174	0.46534824
1276877648569	-2.5606253	5.7886477	6.782933	-0.5290737	0.0	30.0625	-22.9375	-29.1875	-1.8033831	0.81994814	0.41647643
1276877648609	-2.2609777	5.325556	7.6273947	-0.23321247	0.0	29.5625	-22.6875	-30.4375	-1.9564507	0.92185616	0.4014915
1276877648649	-2.070293	4.7535014	7.8180795	-0.42559147	0.0	29.0625	-22.1875	-30.6875	-2.068507	0.9852131	0.41075584
1276877648689	-2.6014864	5.829509	8.008764	0.43499088	0.0	28.8125	-21.9375	-31.1875	-1.8726116	0.89783704	0.4197408
1276877648729	-3.5276701	7.014479	8.962189	2.1083908	0.0	28.5625	-22.6875	-31.625	-1.829696	0.8513556	0.46597502
1276877648769	-1.879608	4.099725	6.0474343	-2.2626371	0.0	27.5625	-23.1875	-32.125	-1.9921974	0.9300006	0.4298767
1276877648809	-2.3426998	4.944186	7.082581	-0.8570032	0.0	27.0625	-24.6875	-32.125	-2.0484478	0.91306484	0.44249266
1276877648849	-2.7513103	5.6660647	7.246025	-0.20566654	0.0	26.8125	-25.625	-31.875	-1.9615355	0.8552225	0.45204273
1276877648889	-2.4108016	6.2108784	6.1291566	-0.7538309	0.0	26.8125	-26.375	-31.1875	-1.5878522	0.74373853	0.37025622
1276877648929	-1.4165162	6.1291566	5.7886477	-1.2578773	0.0	27.3125	-27.125	-29.6875	-1.5812358	0.74385816	0.22712342
1276877649129	-3.2961242	7.8589406	7.668256	1.6576223	0.0	26.8125	-27.875	-28.6875	-1.7693152	0.732705	0.39712697
1276877649169	-1.1441092	7.7772183	5.7477865	-0.068520546	0.0	27.0625	-29.375	-26.25	-1.4948735	0.63135016	0.14606269
1276877649209	-2.9147544	7.8861814	5.47538	0.22666645	0.0	27.3125	-30.875	-23.75	-1.6423948	0.57724786	0.35403046
1276877649249	-3.3642259	7.8180795	5.2165933	0.17599583	0.0	27.5625	-32.5625	-21.5625	-1.8026998	0.54985803	0.40636268
1276877649290	-3.1463003	7.5456724	5.053149	-0.19568253	0.0	28.8125	-33.5625	-19.0625	-1.9781852	0.55361897	0.39504743
1276877649330	-3.1463003	8.076866	4.0588636	-0.2353735	0.0	29.8125	-33.5625	-17.875	-1.6770091	0.43793154	0.37146083
1276877649369	-3.568531	7.9270425	4.7943625	0.12100506	0.0	30.5625	-33.0625	-16.375	-1.984647	0.5039977	0.4229968
1276877649399	-4.0588636	7.5865335	5.47538	0.39186287	0.0	31.8125	-32.8125	-15.375	-2.2721953	0.5667348	0.49126098
1276877649429	-3.6774938	7.5456724	4.944186	-0.064673424	0.0	32.25	-33.3125	-15.375	-2.135518	0.5322967	0.45348832
1276877649490	-3.2961242	7.205164	4.4810944	-0.7039566	0.0	32.0625	-33.3125	-15.125	-2.0685806	0.5147097	0.42904606
1276877649529	-3.568531	7.082581	5.175732	-0.33640385	0.0	31.8125	-33.8125	-15.625	-2.276373	0.57820976	0.46671978
1276877649569	-3.445948	9.275456	4.0180025	0.87290955	0.0	31.3125	-33.5625	-16.375	-1.6142316	0.38572717	0.3557096
1276877649609	-3.759216	8.730643	3.2961242	0.25417805	0.0	31.0625	-32.0625	-16.625	-1.4431132	0.33378297	0.4065851
1276877649649	-2.7921712	7.7363577	4.3312707	-0.5110941	0.0	31.5625	-31.875	-16.875	-1.7813132	0.48470873	0.34636578
1276877649689	-3.336985	7.014479	5.09401	-0.5175533	0.0	32.25	-31.375	-16.875	-2.0939746	0.58043283	0.44404227
1276877649729	-6.0882955	6.4015636	5.829509	0.7777977	0.0	33.0	-31.375	-16.625	-2.9393883	0.5832766	0.7603216
1276877649769	-4.630918	6.510526	5.5571017	-0.074552536	0.0	33.25	-32.0625	-15.875	-2.5580814	0.6077327	0.6182677
1276877649809	-3.214402	6.510526	6.1291566	-0.3047619	0.0	33.0	-32.3125	-15.875	-2.3784852	0.7010837	0.45861408
1276877649849	-2.9556155	6.891896	4.862464	-0.8692312	0.0	32.75	-32.5625	-16.125	-2.0859702	0.57526463	0.4051303
1276877649889	-4.5628166	9.193735	4.903325	1.5681753	0.0	31.8125	-33.3125	-15.625	-1.912034	0.44567627	0.46068028
1276877649929	-3.9090397	8.499097	4.099725	0.40721226	0.0	31.5625	-33.5625	-15.625	-1.7872609	0.41303208	0.43108582
1276877649969	-3.5276701	6.8237944	3.445948	-1.387435	0.0	31.3125	-34.0625	-14.625	-1.9553381	0.4216819	0.47712815
1276877650009	-4.0588636	7.7363577	3.8273177	-0.2686224	0.0	30.8125	-34.8125	-13.4375	-2.0522964	0.41290218	0.48317093
1276877650059	-4.9850473	9.425281	4.399372	1.7276936	0.0	31.0625	-35.0625	-11.9375	-2.0901282	0.39132658	0.48650077
1276877650099	-4.7535014	9.80665	4.7943625	2.0993176	0.0	30.3125	-36.0625	-10.4375	-2.2240686	0.414449	0.45135087
1276877650139	-3.255263	8.962189	3.6774938	0.41301346	0.0	29.5625	-37.5625	-9.75	-2.0214326	0.36810166	0.34840488
1276877650179	-1.7570249	7.5456724	2.2609777	-1.7359419	0.0	28.3125	-39.0625	-9.0	-1.7719927	0.28394634	0.2287754
1276877650219	-1.0351465	6.891896	1.3756552	-2.7029762	0.0	26.0625	-40.0	-10.0	-1.5002804	0.19488533	0.14908323
1276877650259	-0.10896278	5.7886477	1.7297841	-3.7640953	0.0	24.125	-40.5	-13.4375	-1.5214581	0.29032853	0.018821307
1276877650299	-0.14982383	4.5628166	1.6480621	-4.953007	0.0	19.875	-38.3125	-19.3125	-1.3112125	0.3464401	0.03282403
1276877650339	0.8036005	3.0645783	7.668256	-1.5096893	0.0	13.9375	-33.0625	-27.4375	-2.1968844	1.1790001	-0.25644842
1276877650379	5.7477865	0.040861044	14.941522	6.202341	0.0	8.0	-26.375	-35.375	-0.9232118	1.2035528	-1.5636874
1276877650419	5.9793324	-0.61291564	15.704261	7.0085773	0.0	2.5625	-20.4375	-40.75	-0.81558067	1.2052563	-1.6729453
1276877650459	4.0180025	2.5333846	12.4489975	3.5177603	0.0	-0.4375	-16.75	-43.0	-1.1263379	1.2062906	-1.0082457
1276877650499	3.1054392	3.336985	8.117727	-0.49661732	0.0	-1.1875	-17.25	-42.75	-0.868146	1.0591369	-0.74947286
1276877650539	3.1054392	2.7649305	6.510526	-2.0816555	0.0	-1.1875	-20.4375	-41.25	-0.96615624	1.0024407	-0.8433379
1276877650579	3.5957718	2.4925237	6.932757	-1.6087618	0.0	-1.1875	-23.6875	-39.3125	-1.1352941	1.0078304	-0.96466094
1276877650609	4.2495484	2.7921712	7.9270425	-0.38895988	0.0	-1.4375	-26.875	-38.3125	-1.247851	1.0004579	-0.98948014
1276877650649	4.2086873	2.8738933	8.430995	0.044947624	0.0	-1.1875	-29.125	-37.3125	-1.3845072	1.0270948	-0.97167486
1276877650689	4.099725	3.568531	9.152874	0.8384075	0.0	-0.1875	-30.625	-36.3125	-1.5216182	1.0349245	-0.8545595
1276877650729	3.3778462	4.2495484	8.853226	0.57834435	0.0	0.5625	-32.0625	-35.375	-1.6979765	1.0207527	-0.6716062
1276877650769	3.0237172	4.903325	7.8589406	-0.06250286	0.0	1.8125	-33.0625	-34.125	-1.663425	0.9382578	-0.55258435
1276877650809	2.4516625	4.862464	7.504812	-0.53430367	0.0	2.5625	-34.0625	-33.375	-1.7984419	0.94308823	-0.46700335
1276877650849	2.4516625	5.47538	7.6273947	-0.102651596	0.0	2.8125	-34.5625	-33.375	-1.7635503	0.9043207	-0.42099056
1276877650889	1.7297841	6.3198414	8.430995	0.87109375	0.0	3.3125	-34.5625	-32.875	-1.9878489	0.91013366	-0.2671636
1276877650929	1.6889231	6.4424243	8.049625	0.6410179	0.0	3.3125	-35.0625	-33.375	-1.9056435	0.87957966	-0.2563869
1276877650969	1.879608	6.3607025	7.9679036	0.56055546	0.0	2.8125	-34.8125	-33.875	-1.8331934	0.8766001	-0.28732622
1276877651009	1.920469	5.6252036	8.281172	0.38692188	0.0	2.8125	-34.0625	-34.125	-1.9566026	0.9482418	-0.3289968
1276877651049	2.4108016	5.284695	8.117727	0.17520714	0.0	3.0625	-34.0625	-34.875	-1.7958685	0.94971246	-0.42798594
1276877651089	2.6423476	5.012288	7.8589406	-0.11810112	0.0	2.8125	-33.5625	-34.125	-1.7380104	0.94612885	-0.48514968
1276877651129	2.2609777	4.862464	7.6273947	-0.48287773	0.0	3.5625	-33.5625	-33.375	-1.8226407	0.9580277	-0.43524617
1276877651169	2.3018389	5.47538	8.117727	0.25196552	0.0	3.75	-34.8125	-32.625	-1.882551	0.9391259	-0.39796627
1276877651209	1.7978859	5.366417	7.504812	-0.40702152	0.0	4.5	-35.3125	-31.875	-1.9627328	0.9246595	-0.32327265
1276877651249	1.56634	5.5162406	7.4639506	-0.39426994	0.0	5.0	-35.8125	-32.375	-1.990553	0.915706	-0.27666834
1276877651289	1.6480621	4.944186	7.6954966	-0.51247215	0.0	4.5	-34.8125	-32.875	-2.0393417	0.9755155	-0.32175055
1276877651329	1.9885708	4.6036777	8.240311	-0.16035652	0.0	4.25	-33.0625	-33.625	-1.9615438	1.0240993	-0.40774482
1276877651369	2.9147544	4.4810944	9.084772	0.7341795	0.0	2.5625	-31.625	-34.625	-1.778387	1.0389359	-0.5766957
1276877651409	3.173541	4.1814466	8.62168	0.28736973	0.0	1.8125	-30.625	-35.375	-1.6460031	1.0238899	-0.64920944
1276877651449	3.2961242	4.399372	8.349273	0.18981266	0.0	1.0625	-31.125	-35.5625	-1.6074955	0.98853767	-0.6430056
1276877651489	3.214402	4.399372	8.390134	0.19740963	0.0	0.0625	-31.875	-35.375	-1.6915289	0.99484193	-0.6310018
1276877651529	3.486809	4.2086873	8.19945	0.047377586	0.0	-0.1875	-32.0625	-35.375	-1.6211442	0.9828675	-0.6918666
1276877651569	3.486809	4.2495484	8.580819	0.38388252	0.0	-0.4375	-32.3125	-35.375	-1.6788088	1.001051	-0.6871242
1276877651609	3.2961242	4.399372	8.771504	0.54507446	0.0	0.0625	-32.0625	-35.375	-1.7214128	1.0109696	-0.6430056
1276877651649	3.1054392	4.5628166	9.152874	0.88157463	0.0	0.8125	-31.875	-35.5625	-1.7727728	1.0281618	-0.5975848
1276877651689	2.7240696	4.2495484	9.00305	0.51488686	0.0	1.3125	-31.875	-36.0625	-1.8451748	1.0598019	-0.57004046
1276877651729	2.4516625	4.0180025	8.158588	-0.3876505	0.0	1.5625	-31.875	-35.8125	-1.8409659	1.0475152	-0.54786354
1276877651769	2.152015	4.0588636	7.7363577	-0.80905247	0.0	2.0625	-31.875	-36.0625	-1.8591893	1.0349265	-0.48751575
1276877651809	2.3426998	4.4810944	7.7363577	-0.56437397	0.0	2.3125	-31.875	-36.0625	-1.7483728	0.9918908	-0.48171794
1276877651849	2.6423476	4.8216033	8.117727	-0.0021944046	0.0	3.0625	-31.625	-35.5625	-1.671153	0.97546554	-0.50132376
1276877651889	2.6423476	4.862464	8.539958	0.36961842	0.0	3.75	-31.375	-35.375	-1.7010819	0.9958165	-0.49777535
1276877651929	2.4516625	4.9850473	9.084772	0.8420315	0.0	4.0	-31.875	-34.625	-1.8379639	1.021967	-0.4570687
1276877651969	2.4516625	5.2165933	8.689782	0.6209965	0.0	4.5	-32.5625	-34.375	-1.7883828	0.9851241	-0.4393395
1276877652009	2.1792557	5.284695	8.158588	0.15526295	0.0	5.0	-34.0625	-33.625	-1.8439902	0.95962787	-0.39112547
1276877652049	1.6889231	5.434519	8.049625	0.05148983	0.0	5.5	-35.8125	-32.125	-2.039815	0.9554024	-0.30131435
1276877652089	1.607201	5.7886477	7.6954966	-0.043852806	0.0	6.0	-37.3125	-30.4375	-2.057639	0.9079552	-0.2708255
1276877652129	1.3756552	5.7477865	7.8589406	0.026579857	0.0	6.5	-38.3125	-28.1875	-2.2225997	0.92600083	-0.23491754
1276877652169	1.4982382	5.7477865	7.9270425	0.09889221	0.0	7.0	-39.5	-27.0	-2.2306166	0.92773426	-0.25498945
1276877652209	1.2666923	5.829509	7.246025	-0.42088604	0.0	7.25	-39.5	-27.0	-2.2078998	0.8820178	-0.21396369
1276877652249	1.1849703	5.7886477	7.7772183	-0.039474487	0.0	7.75	-39.25	-27.4375	-2.2615376	0.9210887	-0.20191632
1276877652289	1.1849703	5.7477865	7.8589406	0.0017213821	0.0	8.0	-39.25	-28.6875	-2.2351613	0.9293785	-0.20331265
1276877652329	1.2666923	5.597963	7.6273947	-0.26103115	0.0	7.75	-38.0625	-29.6875	-2.1503987	0.92570794	-0.22252992
1276877652369	1.4573772	5.434519	8.008764	-0.018992424	0.0	7.5	-37.5625	-30.6875	-2.1229148	0.9583626	-0.26200578
1276877652409	1.4573772	5.2165933	8.049625	-0.10442066	0.0	7.0	-36.8125	-31.1875	-2.131038	0.97851205	-0.27242753
1276877652449	1.6889231	5.053149	8.158588	-0.062455177	0.0	6.5	-35.8125	-31.625	-2.064259	0.99228364	-0.32255894
1276877652490	1.7570249	4.8216033	8.008764	-0.2947998	0.0	6.25	-34.8125	-32.375	-2.0059757	1.0009382	-0.34945127
1276877652530	1.7297841	4.8216033	8.349273	-0.011223793	0.0	6.0	-34.0625	-32.875	-2.0266876	1.0204899	-0.3444548
1276877652570	1.879608	4.903325	9.152874	0.74563026	0.0	6.0	-33.0625	-33.875	-2.003665	1.0499201	-0.36605653
1276877652609	1.9885708	4.440233	9.043911	0.46283913	0.0	5.5	-32.5625	-34.625	-1.9725931	1.0772499	-0.42106688
1276877652649	1.7978859	4.3312707	9.275456	0.58692455	0.0	5.25	-32.0625	-35.125	-2.044284	1.1026852	-0.39345065
1276877652689	1.4573772	4.0588636	9.152874	0.31132507	0.0	4.75	-30.875	-35.5625	-2.1466599	1.130476	-0.34472352
1276877652729	1.5390993	3.336985	8.349273	-0.6844435	0.0	4.25	-29.875	-36.8125	-2.0434546	1.156175	-0.43214893
1276877652769	2.1111538	2.4516625	9.112013	-0.13729668	0.0	4.0	-27.875	-37.8125	-1.7929641	1.229615	-0.71090937
1276877652809	2.4925237	1.8387469	10.038197	0.69854164	0.0	3.3125	-26.375	-38.8125	-1.612632	1.2715068	-0.93521065
1276877652849	1.7978859	2.2609777	9.615966	0.23382854	0.0	2.8125	-25.125	-39.75	-1.8811555	1.2789694	-0.6717954
1276877652889	2.5606253	2.6014864	8.580819	-0.48168468	0.0	1.8125	-23.4375	-40.25	-1.483306	1.1685871	-0.77748275
1276877652929	2.1111538	3.1463003	9.112013	0.06173134	0.0	0.8125	-22.6875	-40.75	-1.6704603	1.176727	-0.5909936
1276877652969	2.3699405	2.5333846	9.112013	-0.056602478	0.0	0.3125	-21.6875	-41.5	-1.5598952	1.2070228	-0.75207716
1276877653009	2.6423476	2.152015	9.534244	0.3183174	0.0	0.3125	-20.6875	-41.75	-1.4495612	1.2275189	-0.8873165
1276877653049	2.3018389	1.7297841	9.425281	0.048628807	0.0	0.3125	-20.1875	-42.25	-1.510588	1.274309	-0.9263492
1276877653089	2.8738933	1.5390993	9.193735	-0.052017212	0.0	1.0625	-19.4375	-43.25	-1.2083195	1.2300315	-1.0791186
1276877653129	2.4108016	1.4165162	8.771504	-0.6002512	0.0	1.3125	-18.9375	-43.6875	-1.2734828	1.2622029	-1.0395662
1276877653169	1.607201	0.7627395	9.765789	0.11985493	0.0	1.5625	-18.4375	-44.1875	-1.482668	1.3906046	-1.1276938
1276877653209	2.8330324	0.84446156	10.760075	1.3521309	0.0	2.5625	-17.9375	-44.4375	-1.0965573	1.3026727	-1.2811048
1276877653249	3.0237172	1.5390993	8.689782	-0.47798443	0.0	2.3125	-17.5	-44.1875	-1.0038952	1.1985533	-1.0999675
1276877653289	3.0645783	1.7297841	10.419566	1.1911297	0.0	2.3125	-17.25	-44.1875	-1.1104108	1.2450887	-1.056931
1276877653329	3.0237172	1.4573772	11.223166	1.907712	0.0	2.3125	-16.75	-44.4375	-1.1214267	1.2801851	-1.1216668
1276877653369	1.4165162	1.1441092	10.841797	1.1869869	0.0	1.3125	-16.0	-44.6875	-1.6837945	1.4044019	-0.8913825
1276877653409	-0.14982383	1.607201	10.760075	1.0738258	0.0	0.8125	-14.5	-44.9375	3.0718517	1.421892	0.09295171
1276877653449	-0.38136974	-1.879608	7.3141265	-2.2452474	0.0	0.5625	-12.0	-45.4375	0.12817022	1.3143504	2.9414115
1276877653489	1.334794	-4.5628166	6.6331096	-1.6458225	0.0	-0.9375	-9.3125	-45.9375	-0.10357103	0.9489403	-2.8569963
1276877653529	5.5162406	-6.973618	6.932757	1.4682503	0.0	-1.6875	-6.3125	-45.9375	-0.1348237	0.66223896	-2.4723542
1276877653569	5.366417	-3.1054392	5.5162406	-1.5077896	0.0	-1.6875	-4.0625	-46.1875	-0.12436341	0.72709024	-2.095392
1276877653609	2.1111538	-1.1441092	5.366417	-3.9275017	0.0	-1.4375	-3.125	-45.9375	-0.17902103	1.1500591	-2.067427
1276877653649	-0.10896278	-1.6889231	10.501288	0.8301439	0.0	1.0625	-2.375	-45.1875	0.12752023	1.4110059	3.0771658
1276877653689	0.313268	-1.7978859	5.7886477	-3.7371383	0.0	5.5	-1.125	-44.4375	0.32872355	1.2653918	-2.969082
1276877653729	-0.10896278	-2.4108016	3.568531	-5.4987216	0.0	10.5	1.125	-42.5	0.4346443	0.9761801	3.0964258
1276877653769	-1.6889231	-2.2609777	5.7886477	-3.3667026	0.0	14.9375	3.5625	-41.5	0.9138309	1.117174	2.500022
1276877653809	-0.19068487	0.5720546	10.337844	0.5487652	0.0	18.625	3.5625	-40.25	-1.5794168	1.5125331	0.32175052
1276877653849	-4.7943625	0.8036005	10.310603	1.5924826	0.0	20.375	0.875	-39.5	-1.847131	1.1302239	1.4047264
1276877653889	-7.246025	2.3699405	12.489859	4.826124	0.0	20.375	-3.8125	-39.5	-0.72834295	1.0227685	1.2546954
1276877653929	-7.8861814	1.3075534	9.234595	2.4072475	0.0	20.125	-8.8125	-38.3125	0.5418488	0.85729164	1.406488
1276877653969	-8.880466	0.46309182	7.7772183	2.006997	0.0	20.875	-12.5	-36.5625	0.7058797	0.7185912	1.5186963
1276877654009	-11.032481	0.9942854	4.3312707	2.0872202	0.0	22.375	-15.0	-33.375	0.52204514	0.37273058	1.4809157
1276877654049	-9.00305	2.7240696	5.09401	0.8902836	0.0	24.875	-17.0	-29.6875	0.6305335	0.49634203	1.2769817
1276877654089	-8.240311	3.718355	7.5865335	1.9952297	0.0	27.5625	-18.6875	-25.75	1.8060985	0.6981794	1.146912
1276877654129	-9.956474	5.829509	5.134871	2.8219461	0.0	29.3125	-20.6875	-21.5625	0.53234303	0.41873673	1.0411074
1276877654169	-10.501288	5.6252036	0.27240697	2.1094809	0.0	29.0625	-22.9375	-18.375	0.3547637	0.022862343	1.0790231
1276877654209	-15.091345	5.434519	-2.982856	6.508377	0.0	28.5625	-24.6875	-16.125	0.54609615	-0.18386292	1.2251449
1276877654249	-9.847511	4.140586	-0.7218784	0.9003124	0.0	27.8125	-26.375	-14.4375	0.6774561	-0.067472585	1.1727686
1276877654289	-9.043911	3.486809	2.4108016	0.18144894	0.0	26.5625	-27.375	-14.1875	1.2445488	0.24377468	1.2028154
1276877654329	-9.084772	2.5606253	2.6423476	-0.0050239563	0.0	26.5625	-27.375	-13.9375	1.3385613	0.27295953	1.2960645
1276877654369	-10.147159	3.214402	4.7535014	1.8506651	0.0	26.5625	-27.875	-13.4375	1.6508689	0.42001024	1.2640183
1276877654419	-8.240311	5.053149	5.2165933	1.1774235	0.0	26.8125	-27.375	-13.1875	2.146293	0.49487692	1.0207106
1276877654459	-8.240311	5.829509	0.88532263	0.3259554	0.0	27.8125	-26.875	-11.9375	0.6021241	0.0874852	0.9550958
1276877654500	-10.528529	6.2108784	1.920469	2.5672398	0.0	29.0625	-27.125	-10.0	1.1492572	0.15583329	1.0378294
1276877654539	-12.5579605	5.6660647	2.5606253	4.2063255	0.0	30.5625	-26.375	-8.75	1.4382125	0.18376498	1.1469507
1276877654609	-3.5276701	2.8330324	-0.0	-5.282213	0.0	32.0625	-26.125	-7.5	0.039065238	-0.0	0.8941748
1276877654649	-9.302697	1.1849703	-4.2086873	0.47232723	0.0	33.0	-25.625	-6.25	0.80503327	-0.42184687	1.4440994
1276877654689	-9.152874	4.2086873	-4.2495484	1.1270962	0.0	33.0	-25.625	-5.8125	0.42163503	-0.39918065	1.139805
1276877654729	-9.043911	4.2904096	0.3405087	0.2091322	0.0	33.25	-26.375	-5.0625	1.2063503	0.034003764	1.1278396
1276877654769	-8.853226	3.7864566	1.1849703	-0.105051994	0.0	33.25	-26.625	-4.8125	1.5915194	0.12244752	1.1666474
1276877654809	-7.8589406	3.9499009	2.1111538	-0.7611189	0.0	33.25	-27.125	-6.0625	1.9660271	0.23556447	1.1050712
1276877654849	-9.302697	3.486809	1.2666923	0.20846462	0.0	33.75	-27.125	-7.75	1.3893577	0.12681772	1.2121861
1276877654889	-8.499097	3.5276701	1.6480621	-0.4581089	0.0	33.5	-26.125	-10.0	1.3424315	0.17721698	1.1773715
1276877654929	-7.8861814	4.5628166	4.7535014	0.46987343	0.0	33.5	-25.625	-12.6875	2.5533128	0.4808797	1.0462729
1276877654969	-7.7772183	3.636633	9.697687	3.1453915	0.0	32.5	-24.9375	-15.375	2.7216356	0.84615636	1.1334023
1276877655009	-7.3549876	1.2666923	5.5571017	-0.5017195	0.0	31.5625	-23.1875	-18.8125	1.8928657	0.6400321	1.4002471
1276877655049	-9.112013	0.6537767	-0.38136974	-0.66325665	0.0	31.5625	-22.1875	-20.0625	0.74782115	-0.041721974	1.4991702
1276877655089	-10.310603	2.3018389	1.8387469	0.91659546	0.0	32.0625	-21.4375	-19.3125	0.8255584	0.1723246	1.3511485
1276877655129	-8.19945	3.486809	2.6832085	-0.5013609	0.0	33.75	-21.4375	-17.375	0.8917755	0.29250637	1.1687146
1276877655169	-10.651112	4.1814466	0.92618364	1.6732664	0.0	35.5	-22.4375	-14.4375	0.62089473	0.08076639	1.1967001
1276877655209	-10.079058	2.152015	1.334794	0.58566666	0.0	36.25	-22.9375	-12.1875	1.1351554	0.12879626	1.3604414
1276877655249	-1.0351465	0.46309182	0.6537767	-8.497679	0.0	36.75	-23.9375	-10.4375	2.6438847	0.5229735	1.150133
1276877655289	-1.7570249	3.0645783	-2.9147544	-5.22685	0.0	36.5	-24.9375	-9.0	-0.53819275	-0.6898702	0.5205808
1276877655329	-12.830367	7.7363577	-1.1168685	5.217229	0.0	35.0	-27.875	-6.5	0.5351638	-0.0744082	1.0281941
1276877655369	-9.847511	8.662541	0.040861044	3.3087902	0.0	33.0	-31.875	-5.5625	0.37556148	0.0031154966	0.8493286
1276877655409	-6.0201936	7.0553403	-1.0760075	-0.46971607	0.0	29.5625	-36.0625	-4.5625	0.092584915	-0.11549868	0.7063963
1276877655449	-3.5957718	9.615966	-0.27240697	0.4632368	0.0	25.3125	-40.0	-3.8125	-1.0915537	-0.026527938	0.357839
1276877655489	-8.349273	8.580819	-0.6537767	2.18369	0.0	21.875	-41.75	-3.8125	1.1342018	-0.054552335	0.7717224
1276877655519	-4.140586	7.6954966	-1.8387469	-0.87658215	0.0	18.625	-43.25	-3.5625	0.30172053	-0.20738858	0.49362472
1276877655549	-4.944186	7.8589406	-1.1441092	-0.45160294	0.0	16.6875	-44.0	-3.3125	0.8060243	-0.122605555	0.5615537
1276877655589	-4.2904096	7.5456724	-0.88532263	-1.08148	0.0	14.9375	-44.25	-2.8125	0.8730935	-0.101642594	0.5170052
1276877655629	-4.440233	7.504812	-1.607201	-0.9398041	0.0	13.9375	-44.5	-3.0625	0.75911146	-0.18226711	0.5342583
1276877655669	-4.5628166	8.812365	-1.1849703	0.1874094	0.0	12.4375	-44.25	-2.5625	0.8678278	-0.11884705	0.4777658
1276877655709	-4.0588636	8.921328	-1.0760075	0.053483963	0.0	10.6875	-43.75	-2.8125	0.833147	-0.109344825	0.42697254
1276877655749	-2.8738933	7.246025	-1.7297841	-1.8218961	0.0	9.0	-43.75	-3.5625	0.5381269	-0.21836717	0.3775862
1276877655779	-2.0294318	7.246025	-1.4573772	-2.1419635	0.0	6.75	-43.5	-3.8125	0.40951118	-0.19130656	0.2730784
1276877655819	-2.6014864	7.014479	-1.3075534	-2.2118921	0.0	5.5	-43.5	-4.3125	0.7099808	-0.17302732	0.3551483
1276877655859	-4.099725	11.304889	-0.6537767	2.2364254	0.0	4.25	-43.5	-4.3125	1.0233562	-0.054313224	0.3479001
1276877655899	-4.0588636	13.33432	0.6946377	4.1490297	0.0	3.75	-42.5	-3.5625	1.4039617	0.04979513	0.2954815
1276877655939	-3.8273177	10.269742	0.040861044	1.1531687	0.0	3.3125	-42.5	-2.8125	1.3479657	0.0037282675	0.3567343
1276877655979	-3.7864566	8.349273	-0.9942854	-0.58514214	0.0	2.5625	-42.25	-0.875	1.2434579	-0.10803245	0.42576683
1276877656019	-2.5333846	9.343558	-1.525479	-0.0062828064	0.0	1.5625	-42.5	0.625	1.0255833	-0.15629078	0.26477128
1276877656059	-2.1792557	8.662541	-1.1168685	-0.80464077	0.0	0.3125	-43.0	1.125	1.1909814	-0.12438932	0.24645795
1276877656099	-2.1111538	9.425281	-1.2666923	-0.0651207	0.0	-0.4375	-42.5	1.875	1.2231202	-0.13039936	0.22035141
1276877656130	-1.6889231	8.771504	-1.4573772	-0.7559204	0.0	-0.6875	-42.25	1.625	1.0425403	-0.16172726	0.19021864
1276877656169	-2.0294318	8.349273	-1.3756552	-1.104847	0.0	-0.4375	-42.25	1.625	1.1330571	-0.15875453	0.23844282
1276877656209	-2.0294318	7.9679036	-1.56634	-1.4364948	0.0	-0.4375	-42.0	1.875	1.080877	-0.18824372	0.24939808
1276877656249	-0.61291564	7.5865335	-1.7570249	-1.9952297	0.0	-1.6875	-42.25	2.0625	0.59996784	-0.22687148	0.08061486
1276877656289	-0.50395286	8.730643	-1.6480621	-0.90753746	0.0	-3.875	-42.5	2.3125	0.85054797	-0.18626925	0.057658322
1276877656339	0.6537767	7.273266	-1.7297841	-2.3019867	0.0	-6.625	-42.0	2.8125	0.38314065	-0.23258589	-0.08964672
1276877656379	0.313268	14.015338	-1.0351465	4.250354	0.0	-9.125	-42.0	3.5625	1.625206	-0.07370591	-0.022348078
1276877656419	0.92618364	10.56939	-1.7978859	0.9544935	0.0	-10.625	-41.75	4.3125	1.1809169	-0.1678592	-0.0874056
1276877656459	1.1168685	11.141444	-1.7297841	1.5234575	0.0	-11.5625	-41.5	4.3125	1.2782477	-0.15327086	-0.09991073
1276877656499	0.6946377	9.112013	-1.879608	-0.4769001	0.0	-12.3125	-41.5	4.5625	1.1524086	-0.20285226	-0.076086015
1276877656529	1.0351465	9.275456	-1.56634	-0.34308624	0.0	-12.5625	-41.25	4.5625	1.2627963	-0.16627786	-0.11114072
1276877656569	0.7627395	10.923519	-1.7570249	1.283534	0.0	-12.3125	-40.75	3.8125	1.2814139	-0.159101	-0.06971229
1276877656609	1.3756552	11.495573	-1.879608	1.9225245	0.0	-11.5625	-40.5	4.3125	1.224317	-0.1609446	-0.119101875
1276877656649	0.92618364	10.18802	-1.334794	0.5100956	0.0	-10.8125	-40.75	3.5625	1.3158654	-0.129745	-0.090659894
1276877656689	0.3405087	8.62168	-1.4982382	-1.0491371	0.0	-11.0625	-40.75	2.8125	1.1462564	-0.17192605	-0.039473955
1276877656729	0.88532263	8.076866	-1.3756552	-1.5657768	0.0	-11.8125	-41.0	2.3125	0.9934965	-0.16771592	-0.10917629
1276877656769	0.27240697	9.112013	-1.7297841	-0.52790356	0.0	-12.0625	-41.25	1.875	1.0709248	-0.18752141	-0.029886466
1276877656809	0.7627395	8.390134	-2.7240696	-0.9524603	0.0	-12.8125	-41.25	2.0625	0.68562615	-0.31273153	-0.090659894
1276877656849	0.38136974	10.119919	-3.3642259	0.86462975	0.0	-13.3125	-41.75	2.0625	0.8017427	-0.32073042	-0.037667233
1276877656889	1.7297841	9.656827	-2.4925237	0.31556034	0.0	-13.3125	-42.5	3.0625	0.61685467	-0.24880199	-0.17724577
1276877656929	2.3426998	10.038197	-2.5606253	0.8145752	0.0	-14.0625	-42.75	3.8125	0.5103423	-0.24348438	-0.22927481
1276877656969	1.920469	8.499097	-1.7570249	-0.91789436	0.0	-13.8125	-42.75	5.0625	0.80668217	-0.19897866	-0.22222945
1276877657009	1.3075534	10.147159	-1.7570249	0.57418156	0.0	-13.3125	-42.5	5.5625	1.3261554	-0.1700754	-0.12815286
1276877657049	1.5390993	9.956474	-1.7297841	0.4154997	0.0	-13.5625	-42.5	5.5625	1.2923288	-0.1700374	-0.15336883
1276877657089	1.0351465	9.275456	-1.8387469	-0.2942047	0.0	-13.3125	-43.25	4.8125	1.1403521	-0.19452354	-0.11114071
1276877657131	1.879608	9.765789	-2.1383946	0.36567974	0.0	-14.0625	-44.0	3.3125	0.70905066	-0.2117967	-0.19014347
1276877657169	2.4925237	10.651112	-2.4108016	1.3947258	0.0	-14.8125	-44.75	3.0625	0.5360652	-0.21692091	-0.22987863
1276877657209	2.4925237	10.147159	-2.7921712	1.0087891	0.0	-15.8125	-46.0	2.8125	0.4209532	-0.26112267	-0.24086869
1276877657249	2.3018389	9.343558	-2.3426998	0.097328186	0.0	-17.8125	-46.4375	3.3125	0.6317581	-0.23880455	-0.24154581
1276877657289	2.6423476	8.008764	-2.070293	-1.1228485	0.0	-19.5	-46.9375	4.3125	0.44977844	-0.24072686	-0.31868622
1276877657329	2.4108016	9.043911	-2.1792557	-0.19657993	0.0	-21.75	-47.4375	5.8125	0.97196424	-0.22875787	-0.26050866
1276877657369	2.1792557	8.049625	-2.1383946	-1.1974487	0.0	-23.75	-47.4375	7.25	1.0605814	-0.2510124	-0.26438987
1276877657409	2.5333846	7.7772183	-2.6014864	-1.2234745	0.0	-25.9375	-47.4375	9.25	0.9393553	-0.30793497	-0.31490493
1276877657449	0.6537767	9.507003	-1.1168685	-0.21196842	0.0	-27.6875	-47.6875	10.6875	1.7676241	-0.11666946	-0.06865981
1276877657490	-1.4982382	6.5922484	0.19068487	-3.043602	0.0	-27.6875	-48.1875	11.4375	1.8931525	0.028198842	0.22347659
1276877657529	0.5720546	13.756551	-0.6537767	3.9773026	0.0	-27.6875	-48.9375	10.6875	1.8840376	-0.04744808	-0.041560218
1276877657559	2.5333846	7.7772183	-3.9499009	-0.72343063	0.0	-26.9375	-50.4375	9.5	0.5602278	-0.44987938	-0.31490496
1276877657600	2.5606253	4.2904096	-1.2666923	-4.652145	0.0	-25.1875	-51.4375	9.0	-0.7287007	-0.24828787	-0.53808194
1276877657639	4.0180025	16.249075	-0.95342433	6.9589634	0.0	-24.5	-52.4375	8.5	2.0097723	-0.056898545	-0.24241304
1276877657679	2.4925237	8.730643	-3.173541	-0.18853378	0.0	-23.75	-52.6875	9.25	0.69047505	-0.3362554	-0.27809358
1276877657719	0.7627395	9.00305	-1.1849703	-0.69397545	0.0	-23.75	-52.4375	9.25	1.6803619	-0.13040467	-0.08451829
1276877657759	0.8036005	9.275456	-0.29964766	-0.49162674	0.0	-24.9375	-52.1875	9.25	1.924211	-0.032173764	-0.086421505
1276877657789	2.3426998	9.112013	-1.7570249	-0.23564434	0.0	-26.1875	-51.6875	8.75	1.4288238	-0.18462494	-0.2516499
1276877657829	3.1054392	9.888372	-1.6480621	0.68809986	0.0	-26.9375	-51.6875	8.25	1.4864255	-0.15768951	-0.30429596
1276877657869	2.3699405	9.234595	-0.7627395	-0.24233437	0.0	-27.4375	-50.6875	8.5	1.8504459	-0.07983323	-0.2512156
1276877657909	3.214402	9.915613	-0.7218784	0.6419325	0.0	-27.9375	-49.4375	7.75	1.9012823	-0.06914373	-0.31348625
1276877657949	3.718355	8.771504	-0.42223078	-0.2702074	0.0	-27.4375	-48.6875	7.5	2.2481189	-0.04428998	-0.4009496
1276877657989	5.5162406	8.308413	0.313268	0.17116356	0.0	-26.4375	-47.4375	7.75	-2.7220023	0.031401616	-0.5861086
1276877658029	5.2165933	10.378705	0.6946377	1.8300543	0.0	-24.5	-46.9375	7.0	3.0618103	0.05972919	-0.46574515
1276877658069	2.2609777	12.408136	0.46309182	2.8142977	0.0	-23.0	-46.4375	6.75	2.1107724	0.03670055	-0.18023987
1276877658109	-1.3075534	10.310603	0.7218784	0.6115713	0.0	-22.5	-45.5	7.0	1.9106045	0.06934555	0.12614304
1276877658149	-2.6014864	10.882658	-2.0294318	1.5651827	0.0	-22.75	-44.5	7.25	1.5816866	-0.17942241	0.23464541
1276877658189	0.5720546	15.132206	-1.0760075	5.374545	0.0	-23.75	-43.0	9.0	1.8302401	-0.07093713	-0.037785787
1276877658229	3.3778462	9.888372	-0.95342433	0.6861458	0.0	-24.0	-42.0	11.1875	2.2124646	-0.09099016	-0.32917005
1276877658269	3.7864566	9.956474	-1.3756552	0.9339762	0.0	-24.0	-41.0	13.6875	2.3377445	-0.12843238	-0.36340994
1276877658309	3.1463003	9.956474	-0.9125633	0.674922	0.0	-23.5	-40.0	16.375	2.4448535	-0.08717395	-0.30607527
1276877658349	1.56634	7.082581	0.53119355	-2.533512	0.0	-23.0	-39.5	19.3125	2.5861208	0.07310008	-0.21765059
1276877658389	0.95342433	7.246025	-0.42223078	-2.4859824	0.0	-21.75	-38.5625	22.5625	2.4546137	-0.05770856	-0.1308274
1276877658449	0.9942854	5.5162406	-0.9125633	-4.1277165	0.0	-20.75	-38.0625	25.25	2.5003386	-0.16139245	-0.1783321
1276877658489	0.7627395	5.5571017	-2.2609777	-3.7589092	0.0	-19.25	-37.5625	27.6875	2.2286298	-0.38316187	-0.1364026
1276877658529	3.1463003	8.076866	-3.718355	-0.37472916	0.0	-17.5625	-37.5625	28.4375	2.8704762	-0.40523085	-0.37146083
1276877658569	5.7886477	8.689782	-4.0588636	1.3958101	0.0	-16.3125	-38.3125	28.6875	-2.569743	-0.37075472	-0.58764076
1276877658609	1.334794	15.050485	-3.0237172	5.6024914	0.0	-15.3125	-38.0625	29.1875	2.6246548	-0.19751044	-0.08845634
1276877658649	-0.84446156	12.980191	0.14982383	3.2018442	0.0	-15.5625	-38.3125	29.1875	2.5950289	0.011517638	0.06496616
1276877658689	1.8387469	3.9090397	1.56634	-5.2115436	0.0	-14.8125	-38.0625	30.1875	-3.0755076	0.34784356	-0.43967476
1276877658729	-0.50395286	15.554437	3.0237172	6.0469723	0.0	-13.8125	-37.8125	31.1875	2.762581	0.1919029	0.03238797
1276877658769	-0.84446156	11.495573	-1.9477097	1.8832979	0.0	-12.0625	-38.8125	30.9375	2.590554	-0.16739473	0.07332801
1276877658809	1.879608	9.193735	-1.525479	-0.29955864	0.0	-9.875	-39.5	30.4375	3.0667639	-0.16115358	-0.20166539
1276877658849	1.1168685	8.049625	0.50395286	-1.6643019	0.0	-9.125	-40.5	29.6875	3.0341382	0.0619324	-0.13786767
1276877658889	0.19068487	8.240311	-0.84446156	-1.5209885	0.0	-8.375	-41.75	28.4375	2.84243	-0.10209569	-0.023136366
1276877658929	-0.14982383	8.390134	-1.334794	-1.3096819	0.0	-7.625	-42.5	27.6875	2.7566502	-0.157744	0.017855247
1276877658969	0.61291564	7.6954966	-0.9942854	-2.023018	0.0	-7.625	-42.75	27.0	2.946222	-0.12809053	-0.079478234
1276877659009	1.1168685	7.9679036	-1.3075534	-1.6552954	0.0	-7.125	-43.75	26.25	3.0893617	-0.16110533	-0.13926359
1276877659049	2.1111538	9.302697	-0.8036005	-0.23361969	0.0	-6.625	-44.25	25.5	-2.9889722	-0.08404311	-0.22316018
1276877659089	5.829509	10.800936	-1.920469	2.616376	0.0	-7.125	-44.25	24.5	-2.4459157	-0.15521193	-0.4949184
1276877659132	6.0474343	11.372991	-2.7240696	3.3590975	0.0	-6.625	-45.0	23.75	-2.3256502	-0.20841126	-0.4887133
1276877659169	5.2165933	11.604536	-0.08172209	2.9167452	0.0	-6.125	-45.0	23.25	-2.6310773	-0.006423022	-0.42246345
1276877659209	0.23154591	8.921328	1.1849703	-0.8039923	0.0	-6.125	-45.25	22.5625	2.9687164	0.13200755	-0.025948374
1276877659249	-2.7513103	11.223166	0.42223078	1.7565441	0.0	-5.875	-46.0	23.75	2.559572	0.036523186	0.24040467
1276877659289	-3.568531	17.66559	0.50395286	8.222811	0.0	-6.625	-46.0	25.25	2.6088827	0.027955273	0.19932234
1276877659329	1.920469	12.108489	-0.42223078	2.4604597	0.0	-7.125	-45.0	26.5	-3.1411078	-0.03442654	-0.15729496
1276877659369	3.759216	10.651112	-2.1111538	1.6839914	0.0	-8.125	-43.5	28.4375	-2.8119175	-0.18477778	-0.33929262
1276877659409	2.6014864	8.471856	-1.0351465	-0.8841171	0.0	-7.375	-42.0	29.6875	-2.9300272	-0.116276704	-0.29793397
1276877659449	-0.9125633	5.5571017	0.92618364	-4.0994644	0.0	-6.375	-40.75	30.9375	2.8052995	0.16300465	0.162763
1276877659489	-1.879608	4.6036777	0.50395286	-4.808576	0.0	-4.625	-40.0	32.125	2.6416473	0.10100105	0.3876273
1276877659529	-1.2258313	5.6660647	-1.3756552	-3.8485146	0.0	-2.4375	-39.75	33.125	2.7092736	-0.23298906	0.21306248
1276877659569	0.5720546	5.938472	-2.3018389	-3.4120307	0.0	-1.4375	-39.25	33.375	-3.005423	-0.36823034	-0.09603395
1276877659609	1.4573772	10.038197	-4.3312707	1.2228212	0.0	0.3125	-38.8125	32.875	-2.7714467	-0.40356532	-0.14417581
1276877659649	3.9499009	13.184497	-5.9793324	5.199518	0.0	1.0625	-38.8125	32.625	-2.4679604	-0.4098353	-0.29107764
1276877659689	4.4810944	8.730643	-5.5571017	1.471014	0.0	1.5625	-38.3125	32.625	-2.1348023	-0.51525056	-0.47419965
1276877659729	2.2201166	10.923519	-5.434519	2.5944052	0.0	2.3125	-38.3125	32.375	-2.4852684	-0.45362896	-0.20051081
1276877659779	-0.8036005	11.454713	-0.50395286	1.6872692	0.0	2.5625	-38.3125	32.875	3.1375813	-0.04385923	0.070039816
1276877659819	-2.3018389	2.0294318	-0.53119355	-6.6922927	0.0	1.8125	-38.5625	32.875	2.357719	-0.17140083	0.84820855
1276877659869	2.4925237	16.208214	2.070293	6.7222633	0.0	1.3125	-39.25	31.875	-2.9449506	0.12558265	-0.15258619
1276877659909	0.50395286	9.724928	-3.5957718	0.5739937	0.0	0.8125	-40.0	30.4375	-2.9484205	-0.3537222	-0.051774416
1276877659949	0.61291564	6.3198414	1.3756552	-3.3098445	0.0	0.5625	-40.5	28.4375	-3.019143	0.21335839	-0.0966804
1276877659989	-1.8387469	8.049625	1.1168685	-1.4744921	0.0	1.3125	-41.0	26.5	2.898508	0.13444781	0.22457333
1276877660029	0.46309182	12.14935	-1.3756552	2.4291	0.0	1.8125	-41.5	24.75	-2.9730883	-0.11266738	-0.03809815
1276877660069	1.56634	8.349273	-0.7218784	-1.281107	0.0	1.8125	-42.0	23.5	-2.6961012	-0.08477393	-0.18544644
1276877660109	2.6832085	6.5513873	-1.6889231	-2.5284123	0.0	1.8125	-42.75	22.3125	-2.1877594	-0.2341858	-0.38872343
1276877660139	3.1463003	8.049625	-1.6889231	-1.0005083	0.0	1.5625	-43.0	21.8125	-2.2508008	-0.1929849	-0.37260488
1276877660179	5.053149	9.956474	-2.1792557	1.5694151	0.0	1.5625	-43.25	21.8125	-2.1646466	-0.1927564	-0.46964863
1276877660219	7.3958488	10.528529	-1.1168685	3.1082983	0.0	1.5625	-43.25	21.5625	-2.186675	-0.08658689	-0.61237365
1276877660259	3.7864566	11.727119	0.92618364	2.5513592	0.0	1.5625	-43.5	21.0625	-2.5887141	0.075016364	-0.3123136
1276877660289	-3.173541	11.223166	0.10896278	1.8570843	0.0	1.3125	-43.75	19.8125	2.6569061	0.009342151	0.27557272
1276877660329	-4.862464	15.854085	-1.1168685	6.8139095	0.0	0.8125	-43.5	19.3125	2.5124516	-0.06724869	0.29759312
1276877660369	-2.070293	16.43976	-0.19068487	6.7640514	0.0	-0.1875	-43.25	19.3125	2.852839	-0.011507604	0.12527262
1276877660409	2.6014864	12.762266	-1.334794	3.2862816	0.0	-1.9375	-42.75	20.5625	-2.751406	-0.10212511	-0.2010871
1276877660449	3.1054392	10.038197	-2.2609777	0.94142723	0.0	-2.1875	-42.25	22.8125	-2.491552	-0.21194433	-0.30002373
1276877660489	0.6537767	5.7886477	-0.88532263	-3.914311	0.0	-1.9375	-42.25	24.25	-2.9832191	-0.15082091	-0.112464614
1276877660529	-0.3405087	2.3426998	0.42223078	-7.4019737	0.0	-0.9375	-42.25	26.25	2.933408	0.17650238	0.14433807
1276877660569	-0.040861044	1.9885708	-0.84446156	-7.6458173	0.0	0.5625	-42.25	27.0	3.1049693	-0.40150464	0.020545054
1276877660599	0.8036005	5.2165933	-3.0645783	-3.703351	0.0	1.5625	-42.75	27.0	-1.8436745	-0.5260465	-0.15284552
1276877660629	1.9477097	8.049625	-4.4810944	-0.3901615	0.0	2.3125	-42.5	26.5	-1.8798084	-0.4959614	-0.23740001
1276877660669	2.7649305	12.762266	-4.0588636	3.8679485	0.0	2.8125	-42.5	26.0	-2.3942032	-0.3013585	-0.21335164
1276877660709	2.1111538	14.818938	-7.205164	6.8057632	0.0	3.75	-43.0	25.75	-2.0408988	-0.4486191	-0.14151101
1276877660749	-0.5720546	11.985906	-6.2108784	3.7049818	0.0	4.0	-43.25	26.0	-2.5902958	-0.47762245	0.04769109
1276877660789	0.23154591	12.258313	-0.8036005	2.480157	0.0	4.0	-43.25	27.0	-2.944504	-0.065450236	-0.018886643
1276877660829	-0.8036005	4.440233	-0.0	-5.2942843	0.0	4.25	-43.5	27.4375	3.0123925	-0.0	0.17904356
1276877660869	3.5276701	13.184497	2.1111538	4.0039396	0.0	4.5	-43.25	27.6875	-2.7084093	0.15346655	-0.2614381
1276877660909	-0.14982383	10.038197	-2.1792557	0.46646976	0.0	4.75	-43.75	27.1875	-2.9087422	-0.21375592	0.0149242645
1276877660949	-0.84446156	7.246025	0.23154591	-2.5079103	0.0	5.0	-45.0	26.25	3.132822	0.031729415	0.11601799
1276877660999	0.10896278	9.043911	0.08172209	-0.761714	0.0	5.25	-46.25	24.75	-2.9148238	0.009035244	-0.01204761
1276877661039	0.84446156	9.915613	-0.9125633	0.18661118	0.0	5.0	-46.6875	23.5	-2.7055116	-0.09144526	-0.08495983
1276877661079	1.3075534	8.281172	-0.84446156	-1.3804646	0.0	4.75	-47.1875	21.8125	-2.5278385	-0.100387245	-0.15660188
1276877661120	1.5390993	7.3141265	-1.6480621	-2.1528025	0.0	5.25	-47.6875	20.0625	-2.1497161	-0.21702428	-0.20740238
1276877661159	2.4108016	8.430995	-1.2666923	-0.9467325	0.0	5.25	-47.9375	19.3125	-2.1804948	-0.14346045	-0.27851304
1276877661199	6.6331096	11.727119	-2.3699405	3.8732653	0.0	5.0	-49.1875	18.625	-1.9490509	-0.17412083	-0.51475745
1276877661239	7.9679036	10.18802	-1.4982382	3.2136402	0.0	5.75	-49.6875	18.625	-1.9598452	-0.11532495	-0.6637217
1276877661279	3.336985	10.269742	0.92618364	1.0312872	0.0	5.75	-50.1875	18.8125	-2.3949585	0.085561916	-0.31417194
1276877661319	-2.3699405	10.269742	-0.38136974	0.7398968	0.0	6.0	-50.9375	18.8125	2.8222208	-0.036168512	0.22679885
1276877661359	-4.399372	17.270601	-0.6537767	8.027462	0.0	5.25	-51.1875	19.5625	2.7381623	-0.03666699	0.24942718
1276877661399	-1.9885708	15.636159	-0.10896278	5.9558287	0.0	3.0625	-51.4375	20.8125	2.9744484	-0.00691285	0.12649861
1276877661439	1.7978859	10.923519	-2.1383946	1.4684725	0.0	1.5625	-50.9375	22.8125	-2.4917536	-0.19081177	-0.16312604
1276877661479	2.7240696	9.234595	-1.6480621	-0.038619995	0.0	0.0625	-49.9375	24.25	-2.4106262	-0.16953091	-0.2868498
1276877661519	0.50395286	5.7477865	-0.3405087	-4.0267744	0.0	-0.1875	-48.6875	26.0	-2.9673464	-0.058946937	-0.08745409
1276877661549	-1.1168685	2.5606253	0.040861044	-7.012752	0.0	0.5625	-47.9375	27.1875	2.5512073	0.014625623	0.41129377
1276877661579	0.23154591	2.3018389	-1.607201	-6.9897065	0.0	1.0625	-47.9375	27.9375	-0.9475717	-0.6071727	-0.10025447
1276877661609	1.4573772	4.140586	-2.7240696	-4.640515	0.0	1.3125	-47.6875	28.9375	-1.6350582	-0.5554121	-0.338432
1276877661649	2.4516625	6.66035	-4.7943625	-1.2417898	0.0	2.0625	-48.4375	28.9375	-1.5136994	-0.5941097	-0.35270604
1276877661689	3.336985	12.9529505	-5.366417	4.6055956	0.0	2.8125	-48.4375	28.6875	-2.1373992	-0.3815411	-0.25214082
1276877661729	0.9942854	13.824653	-6.6331096	5.559148	0.0	3.3125	-48.1875	28.6875	-2.229358	-0.44635454	-0.071797565
1276877661769	-0.5720546	8.076866	-6.8237944	0.782362	0.0	4.25	-48.1875	28.6875	-0.090192065	-0.7002674	0.07070823
1276877661799	-2.2201166	13.375181	1.4165162	3.8253317	0.0	4.25	-47.9375	28.6875	3.0329185	0.104099154	0.16448806
1276877661839	-0.08172209	9.384419	1.334794	-0.3274269	0.0	4.25	-47.9375	29.4375	-3.0352414	0.14128214	0.008708053
1276877661879	4.140586	11.795221	-0.27240697	2.6971855	0.0	3.75	-48.1875	29.6875	-2.5450916	-0.021787595	-0.33760038
1276877661919	0.50395286	8.471856	-0.8036005	-1.2818575	0.0	3.0625	-48.4375	28.9375	-2.9018025	-0.094406456	-0.05941552
1276877661959	-3.1054392	8.689782	0.9942854	-0.5252352	0.0	3.3125	-48.6875	28.4375	2.7625556	0.10733245	0.3432225
1276877661999	-0.040861044	9.724928	0.95342433	-0.035012245	0.0	3.0625	-49.1875	27.0	-3.0516667	0.097726054	0.004201656
1276877662039	-0.08172209	8.662541	-0.50395286	-1.129077	0.0	3.0625	-49.6875	25.0	-3.024614	-0.058108017	0.009433682
1276877662079	2.9147544	8.662541	-1.0760075	-0.6037588	0.0	3.3125	-50.1875	24.0	-2.336288	-0.11718863	-0.32457805
1276877662109	2.4108016	7.3141265	-1.6480621	-1.9310856	0.0	3.3125	-50.4375	22.8125	-2.1542816	-0.21082093	-0.31839487
1276877662139	2.3426998	6.973618	-1.2258313	-2.3486176	0.0	3.3125	-50.1875	22.0625	-2.206711	-0.16511309	-0.32409245
1276877662179	3.568531	8.281172	-1.7297841	-0.6249094	0.0	4.25	-50.1875	21.8125	-2.0731637	-0.18952653	-0.4068751
1276877662219	6.0201936	10.61025	-2.4516625	2.6364517	0.0	5.0	-50.1875	22.3125	-2.012303	-0.19832747	-0.51609945
1276877662289	2.9147544	12.108489	0.7627395	2.671053	0.0	5.25	-50.6875	22.5625	-2.553723	0.061166327	-0.23622558
1276877662329	-3.9090397	12.830367	-1.1849703	3.6582327	0.0	5.0	-51.4375	22.5625	2.6260905	-0.088118486	0.2957365
1276877662369	-3.8273177	17.24336	0.27240697	7.8584595	0.0	3.3125	-51.9375	23.0	2.8164325	0.015421232	0.21841803
1276877662409	0.46309182	14.246883	-0.23154591	4.4496384	0.0	1.3125	-52.1875	23.25	-3.0081408	-0.016242381	-0.03249334
1276877662449	1.607201	10.991621	-1.9477097	1.4713106	0.0	0.0625	-51.9375	24.25	-2.6742058	-0.17357072	-0.14519164
1276877662489	1.1849703	8.308413	-1.7978859	-1.2237453	0.0	-0.4375	-50.9375	26.5	-2.7264788	-0.21103586	-0.14166753
1276877662519	0.23154591	4.7126403	-0.19068487	-5.0844736	0.0	-0.1875	-49.9375	28.4375	-3.0560684	-0.0403917	-0.049093466
1276877662559	-0.23154591	2.6014864	0.3405087	-7.172776	0.0	0.5625	-49.1875	30.1875	3.0372052	0.12964343	0.08877131
1276877662599	1.1168685	2.5333846	-1.56634	-6.6256356	0.0	0.8125	-47.9375	31.625	-1.8651568	-0.5148481	-0.41522732
1276877662629	1.607201	4.8216033	-3.9771416	-3.353077	0.0	1.5625	-47.4375	31.875	-1.4305565	-0.66399723	-0.32175052
1276877662669	2.8330324	8.19945	-5.202973	0.30907917	0.0	2.3125	-47.4375	32.125	-1.8399786	-0.5402435	-0.33267364
1276877662709	1.7570249	14.982383	-4.903325	6.0553026	0.0	2.8125	-47.4375	32.125	-2.664396	-0.31427273	-0.116739504
1276877662749	0.88532263	11.141444	-7.6273947	3.7245264	0.0	3.3125	-48.4375	31.875	-1.4672664	-0.5988469	-0.079295486
1276877662789	-1.2666923	9.997335	-3.7864566	0.95850086	0.0	3.5625	-48.9375	32.375	2.9440033	-0.35942152	0.12603143
1276877662829	-1.56634	12.9529505	2.6014864	3.497487	0.0	3.3125	-49.1875	32.625	3.0788121	0.1968077	0.120341025
1276877662869	2.3699405	10.800936	0.7627395	1.2775097	0.0	3.3125	-49.4375	32.875	-2.775445	0.06886789	-0.21599695
1276877662909	1.6889231	9.534244	0.14982383	-0.12281227	0.0	3.3125	-48.9375	32.875	-2.8039885	0.015472152	-0.17532408
1276877662949	-2.4925237	7.4639506	0.10896278	-1.9367642	0.0	3.0625	-49.4375	32.375	2.7731335	0.013845977	0.3222979
1276877662989	0.53119355	10.337844	0.040861044	0.54491234	0.0	3.0625	-50.1875	31.625	-2.966365	0.0039473413	-0.051338244
1276877663029	0.08172209	8.62168	-0.38136974	-1.1761522	0.0	2.3125	-50.9375	30.4375	-3.0426486	-0.044203006	-0.009478389
1276877663069	1.9477097	8.812365	-1.0760075	-0.7176933	0.0	1.8125	-51.9375	30.4375	-2.6504598	-0.11866454	-0.2175231
1276877663109	1.56634	7.4639506	-2.1111538	-1.8933101	0.0	1.8125	-52.9375	30.4375	-2.4607604	-0.27005473	-0.20685236
1276877663140	3.336985	7.7772183	-1.9477097	-1.1225166	0.0	2.5625	-55.375	33.375	-2.293638	-0.22620796	-0.40531445
1276877663179	4.8216033	8.390134	-1.6480621	0.0095767975	0.0	-0.1875	-61.3125	35.8125	-2.2854137	-0.16869053	-0.5215903
1276877663219	5.938472	10.760075	-1.56634	2.5827837	0.0	-3.4375	-63.5625	29.1875	-2.2354417	-0.12676468	-0.5042998
1276877663259	4.2904096	9.847511	-0.42223078	0.9432039	0.0	-5.625	-65.5625	23.75	-2.3621585	-0.039287925	-0.41088572
1276877663299	-0.0	10.460427	0.6537767	0.67418766	0.0	-9.875	-67.75	18.125	2.724984	0.062418807	0.0
1276877663339	-3.5957718	15.472715	-0.95342433	6.1069765	0.0	-10.375	-62.8125	15.875	2.0396788	-0.059948348	0.22834127
1276877663379	-4.7126403	18.155924	0.42223078	8.955675	0.0	-9.875	-60.375	22.8125	2.3426516	0.022506082	0.25396043
1276877663419	0.313268	12.408136	-0.95342433	2.642004	0.0	-9.875	-56.625	28.6875	2.806548	-0.07666362	-0.02524162
1276877663459	2.6832085	9.888372	-1.1168685	0.49999428	0.0	-8.625	-50.6875	32.875	-2.961158	-0.10857715	-0.26496956
1276877663499	0.53119355	7.3141265	-1.1168685	-2.3886986	0.0	-6.125	-47.9375	34.625	3.0441246	-0.15113766	-0.07249841
1276877663529	0.23154591	3.990762	-0.3405087	-5.7947	0.0	-4.625	-46.25	35.8125	3.0806038	-0.084975846	-0.057955503
1276877663569	1.1849703	1.3756552	-1.0351465	-7.716648	0.0	-4.125	-45.0	36.8125	-2.053711	-0.51816267	-0.71106726
1276877663599	2.3018389	1.8387469	-2.3699405	-6.0256357	0.0	-2.9375	-44.0	36.5625	-1.8643305	-0.67743975	-0.89677745
1276877663629	1.7570249	4.2904096	-3.1054392	-4.2264614	0.0	-2.1875	-43.75	36.5625	-2.0403113	-0.59018105	-0.38868952
1276877663669	1.6480621	10.310603	-3.8273177	1.314187	0.0	-0.6875	-43.75	36.3125	-2.8278236	-0.35134116	-0.15850069
1276877663709	1.3756552	17.161638	-6.0882955	8.454828	0.0	1.0625	-43.75	35.5625	-2.9065044	-0.33990288	-0.07998771
1276877663749	-1.7297841	8.662541	-6.5513873	1.1911888	0.0	2.3125	-43.25	35.8125	2.0509832	-0.638134	0.19709316
1276877663789	-1.334794	14.982383	0.42223078	5.240999	0.0	3.0625	-42.25	35.5625	3.1225727	0.028063267	0.08885632
1276877663829	0.14982383	9.043911	0.92618364	-0.7142029	0.0	3.0625	-41.25	35.375	-3.046787	0.10203994	-0.016564751
1276877663869	3.9090397	11.958665	1.2258313	2.8342714	0.0	3.0625	-40.75	35.125	-2.7583506	0.09712589	-0.3159307
1276877663909	-1.2666923	8.580819	-0.5720546	-1.1139975	0.0	3.3125	-40.75	33.375	3.0544791	-0.065856576	0.14656058
1276877663949	-2.7240696	9.043911	0.6537767	-0.33879375	0.0	3.3125	-41.5	32.375	2.8960724	0.069107234	0.29256177
1276877663989	0.3405087	8.894087	0.5720546	-0.8876829	0.0	3.5625	-42.25	30.4375	-2.986347	0.06418317	-0.038266152
1276877664029	0.53119355	8.390134	-0.42223078	-1.389121	0.0	2.8125	-44.0	28.6875	-2.9334812	-0.05018195	-0.0632273
1276877664069	2.1111538	8.19945	-1.1849703	-1.2572584	0.0	2.0625	-45.0	27.6875	-2.589366	-0.13905054	-0.25200155
1276877664109	1.879608	6.4424243	-2.2609777	-2.725	0.0	1.8125	-45.5	26.5	-2.2346165	-0.32496193	-0.28387532
1276877664141	4.0588636	7.668256	-1.920469	-0.9204407	0.0	1.5625	-46.0	25.75	-2.1955261	-0.21783665	-0.48681763
1276877664179	6.973618	9.507003	-1.9477097	2.1435814	0.0	2.0625	-45.25	25.5	-2.169916	-0.16371544	-0.63287306
1276877664219	6.5513873	10.56939	-2.1111538	2.806425	0.0	2.3125	-45.5	25.0	-2.1872513	-0.16816975	-0.55488396
1276877664259	2.8738933	11.686258	0.3405087	2.2326126	0.0	2.0625	-45.75	23.75	-2.664061	0.028286956	-0.24113569
1276877664299	-2.4925237	12.176591	1.3756552	2.698327	0.0	1.5625	-46.0	22.8125	2.8703427	0.11023171	0.20190875
1276877664339	-7.082581	18.578154	-0.27240697	10.077641	0.0	0.8125	-46.25	22.5625	2.5205212	-0.013700035	0.36422285
1276877664379	-3.5957718	16.276316	-0.08172209	6.8623238	0.0	-0.9375	-45.5	23.0	2.7014167	-0.004902666	0.21742815
1276877664419	3.2961242	12.408136	-1.6889231	3.1424332	0.0	-2.4375	-44.75	25.0	-2.6948144	-0.13080065	-0.25964564
1276877664459	3.445948	9.956474	-1.0351465	0.78001404	0.0	-2.9375	-43.75	27.4375	-2.6797276	-0.09793482	-0.3331973
1276877664499	-0.9942854	5.407278	0.38136974	-4.295507	0.0	-3.1875	-42.75	29.1875	2.8141198	0.069255106	0.18184775
1276877664539	-1.8387469	1.920469	-0.7218784	-7.0516005	0.0	-1.9375	-42.25	31.1875	2.2035303	-0.2651148	0.76366246
1276877664579	2.4108016	2.2609777	-2.9556155	-5.37273	0.0	-0.9375	-41.5	32.375	-1.729864	-0.72962743	-0.8174572
1276877664620	3.7864566	3.568531	-3.7864566	-3.371674	0.0	-0.1875	-40.75	33.125	-1.9051565	-0.62910104	-0.8150191
1276877664659	2.9147544	8.076866	-5.012288	0.1359148	0.0	1.3125	-40.25	34.125	-2.1896574	-0.5283676	-0.34633163
1276877664699	0.5720546	14.709975	-5.8976107	6.0518627	0.0	2.5625	-40.0	34.125	-2.9020724	-0.38104343	-0.038869303
1276877664739	-2.3699405	10.147159	-8.240311	3.4780836	0.0	4.0	-40.25	33.625	1.8483272	-0.669105	0.22944409
1276877664779	-0.0	6.782933	-5.202973	-1.2580185	0.0	5.25	-40.75	33.625	-1.9143398	-0.6543357	0.0
1276877664819	-1.1441092	16.739407	2.6014864	7.172291	0.0	5.5	-40.75	32.875	-3.0718517	0.15382433	0.068242125
1276877664859	3.7864566	9.466142	0.10896278	0.38927937	0.0	5.5	-40.75	32.625	-2.5914857	0.010687093	-0.38050637
1276877664899	1.2666923	9.00305	-1.3075534	-0.6213846	0.0	5.25	-40.75	32.125	-2.7475438	-0.14283858	-0.1397784
1276877664939	-1.4573772	9.575105	1.7297841	0.03198433	0.0	5.0	-40.75	31.1875	3.1102538	0.17673407	0.15104556
1276877664979	-0.50395286	12.108489	-0.27240697	2.315383	0.0	4.5	-41.75	29.6875	-3.0458481	-0.022473946	0.04159579
1276877665019	0.84446156	8.117727	-0.19068487	-1.64289	0.0	3.75	-43.0	27.6875	-2.8442338	-0.023359606	-0.10365402
1276877665059	0.50395286	8.076866	-0.9125633	-1.6627874	0.0	3.3125	-44.5	26.5	-2.8646414	-0.11229119	-0.062313825
1276877665099	1.5390993	7.668256	-0.61291564	-1.9614835	0.0	2.3125	-45.25	25.0	-2.6622396	-0.078206226	-0.19807863
1276877665142	1.1441092	5.407278	-1.1168685	-4.1679416	0.0	2.0625	-45.5	24.25	-2.4913707	-0.19939023	-0.20851158
1276877665179	2.9556155	8.580819	-2.070293	-0.49793243	0.0	2.3125	-45.5	23.5	-2.2422223	-0.22427918	-0.331717
1276877665219	5.053149	9.615966	-2.070293	1.2517052	0.0	2.8125	-45.0	22.8125	-2.1463208	-0.18832652	-0.48383558
1276877665259	7.0553403	10.228881	-1.4982382	2.7094421	0.0	3.3125	-45.25	22.0625	-2.1270707	-0.119992696	-0.60381156
1276877665299	4.630918	8.921328	0.08172209	0.24532318	0.0	3.75	-45.5	21.3125	-2.298227	0.008130044	-0.47879797
1276877665339	-1.1168685	10.501288	0.95342433	0.7968149	0.0	4.0	-46.25	20.5625	3.1045432	0.0900379	0.10595707
1276877665379	-5.6252036	18.278507	0.50395286	9.324495	0.0	3.5625	-46.25	20.3125	2.698616	0.02634506	0.29855126
1276877665419	-5.8976107	17.66559	1.334794	8.865162	0.0	2.5625	-46.6875	20.8125	2.6659358	0.07154815	0.3222131
1276877665459	-0.3405087	13.525005	-1.4982382	3.8053455	0.0	0.8125	-46.4375	22.0625	3.120396	-0.11029095	0.025170917
1276877665499	2.9556155	10.841797	-0.6946377	1.4522457	0.0	-0.9375	-45.25	24.0	-2.6639564	-0.061735995	-0.26614574
1276877665539	0.6946377	7.3549876	-0.27240697	-2.4139123	0.0	-1.9375	-45.0	26.0	-3.0472274	-0.03685626	-0.094165124
1276877665579	-1.9885708	2.9147544	-0.6946377	-6.2104397	0.0	-2.1875	-44.0	27.6875	2.2245674	-0.19438002	0.59870887
1276877665609	2.3018389	2.3699405	-2.3699405	-5.740731	0.0	-1.4375	-43.5	28.9375	-1.7313535	-0.6222678	-0.7708219
1276877665649	3.8681788	3.405087	-3.405087	-3.6299157	0.0	-0.6875	-43.5	30.4375	-1.8509889	-0.5838932	-0.84898275
1276877665689	3.214402	5.2165933	-3.636633	-2.6813202	0.0	1.0625	-43.0	30.6875	-1.8990284	-0.5356278	-0.55223745
1276877665729	0.7627395	9.084772	-3.1054392	-0.1755228	0.0	2.8125	-43.25	30.6875	-2.7425473	-0.32830366	-0.08376157
1276877665769	-2.3018389	14.859799	-6.0201936	6.3907204	0.0	4.25	-43.5	30.4375	2.9400928	-0.380815	0.1536823
1276877665809	-1.607201	8.539958	-5.597963	0.5302334	0.0	6.25	-43.75	29.6875	2.0637236	-0.57228243	0.18602192
1276877665849	0.5720546	6.701211	-4.2086873	-1.8727655	0.0	7.25	-43.75	29.6875	-1.783987	-0.55915487	-0.0851594
1276877665889	1.1441092	18.237646	4.440233	8.998571	0.0	7.75	-43.25	30.4375	-2.8840957	0.23836794	-0.062651284
1276877665929	4.9850473	4.440233	1.879608	-2.871285	0.0	8.25	-43.0	30.9375	-2.3325717	0.27445033	-0.8431374
1276877665969	0.10896278	9.656827	1.1441092	-0.08167362	0.0	9.0	-43.0	30.9375	-2.8823967	0.117919564	-0.011283019
1276877666009	-2.7513103	11.917805	1.2666923	2.4900274	0.0	9.75	-43.5	29.9375	3.1333067	0.10319399	0.22688231
1276877666049	-0.10896278	10.923519	-1.3756552	1.2036886	0.0	10.9375	-44.0	28.1875	-2.704282	-0.1252695	0.009974731
1276877666089	1.7570249	7.7363577	-1.879608	-1.653657	0.0	11.6875	-45.0	26.5	-2.221552	-0.23263474	-0.22332442
1276877666130	3.0237172	5.47538	-1.879608	-3.2755265	0.0	11.9375	-45.75	25.0	-1.9788036	-0.29192096	-0.5045604
1276877666169	-0.19068487	6.2108784	-0.14982383	-3.5910397	0.0	12.4375	-46.4375	23.75	-2.688647	-0.024106778	0.030692115
1276877666209	1.1849703	9.234595	-1.7297841	-0.33701134	0.0	12.9375	-47.4375	22.3125	-2.1967986	-0.18369773	-0.12762119
1276877666249	4.0588636	8.730643	-1.4165162	-0.07499981	0.0	13.6875	-47.9375	21.0625	-2.0106347	-0.14607659	-0.4351743
1276877666289	5.7477865	11.032481	-1.2258313	2.6935635	0.0	13.9375	-48.1875	19.8125	-2.007405	-0.09822269	-0.48029643
1276877666329	4.862464	9.956474	-1.525479	1.3782511	0.0	13.9375	-48.1875	19.0625	-1.9601034	-0.13681376	-0.45430207
1276877666369	1.0351465	9.534244	2.070293	0.0045394897	0.0	13.4375	-48.4375	18.625	-2.5565567	0.21261165	-0.10814782
1276877666409	-2.6014864	11.032481	0.313268	1.5327291	0.0	12.9375	-48.4375	18.375	-3.0670388	0.02763007	0.23157232
1276877666449	-7.1234417	18.918663	0.8036005	10.424639	0.0	11.9375	-48.6875	18.375	2.8554046	0.03973113	0.36011127
1276877666489	-4.7943625	15.28203	-0.29964766	6.212593	0.0	10.25	-49.4375	19.0625	2.8713913	-0.018706573	0.30400097
1276877666529	2.6014864	10.56939	-1.920469	1.2463112	0.0	9.0	-48.9375	20.3125	-2.1061473	-0.17463787	-0.2413368
1276877666569	3.1054392	8.771504	-0.95342433	-0.45293045	0.0	7.5	-48.9375	21.8125	-2.2060447	-0.1021073	-0.34026694
1276877666609	0.53119355	5.284695	-0.46309182	-4.4751754	0.0	6.75	-48.4375	23.25	-2.5957935	-0.08696957	-0.10017898
1276877666649	-1.1849703	2.7921712	-0.14982383	-6.76974	0.0	7.0	-47.4375	24.25	2.6378303	-0.049354333	0.40135407
1276877666689	1.5390993	2.5333846	-2.1792557	-6.1275167	0.0	7.5	-47.4375	25.25	-1.5268885	-0.6339459	-0.54593563
1276877666729	1.7297841	5.829509	-3.405087	-2.8374362	0.0	8.25	-46.9375	25.25	-1.6267982	-0.5104728	-0.28845316
1276877666769	2.0294318	10.228881	-4.140586	1.413557	0.0	9.25	-46.9375	25.0	-1.9334973	-0.37796444	-0.19585869
1276877666799	-0.3405087	14.437569	-5.8567495	5.7773438	0.0	10.0	-47.1875	24.0	-2.032707	-0.3852796	0.023580534
1276877666839	-4.2904096	18.537292	-4.944186	9.852541	0.0	9.75	-47.1875	23.5	3.03464	-0.2542245	0.22744271
1276877666879	-0.7627395	11.795221	-0.9942854	2.0549526	0.0	9.75	-47.9375	24.25	-2.8227284	-0.08392234	0.06457521
1276877666919	1.1849703	2.4925237	0.14982383	-7.042726	0.0	8.75	-47.9375	25.75	-2.3450222	0.05423351	-0.44378266
1276877666959	2.2201166	14.818938	5.407278	6.1234636	0.0	8.0	-47.6875	27.1875	-2.792759	0.3463188	-0.14871016
1276877666999	-3.5957718	12.14935	-2.7240696	3.1531668	0.0	8.25	-48.1875	26.75	2.7947435	-0.21177289	0.28775004
1276877667039	-1.3075534	7.205164	0.92618364	-2.4254646	0.0	7.75	-47.9375	25.75	3.1120749	0.1258106	0.17952079
1276877667079	-1.56634	7.014479	2.2201166	-2.2843328	0.0	7.75	-48.4375	23.5	3.060682	0.29959923	0.21969669
1276877667109	2.7240696	10.56939	-0.19068487	1.1098022	0.0	6.5	-49.1875	21.5625	-2.4117043	-0.017468547	-0.25224245
1276877667142	3.9499009	8.853226	-1.334794	-0.020792961	0.0	4.75	-49.6875	21.0625	-2.1169016	-0.13682686	-0.41965088
1276877667179	2.9147544	6.1700177	-1.525479	-2.8143687	0.0	4.0	-49.9375	20.5625	-1.972212	-0.21993493	-0.44132987
1276877667219	3.214402	7.205164	-1.8387469	-1.705554	0.0	3.5625	-50.1875	20.8125	-1.9770508	-0.22897057	-0.4196266
1276877667259	4.944186	8.049625	-1.2666923	-0.2753353	0.0	3.75	-50.4375	21.5625	-2.0643623	-0.1332923	-0.55080485
1276877667299	4.862464	9.00305	-1.6889231	0.5640259	0.0	4.5	-50.1875	21.8125	-2.0564487	-0.16358425	-0.49520352
1276877667339	2.9147544	9.724928	-1.4982382	0.45564747	0.0	5.0	-50.1875	21.8125	-2.2265484	-0.1465181	-0.2911998
1276877667409	-2.4516625	12.258313	0.7218784	2.71525	0.0	5.25	-50.1875	21.5625	2.9516919	0.05768125	0.19739556
1276877667449	-8.580819	18.891422	-0.7218784	10.95479	0.0	4.25	-49.9375	22.0625	2.4533546	-0.03477716	0.42635587
1276877667489	-3.5276701	15.5135765	-0.23154591	6.104639	0.0	2.3125	-49.4375	23.25	2.7729404	-0.014552817	0.22359045
1276877667529	4.2495484	12.598822	-2.4108016	3.7063408	0.0	0.0625	-49.4375	24.75	-2.3605697	-0.17936645	-0.32531387
1276877667569	1.7978859	8.730643	-0.6537767	-0.8688688	0.0	-1.9375	-48.6875	27.4375	-2.8208494	-0.07321292	-0.20308924
1276877667609	-0.6537767	5.47538	-0.6946377	-4.248797	0.0	-2.1875	-47.6875	28.6875	2.8079185	-0.1253108	0.118840344
1276877667649	-0.3405087	2.7649305	-0.38136974	-6.9948483	0.0	-1.9375	-46.9375	29.4375	2.8185155	-0.13605113	0.12253572
1276877667689	2.4925237	1.9885708	-2.7240696	-5.612888	0.0	-1.1875	-46.0	29.9375	-1.6705456	-0.70699596	-0.8973896
1276877667729	3.255263	4.7535014	-3.5276701	-3.051136	0.0	-0.4375	-45.5	29.9375	-1.7957023	-0.5494183	-0.60046095
1276877667769	1.4982382	10.528529	-4.3312707	1.6761436	0.0	0.5625	-46.25	30.4375	-2.568001	-0.38676742	-0.14135367
1276877667809	-1.3756552	14.519291	-5.597963	5.815111	0.0	1.8125	-46.4375	30.1875	2.9222662	-0.36649334	0.09446473
1276877667849	-1.56634	8.662541	-6.8237944	1.3314476	0.0	2.0625	-46.4375	30.6875	1.0040115	-0.6594136	0.17888477
1276877667889	-0.95342433	15.976667	1.3756552	6.257452	0.0	2.5625	-46.4375	31.1875	3.1356497	0.08574037	0.059605356
1276877667929	2.8738933	10.147159	1.1849703	0.805995	0.0	2.3125	-45.75	31.1875	-2.7525244	0.111889765	-0.27599347
1276877667969	2.3426998	11.114203	1.4165162	1.6397591	0.0	2.5625	-45.5	31.625	-2.8292437	0.124070086	-0.20774327
1276877668009	-2.6832085	9.507003	0.3405087	0.07761288	0.0	3.3125	-46.0	31.375	2.866015	0.034456395	0.27507997
1276877668049	-2.3699405	11.114203	0.08172209	1.5577164	0.0	3.5625	-46.4375	29.9375	2.939548	0.0071911435	0.21008882
1276877668089	0.27240697	8.158588	0.8036005	-1.6040564	0.0	3.5625	-46.6875	28.9375	-2.9893389	0.09812647	-0.033376582
1276877668129	1.0351465	7.8589406	-0.5720546	-1.8592153	0.0	3.0625	-47.6875	27.4375	-2.7731123	-0.072042085	-0.1309619
1276877668169	2.3018389	8.008764	-1.7297841	-1.2960138	0.0	2.0625	-47.9375	25.5	-2.3721976	-0.20467575	-0.2798713
1276877668209	2.982856	6.891896	-2.3699405	-1.9318628	0.0	1.5625	-48.4375	24.5	-2.0280817	-0.3056918	-0.40846404
1276877668249	3.568531	6.4015636	-1.525479	-2.320562	0.0	1.8125	-49.4375	23.5	-2.0819056	-0.20521247	-0.5085425
1276877668289	5.6660647	7.668256	-1.2258313	-0.19368553	0.0	1.8125	-49.9375	23.5	-2.102754	-0.1278667	-0.6363584
1276877668329	5.6252036	9.656827	-0.53119355	1.3817091	0.0	2.5625	-49.9375	23.5	-2.2366967	-0.047495198	-0.52746034
1276877668369	1.3075534	11.985906	0.6537767	2.2680788	0.0	2.5625	-50.6875	22.8125	-2.8359227	0.0541707	-0.10866122
1276877668409	-7.3958488	16.249075	0.040861044	8.046436	0.0	1.0625	-50.9375	22.5625	2.415351	0.0022887404	0.4271326
1276877668449	-7.43671	18.115063	0.23154591	9.776857	0.0	-0.4375	-50.6875	22.3125	2.4315276	0.011823792	0.3895477
1276877668489	1.4165162	15.704261	-1.1849703	6.005829	0.0	-2.4375	-50.6875	23.0	-3.0309532	-0.07500925	-0.089956045
1276877668529	3.9499009	12.489859	-1.3075534	3.3579988	0.0	-3.875	-49.6875	25.0	-2.628949	-0.09948711	-0.30629635
1276877668569	0.46309182	8.662541	-0.9125633	-1.0838728	0.0	-4.375	-48.4375	26.75	3.0589213	-0.104810216	-0.05340828
1276877668609	-1.1849703	4.671779	-0.29964766	-4.9776273	0.0	-3.875	-47.1875	28.9375	2.609783	-0.062091295	0.24840567
1276877668649	-0.040861044	0.7218784	-0.6946377	-8.804004	0.0	-2.9375	-46.4375	30.1875	0.4973486	-0.76537067	0.056543436
1276877668689	2.3018389	1.6889231	-2.2609777	-6.164818	0.0	-1.9375	-46.0	30.9375	-1.7467211	-0.6698076	-0.93779105
1276877668729	1.5390993	4.1814466	-3.5957718	-4.081015	0.0	-0.4375	-45.75	30.9375	-1.3794154	-0.67899686	-0.3526885
1276877668769	0.6537767	12.067628	-4.1814466	2.9816084	0.0	0.3125	-45.25	30.4375	-2.946897	-0.3331013	-0.054123163
1276877668809	-0.61291564	14.437569	-5.7886477	5.7602215	0.0	1.3125	-45.5	30.1875	3.0859144	-0.38100848	0.04242735
1276877668849	-1.525479	10.419566	-6.2108784	2.4191198	0.0	2.3125	-45.5	30.4375	2.2066565	-0.53287905	0.14537244
1276877668889	-1.525479	17.161638	0.53119355	7.4308395	0.0	2.8125	-45.5	31.375	3.1041577	0.030821059	0.08865588
1276877668929	2.3426998	8.008764	2.4925237	-1.0979633	0.0	2.5625	-45.5	32.375	-2.8033986	0.29027027	-0.2845776
1276877668969	1.9477097	11.413852	2.2609777	1.9908752	0.0	2.8125	-45.25	33.125	-2.893358	0.19284149	-0.16901638
1276877669009	-3.7864566	9.888372	-1.1168685	0.8406286	0.0	2.5625	-45.25	32.375	2.67926	-0.10509042	0.36569616
1276877669049	-0.19068487	10.119919	0.8036005	0.34691525	0.0	2.0625	-45.75	30.6875	-3.106527	0.079227515	0.0188403
1276877669089	-0.42223078	7.43671	0.92618364	-2.300603	0.0	1.8125	-47.1875	28.9375	3.1165488	0.123706944	0.05671567
1276877669119	0.92618364	7.273266	-0.6537767	-2.445561	0.0	0.8125	-48.1875	27.1875	-2.8485315	-0.088932395	-0.12665914
1276877669159	2.4108016	8.19945	-1.56634	-1.1177864	0.0	-0.4375	-48.6875	26.0	-2.4809253	-0.18126078	-0.28596148
1276877669199	2.070293	7.164303	-1.9477097	-2.0990615	0.0	-1.1875	-49.6875	25.75	-2.3607306	-0.2554701	-0.2813102
1276877669239	3.636633	6.701211	-1.607201	-2.0147042	0.0	-0.9375	-50.1875	24.25	-2.1322374	-0.20775573	-0.49720815
1276877669279	5.175732	8.349273	-1.525479	0.13445854	0.0	-0.9375	-50.1875	23.5	-2.1452591	-0.15406029	-0.5549251
1276877669309	5.706926	10.147159	-2.1792557	2.0374622	0.0	-0.1875	-50.4375	23.0	-2.104148	-0.18504916	-0.51232576
1276877669349	4.3312707	9.507003	-0.9125633	0.68028355	0.0	0.3125	-50.4375	21.8125	-2.2678778	-0.08712928	-0.42749068
1276877669389	1.7978859	11.645397	1.607201	2.0858164	0.0	0.3125	-50.4375	21.5625	-2.8640358	0.13555926	-0.15317662
1276877669429	-5.9793324	16.358038	-0.46309182	7.616102	0.0	-0.1875	-51.1875	21.5625	2.4226086	-0.026582848	0.35044134
1276877669469	-8.240311	17.815414	1.0760075	9.851669	0.0	-1.6875	-51.4375	22.3125	2.3910346	0.054762844	0.43323168
1276877669509	0.3405087	14.015338	-1.1168685	4.2572412	0.0	-3.875	-50.4375	23.75	3.0076897	-0.079497606	-0.024290655
1276877669549	3.9090397	11.413852	-1.525479	2.3540936	0.0	-5.625	-49.1875	25.75	-2.6426518	-0.12577423	-0.32996172
1276877669589	1.1849703	8.076866	-0.8036005	-1.6038647	0.0	-6.375	-47.6875	28.1875	-3.1152594	-0.09812416	-0.1456724
1276877669629	-1.4982382	4.5628166	-0.040861044	-5.0039754	0.0	-5.875	-46.4375	30.1875	2.5493197	-0.008508079	0.31726626
1276877669669	-0.42223078	0.7218784	-0.23154591	-8.938894	0.0	-4.625	-45.75	31.875	2.225702	-0.2701053	0.5292468
1276877669709	1.6889231	1.3756552	-1.8387469	-6.9560575	0.0	-3.1875	-45.0	32.875	-1.7275347	-0.7010759	-0.8872665
1276877669749	2.3699405	6.1700177	-3.6774938	-2.242941	0.0	-2.1875	-44.5	32.625	-2.088839	-0.5077387	-0.36672997
1276877669779	1.7297841	14.628253	-4.5628166	5.614025	0.0	-0.6875	-44.75	32.375	-2.8895056	-0.30038664	-0.11770295
1276877669809	0.50395286	16.04477	-6.66035	7.5729027	0.0	1.0625	-45.0	31.625	-2.9379969	-0.39328972	-0.031398848
1276877669849	-1.4982382	10.760075	-6.1291566	2.6669416	0.0	1.5625	-45.25	32.125	2.4656246	-0.5136628	0.13835096
1276877669889	-2.1383946	16.358038	0.5720546	6.7004814	0.0	2.0625	-45.25	33.375	3.0326226	0.034661938	0.12998728
1276877669929	1.0351465	8.281172	0.88532263	-1.4142056	0.0	1.5625	-44.5	33.875	-2.9591627	0.10568708	-0.124354996
1276877669969	3.0645783	11.604536	2.2609777	2.4068222	0.0	1.0625	-43.75	34.875	-2.8592746	0.18619563	-0.25819013
1276877670009	-3.1054392	10.119919	-0.6537767	0.79919434	0.0	1.3125	-44.0	34.375	2.7892456	-0.061682165	0.29774213
1276877670049	-0.10896278	10.760075	-0.38136974	0.9607315	0.0	1.8125	-44.5	32.625	-3.0977314	-0.035426397	0.010126237
1276877670089	-0.14982383	7.504812	0.5720546	-2.2785764	0.0	1.5625	-45.5	31.1875	-3.1226687	0.07606283	0.01996105
1276877670119	-0.10896278	6.0474343	0.19068487	-3.7552295	0.0	1.0625	-47.1875	28.9375	-3.1346135	0.031515975	0.01801607
1276877670159	2.070293	9.615966	-1.2666923	0.11088085	0.0	-0.1875	-47.6875	27.1875	-2.7029674	-0.12807238	-0.21206047
1276877670199	1.9885708	7.8589406	-2.4108016	-1.3491488	0.0	-0.9375	-48.6875	26.25	-2.38295	-0.28905746	-0.24783115
1276877670239	3.759216	6.0474343	-1.8387469	-2.452457	0.0	-0.4375	-49.4375	25.25	-2.0659084	-0.25270814	-0.55616623
1276877670279	4.862464	7.6273947	-0.95342433	-0.7110615	0.0	-0.1875	-49.9375	25.0	-2.2243683	-0.105015635	-0.5675376
1276877670319	5.6660647	9.234595	-1.8387469	1.1825733	0.0	0.8125	-50.6875	24.25	-2.1227539	-0.16811348	-0.5503373
1276877670359	3.6774938	10.95076	0.040861044	1.7451792	0.0	0.8125	-50.6875	23.0	-2.5112047	0.0035372	-0.32398766
1276877670399	-2.3426998	14.560152	2.4925237	5.1499186	0.0	0.3125	-51.1875	22.3125	2.8899713	0.16743197	0.15953074
1276877670439	-8.689782	17.733692	-0.53119355	9.9488125	0.0	-0.6875	-51.1875	22.0625	2.3036025	-0.026891679	0.45562807
1276877670479	-5.597963	15.241169	0.23154591	6.4317017	0.0	-2.6875	-51.1875	22.5625	2.4266121	0.014259684	0.35199612
1276877670509	2.152015	13.102775	-0.88532263	3.501155	0.0	-4.625	-50.9375	24.5	-2.968002	-0.066575736	-0.16278781
1276877670539	3.445948	11.304889	-0.95342433	2.0501652	0.0	-6.125	-49.6875	26.0	-2.7670465	-0.08049841	-0.29587224
1276877670579	0.42223078	9.193735	-1.56634	-0.47088718	0.0	-6.375	-48.4375	27.4375	2.9254358	-0.16857575	-0.045893673
1276877670619	-0.23154591	5.7886477	-1.4165162	-3.842711	0.0	-5.625	-47.1875	29.1875	2.730234	-0.23980531	0.039978687
1276877670659	0.50395286	2.070293	-0.88532263	-7.499297	0.0	-4.625	-46.4375	29.6875	-2.551166	-0.3937956	-0.23877718
1276877670699	2.1792557	1.920469	-2.2201166	-6.1506586	0.0	-3.875	-46.25	30.9375	-1.7021496	-0.6526001	-0.8484375
1276877670739	1.7978859	3.5276701	-3.1463003	-4.7493725	0.0	-3.4375	-46.25	31.875	-1.4789637	-0.67146444	-0.47133976
1276877670779	2.3426998	10.732834	-3.9499009	1.8674107	0.0	-2.9375	-46.6875	31.625	-2.6763	-0.34516132	-0.21490349
1276877670819	0.42223078	16.507862	-5.366417	7.5567093	0.0	-2.4375	-46.6875	31.875	3.063434	-0.31421036	-0.02557198
1276877670859	0.6537767	7.43671	-8.19945	1.2822208	0.0	-1.4375	-46.6875	31.875	-0.20123081	-0.83222413	-0.08768665
1276877670899	-3.568531	12.489859	-0.27240697	3.185855	0.0	-1.1875	-46.6875	31.625	2.7144055	-0.020968005	0.27829966
1276877670939	-0.23154591	15.213928	2.982856	5.698661	0.0	-0.9375	-46.25	31.875	3.1007621	0.1935832	0.015218162
1276877670979	2.9556155	7.8180795	0.23154591	-1.4453316	0.0	-0.4375	-46.25	32.125	-2.6951807	0.027696053	-0.36144093
1276877671019	-1.2258313	8.771504	0.50395286	-0.93557835	0.0	-0.9375	-46.0	31.875	2.9326444	0.056839164	0.13885225
1276877671059	-3.759216	11.073342	1.1849703	1.9472752	0.0	-0.6875	-46.25	31.375	2.7305927	0.10098641	0.3272754
1276877671099	0.7218784	9.043911	0.3405087	-0.7275877	0.0	-1.1875	-47.1875	30.4375	-3.0618832	0.037513632	-0.07965041
1276877671140	-0.3405087	7.1234417	-0.42223078	-2.6625862	0.0	-1.9375	-47.6875	28.9375	2.9814472	-0.059136786	0.047764793
1276877671179	1.6889231	8.049625	-0.84446156	-1.538516	0.0	-2.6875	-49.1875	27.0	-2.8126705	-0.102312885	-0.20681393
1276877671249	3.405087	7.0553403	-2.070293	-1.7036533	0.0	-3.625	-49.9375	25.75	-2.1849215	-0.25836194	-0.44965163
1276877671279	5.284695	7.9679036	-1.9477097	-0.049137115	0.0	-3.875	-50.1875	24.5	-2.1267986	-0.2009612	-0.585632
1276877671309	5.134871	9.765789	-1.7297841	1.3615942	0.0	-3.625	-50.6875	23.25	-2.2290082	-0.1555102	-0.4840755
1276877671349	3.718355	10.460427	-1.1849703	1.3580647	0.0	-2.4375	-50.9375	22.5625	-2.4338138	-0.106335565	-0.34153843
1276877671389	2.5606253	12.408136	0.95342433	2.8987684	0.0	-1.4375	-50.9375	21.3125	-2.8002665	0.075111374	-0.20350976
1276877671429	-3.7864566	13.375181	0.38136974	4.0993977	0.0	-1.1875	-51.1875	21.0625	2.5488245	0.027428178	0.27587706
1276877671469	-7.504812	18.659876	0.6946377	10.317854	0.0	-2.4375	-51.4375	21.5625	2.394512	0.034523867	0.38239273
1276877671509	-2.4108016	14.982383	-0.08172209	5.3686733	0.0	-4.625	-50.6875	22.8125	2.6313524	-0.005385222	0.15954155
1276877671549	3.568531	12.408136	-1.4165162	3.1819134	0.0	-6.125	-50.4375	24.5	-2.7384248	-0.10927608	-0.28003854
1276877671589	1.3756552	8.539958	-0.7627395	-1.1230402	0.0	-6.625	-49.1875	26.75	-3.0841458	-0.08795002	-0.15971255
1276877671629	-0.46309182	4.7126403	0.14982383	-5.0689416	0.0	-5.625	-47.9375	28.9375	2.8154697	0.031628966	0.09795142
1276877671669	-1.2666923	1.3075534	-0.19068487	-7.9761953	0.0	-4.125	-47.4375	30.4375	2.215087	-0.104362816	0.7695264
1276877671709	1.8387469	1.9885708	-2.0294318	-6.4222746	0.0	-2.9375	-46.9375	32.125	-1.6995732	-0.6430604	-0.7462722
1276877671749	1.9477097	4.5219555	-3.486809	-3.7734513	0.0	-1.9375	-46.6875	32.375	-1.6423506	-0.6161985	-0.40670797
1276877671789	0.3405087	12.217452	-3.8681788	3.0130568	0.0	-1.1875	-46.4375	32.375	-3.13526	-0.30651397	-0.027863467
1276877671819	-1.0351465	15.745122	-6.66035	7.3205395	0.0	-0.4375	-46.0	32.125	2.8558488	-0.39941105	0.06564947
1276877671859	-0.53119355	12.258313	-6.701211	4.1738586	0.0	0.0625	-45.5	31.625	2.8321128	-0.4998857	0.04330624
1276877671899	-0.08172209	16.04477	0.61291564	6.2500305	0.0	0.5625	-44.5	32.625	-3.1318016	0.03818128	0.005093335
1276877671939	2.1792557	4.7126403	-0.3405087	-4.6033745	0.0	0.0625	-43.75	33.375	-2.6012757	-0.06548802	-0.43314067
1276877671979	3.5276701	12.4489975	3.9090397	3.710102	0.0	0.5625	-43.25	34.375	-2.87351	0.29339063	-0.2761308
1276877672019	-4.0180025	12.258313	-0.6537767	3.109929	0.0	1.5625	-43.75	34.625	2.7835584	-0.050636947	0.31674227
1276877672059	-1.6480621	10.310603	-1.1849703	0.7018604	0.0	2.0625	-45.25	33.875	2.96484	-0.113003254	0.1585007
1276877672099	-0.42223078	6.5922484	1.2258313	-3.0881171	0.0	2.8125	-46.9375	32.125	3.1367767	0.183483	0.06396221
1276877672139	0.6537767	6.510526	-0.14982383	-3.2616658	0.0	2.5625	-48.6875	30.1875	-2.8919194	-0.022893397	-0.10008291
1276877672179	0.92618364	9.234595	-1.56634	-0.39447784	0.0	1.8125	-49.1875	28.4375	-2.8166845	-0.16719429	-0.099960715
1276877672219	0.8036005	6.5922484	-2.0294318	-2.8624358	0.0	1.3125	-49.4375	26.75	-2.5684216	-0.2965765	-0.12130234
1276877672259	3.486809	6.8237944	-1.1849703	-2.052544	0.0	1.8125	-49.6875	25.75	-2.2311227	-0.15341957	-0.47239143
1276877672299	4.8216033	8.471856	-1.4165162	0.043563843	0.0	2.3125	-49.4375	25.0	-2.1866167	-0.14430594	-0.5174131
1276877672339	5.175732	10.528529	-2.5606253	2.2014694	0.0	2.3125	-49.9375	24.25	-2.1078453	-0.21489123	-0.45689794
1276877672379	4.440233	12.489859	0.5720546	3.461337	0.0	2.5625	-50.6875	23.5	-2.4913995	0.043128774	-0.34157246
1276877672419	-2.7240696	12.830367	1.6889231	3.4179993	0.0	2.3125	-50.6875	22.5625	2.8618608	0.12805997	0.20920765
1276877672459	-8.117727	17.311462	-0.61291564	9.323429	0.0	1.5625	-50.9375	23.0	2.3868294	-0.03204485	0.43847764
1276877672489	-4.3312707	15.431854	0.38136974	6.2260494	0.0	0.8125	-50.1875	24.25	2.6753983	0.02378924	0.27363062
1276877672529	3.0237172	12.9529505	-0.88532263	3.5239763	0.0	-0.6875	-49.1875	26.0	-2.7087631	-0.0664616	-0.22933166
1276877672569	2.1792557	10.882658	-1.6480621	1.4137554	0.0	-1.6875	-48.4375	28.6875	-2.7890246	-0.14741412	-0.19763623
1276877672609	0.42223078	7.014479	-1.0760075	-2.6975722	0.0	-1.9375	-47.6875	30.1875	-3.1004384	-0.15194078	-0.06012163
1276877672639	-1.0351465	3.568531	0.53119355	-6.053237	0.0	-1.6875	-46.9375	31.1875	2.7652104	0.14199954	0.28232783
1276877672669	-0.8036005	0.95342433	-0.29964766	-8.524239	0.0	-0.4375	-46.6875	31.875	2.2121851	-0.23583962	0.7003326
1276877672709	1.3756552	1.0351465	-1.7570249	-7.346753	0.0	0.0625	-46.0	32.125	-1.6457692	-0.7955772	-0.92571294
1276877672749	1.3756552	4.0180025	-2.8738933	-4.678684	0.0	1.0625	-46.25	32.125	-1.7122219	-0.5949114	-0.329864
1276877672779	1.3756552	11.032481	-2.4925237	1.5872402	0.0	2.5625	-46.4375	31.1875	-2.7560174	-0.22054318	-0.1240511
1276877672809	-0.0	16.589584	-5.7886477	7.763857	0.0	3.75	-46.4375	30.9375	-2.8782878	-0.33572367	0.0
1276877672849	0.8036005	12.871228	-9.084772	5.9682465	0.0	4.75	-46.6875	30.6875	-1.3674984	-0.6137053	-0.06235293
1276877672889	-1.607201	17.583868	0.88532263	7.872696	0.0	5.25	-46.0	31.375	-3.1106646	0.050097615	0.09114876
1276877672929	0.42223078	7.6954966	0.6946377	-2.0683384	0.0	5.0	-45.75	32.625	-2.9393368	0.089887045	-0.054812297
1276877672969	1.4982382	9.656827	3.5276701	0.58293533	0.0	4.75	-45.5	32.875	-2.8928409	0.34642678	-0.1539209
1276877673009	-5.6252036	12.217452	1.2666923	3.7031078	0.0	5.5	-45.75	32.125	2.7682815	0.09389921	0.43148834
1276877673049	-0.53119355	11.141444	-0.95342433	1.3881235	0.0	6.0	-46.25	31.1875	-3.0026968	-0.0852702	0.047641188
1276877673089	0.42223078	7.504812	1.1168685	-2.207448	0.0	6.0	-46.9375	29.1875	-2.9045374	0.14750613	-0.05620209
1276877673119	0.7218784	7.164303	-0.0	-2.606071	0.0	5.0	-48.1875	27.1875	-2.7954433	-0.0	-0.100421526
1276877673152	1.8387469	8.689782	-1.0351465	-0.8643446	0.0	3.75	-48.9375	25.75	-2.540523	-0.116018444	-0.20852292
1276877673189	1.6889231	7.273266	-1.3756552	-2.214201	0.0	2.8125	-49.6875	24.25	-2.397852	-0.18219358	-0.22816609
1276877673229	2.6014864	6.891896	-2.070293	-2.154718	0.0	3.0625	-50.4375	23.25	-2.0176654	-0.27397278	-0.36093473
1276877673269	3.9090397	8.049625	-1.4165162	-0.74665165	0.0	3.75	-50.4375	22.5625	-2.1170952	-0.1569925	-0.4520756
1276877673299	5.829509	9.152874	-1.607201	1.1633711	0.0	4.75	-50.6875	22.0625	-2.0425243	-0.14703773	-0.5671143
1276877673339	3.8681788	9.997335	-2.1111538	1.1188469	0.0	5.5	-50.9375	21.0625	-2.0383263	-0.194455	-0.36918074
1276877673379	1.4982382	11.032481	0.50395286	1.3384981	0.0	5.25	-50.9375	20.8125	-2.6595094	0.045232665	-0.13497674
1276877673419	-2.5606253	12.367276	0.7218784	2.843545	0.0	4.5	-51.4375	20.5625	2.8902647	0.05709562	0.20416364
1276877673459	-7.5865335	18.8097	-0.29964766	10.477581	0.0	3.0625	-51.9375	21.3125	2.4632542	-0.0147729805	0.38337457
1276877673499	-3.636633	14.9006605	-0.0	5.5313673	0.0	1.0625	-51.6875	22.8125	2.6843967	-0.0	0.2393789
1276877673539	3.5957718	12.067628	-1.6480621	2.8926935	0.0	-0.6875	-50.9375	24.25	-2.4758992	-0.13014244	-0.2895919
1276877673579	1.4573772	9.152874	-0.7218784	-0.51040554	0.0	-1.9375	-50.1875	26.25	-2.8796458	-0.077730946	-0.15790066
1276877673609	-0.7627395	5.7886477	-0.53119355	-3.9438539	0.0	-2.4375	-49.1875	28.1875	2.7842484	-0.09072855	0.13101
1276877673639	-0.7627395	3.636633	-0.08172209	-6.0899916	0.0	-1.6875	-48.4375	29.4375	2.7539377	-0.021989824	0.20674108
1276877673669	0.7218784	2.0294318	-1.2258313	-7.328271	0.0	-0.6875	-47.6875	30.4375	-1.8331006	-0.5173861	-0.34174788
1276877673709	2.2201166	2.2609777	-2.6423476	-5.6807637	0.0	0.3125	-46.6875	31.1875	-1.6543516	-0.6950599	-0.77627987
1276877673755	1.879608	5.407278	-3.759216	-2.9580526	0.0	1.3125	-46.4375	30.4375	-1.6676764	-0.58105135	-0.3345414
1276877673801	-1.0351465	15.826844	-5.012288	6.827158	0.0	2.5625	-46.4375	29.9375	3.1090074	-0.30608863	0.065311454
1276877673839	-0.9125633	12.026767	-8.076866	4.70926	0.0	3.3125	-46.6875	29.9375	0.19401804	-0.59006464	0.075732574
1276877673879	-2.4925237	13.484144	-0.10896278	3.9063616	0.0	3.75	-46.9375	30.1875	2.9805195	-0.007946026	0.18278527
1276877673919	0.38136974	11.495573	1.4165162	1.7821445	0.0	4.5	-46.4375	31.375	-2.9789612	0.12253797	-0.033163194
1276877673959	3.0237172	11.795221	1.4982382	2.4617987	0.0	4.0	-45.5	31.875	-2.7514443	0.12242684	-0.25094712
1276877673999	-2.1383946	8.430995	0.46309182	-1.0963774	0.0	4.0	-45.25	31.625	2.9313612	0.053191245	0.24839681
1276877674039	-2.6832085	10.119919	0.040861044	0.66302204	0.0	4.0	-46.0	30.6875	2.8903258	0.0039028109	0.25917774
1276877674079	-0.7218784	9.466142	1.5390993	-0.18907356	0.0	3.5625	-46.9375	29.1875	3.1411288	0.16072088	0.07611168
1276877674119	-0.10896278	7.4639506	0.46309182	-2.3275537	0.0	2.3125	-48.6875	27.4375	-3.0889604	0.061957784	0.0145975035
1276877674159	2.4925237	8.390134	-1.334794	-0.9529104	0.0	1.0625	-50.1875	26.0	-2.4501216	-0.15133749	-0.28877386
1276877674199	2.7240696	6.742072	-1.3756552	-2.4060745	0.0	0.8125	-50.4375	24.5	-2.2367322	-0.18697238	-0.38398463
1276877674239	3.568531	7.273266	-1.7570249	-1.5167799	0.0	0.0625	-50.9375	23.0	-2.0878572	-0.21356824	-0.45612893
1276877674279	6.0474343	8.730643	-2.070293	1.0137796	0.0	0.8125	-51.4375	23.25	-2.0301664	-0.19251889	-0.605788
1276877674309	5.284695	10.119919	-1.3075534	1.6846714	0.0	1.0625	-50.9375	22.5625	-2.1861606	-0.11403315	-0.48125514
1276877674349	3.990762	12.258313	0.53119355	3.0958529	0.0	1.3125	-51.1875	22.0625	-2.5233057	0.041181445	-0.3147343
1276877674389	-4.140586	12.830367	1.2666923	3.7346678	0.0	0.5625	-51.1875	22.0625	2.621866	0.093679726	0.3121662
1276877674429	-7.8180795	18.34661	-1.0760075	10.165285	0.0	-0.9375	-50.9375	21.3125	2.3043723	-0.053902075	0.40282917
1276877674469	-1.8387469	15.636159	0.23154591	5.9389553	0.0	-2.4375	-51.1875	22.3125	2.7922096	0.014705961	0.1170582
1276877674499	3.173541	12.871228	-0.38136974	3.4555264	0.0	-4.375	-50.9375	24.25	-2.80607	-0.02876016	-0.24173921
1276877674539	1.334794	10.147159	-1.1441092	0.49167442	0.0	-4.625	-50.4375	26.25	-3.0445335	-0.11132645	-0.13079268
1276877674579	-1.4982382	6.1291566	-1.2666923	-3.3711405	0.0	-4.375	-49.1875	28.1875	2.4289982	-0.19812217	0.2397431
1276877674619	-0.3405087	2.8738933	0.313268	-6.895749	0.0	-3.1875	-48.6875	29.9375	2.892245	0.10782773	0.11793361
1276877674659	0.9942854	1.6889231	-1.1168685	-7.5508885	0.0	-1.6875	-47.4375	30.6875	-1.8300836	-0.5179708	-0.5320764
1276877674731	1.56634	4.372132	-3.8681788	-3.7624989	0.0	-0.6875	-46.6875	30.9375	-1.280825	-0.6944815	-0.34401032
1276877674769	-0.42223078	14.369467	-4.862464	5.3691006	0.0	1.0625	-46.9375	31.1875	3.1197646	-0.32616237	0.029375434
1276877674800	-0.88532263	13.947236	-6.5513873	5.628046	0.0	1.8125	-46.4375	30.9375	3.0058117	-0.4383637	0.06339152
1276877674839	1.7297841	4.7126403	-6.8237944	-1.3352098	0.0	2.3125	-46.6875	31.1875	-0.8456454	-0.93652856	-0.35178444
1276877674879	-4.944186	15.4046135	2.7240696	6.59968	0.0	2.5625	-46.25	32.125	2.8511255	0.16681023	0.3105689
1276877674919	3.255263	10.732834	1.7978859	1.5521727	0.0	2.3125	-45.5	32.625	-2.7650867	0.15894946	-0.2944811
1276877674959	1.56634	9.80665	1.1849703	0.19474792	0.0	2.0625	-45.5	33.375	-2.9062657	0.11875943	-0.15838441
1276877674999	-3.9090397	10.147159	1.5390993	1.1758022	0.0	2.5625	-45.0	32.625	2.7962353	0.14060451	0.3677134
1276877675039	-3.445948	11.182305	0.313268	1.8987598	0.0	3.5625	-46.0	31.625	2.8418603	0.026765864	0.29892683
1276877675079	0.23154591	7.6954966	0.5720546	-2.0864477	0.0	3.3125	-47.1875	30.4375	-3.002718	0.074166365	-0.030079419
1276877675119	0.8036005	7.3958488	-0.84446156	-2.3194966	0.0	3.0625	-48.1875	28.4375	-2.7956767	-0.11302857	-0.108231016
1276877675159	1.56634	8.008764	-1.3075534	-1.5420618	0.0	1.8125	-49.4375	27.0	-2.6071956	-0.15887913	-0.19314025
1276877675199	2.3699405	7.0553403	-1.6889231	-2.174684	0.0	0.3125	-49.9375	25.75	-2.306337	-0.22314316	-0.32406536
1276877675239	4.2495484	7.3141265	-2.3018389	-1.0400333	0.0	-0.1875	-50.1875	24.5	-2.0246975	-0.2656833	-0.52633595
1276877675269	6.6331096	9.302697	-2.1111538	1.8120966	0.0	0.3125	-49.9375	24.0	-2.0778306	-0.18271737	-0.619418
1276877675299	6.1291566	10.310603	-1.0351465	2.232728	0.0	1.3125	-50.4375	23.75	-2.2099113	-0.086086355	-0.5363299
1276877675339	3.255263	12.026767	1.0351465	2.6958046	0.0	1.8125	-50.4375	23.0	-2.6351855	0.08289035	-0.26433453
1276877675379	-4.8216033	13.6748295	0.040861044	4.693367	0.0	2.0625	-50.6875	22.5625	2.560421	0.0028180033	0.33898
1276877675419	-7.5456724	19.381754	-0.27240697	10.993921	0.0	0.3125	-50.6875	23.0	2.4615464	-0.013096503	0.37126428
1276877675459	-0.14982383	15.363752	-0.10896278	5.558219	0.0	-1.9375	-50.1875	24.5	3.0414138	-0.0070917425	0.009751464
1276877675499	3.8681788	11.917805	-0.95342433	2.7594109	0.0	-3.625	-49.4375	26.25	-2.65848	-0.07594596	-0.31384423
1276877675539	0.6537767	7.246025	-0.95342433	-2.4689856	0.0	-4.875	-48.1875	28.9375	3.1181533	-0.1303041	-0.08998192
1276877675569	-0.9125633	3.6774938	0.5720546	-5.974682	0.0	-3.625	-47.4375	31.375	2.7648175	0.14984494	0.24323498
1276877675609	-1.6480621	0.88532263	1.3075534	-7.524195	0.0	-1.9375	-46.4375	32.625	2.3129044	0.61000496	1.0778412
1276877675639	-0.5720546	1.5390993	-0.5720546	-8.067881	0.0	0.0625	-46.0	33.875	2.4103012	-0.3352441	0.35585806
1276877675669	-0.3405087	2.9556155	-2.6014864	-5.854519	0.0	1.8125	-46.0	33.625	0.614988	-0.7184904	0.11470169
1276877675699	0.040861044	6.8237944	-3.759216	-2.0157871	0.0	2.8125	-45.75	32.875	-2.7115066	-0.50352496	-0.0059879525
1276877675739	1.1441092	13.865514	-2.982856	4.4221544	0.0	3.75	-45.75	32.625	-2.8186069	-0.21120168	-0.08232822
1276877675779	1.4165162	15.132206	-8.662541	7.6870575	0.0	4.5	-45.75	31.875	-2.1194017	-0.51804245	-0.09333737
1276877675819	1.9885708	11.372991	-7.082581	3.7381744	0.0	5.25	-45.5	32.375	-1.9129267	-0.5502489	-0.1731004
1276877675859	-1.7297841	14.056199	0.7218784	4.37397	0.0	5.5	-45.0	33.375	3.1405404	0.050927997	0.12244637
1276877675899	0.7218784	5.243834	0.61291564	-4.4779944	0.0	5.25	-44.75	34.125	-2.8589005	0.11527772	-0.13680248
1276877675939	0.10896278	12.762266	4.1814466	3.6236067	0.0	5.5	-44.75	34.625	-3.0166247	0.3166083	-0.008537679
1276877675979	-4.5628166	9.534244	-1.7978859	0.9149866	0.0	6.0	-44.75	33.875	2.6535242	-0.16848361	0.4463583
1276877676019	0.08172209	10.269742	0.50395286	0.4757738	0.0	6.25	-45.75	32.125	-2.9512484	0.049030736	-0.007957391
1276877676059	0.313268	7.205164	0.5720546	-2.5720272	0.0	6.5	-46.6875	29.9375	-2.8925614	0.07915442	-0.043450896
1276877676099	1.1168685	9.234595	-1.0351465	-0.44734097	0.0	5.75	-47.4375	27.9375	-2.674865	-0.11082747	-0.12035938
1276877676139	0.7627395	7.7363577	-1.4573772	-1.8973551	0.0	4.75	-48.6875	26.5	-2.6368861	-0.18532027	-0.098273955
1276877676169	0.9942854	6.66035	-2.8330324	-2.500835	0.0	4.5	-49.6875	24.75	-1.8990624	-0.39821947	-0.14818989
1276877676209	3.405087	7.6954966	-2.1383946	-1.1240225	0.0	4.75	-50.1875	24.25	-2.0456536	-0.24884455	-0.41658095
1276877676249	5.8567495	9.888372	-1.879608	1.838707	0.0	5.5	-50.6875	23.75	-2.0746996	-0.16211322	-0.53472847
1276877676279	4.862464	10.760075	-1.1168685	2.0537949	0.0	6.0	-50.6875	23.25	-2.196425	-0.09430724	-0.42443177
1276877676309	3.5276701	12.258313	0.92618364	2.9827404	0.0	6.5	-50.6875	22.5625	-2.4776835	0.072481565	-0.28020638
1276877676369	-5.47538	12.367276	-0.040861044	3.7185478	0.0	6.25	-50.6875	22.0625	2.5474536	-0.0030211096	0.41679284
1276877676409	-6.891896	17.883516	0.5720546	9.367437	0.0	4.75	-50.6875	22.3125	2.6156504	0.029839205	0.36783713
1276877676449	-1.3756552	14.982383	-0.23154591	5.2405367	0.0	2.8125	-50.6875	23.5	3.061041	-0.015388594	0.09156145
1276877676479	3.214402	12.680544	-1.3075534	3.340147	0.0	1.3125	-49.6875	26.25	-2.5786152	-0.099622644	-0.24826147
1276877676509	2.4925237	10.691973	-1.3075534	1.2495995	0.0	0.3125	-49.1875	28.1875	-2.6670754	-0.118541166	-0.22903058
1276877676549	0.5720546	6.782933	-0.5720546	-2.9756417	0.0	0.8125	-48.1875	30.1875	-2.9572873	-0.083841994	-0.08413824
1276877676589	-1.0351465	1.8387469	1.3756552	-7.2877326	0.0	2.3125	-47.1875	31.375	2.737048	0.5777369	0.5127411
1276877676629	-0.9942854	-0.23154591	-0.29964766	-8.742693	0.0	3.5625	-46.6875	31.875	2.1843398	-0.2854976	1.7995951
1276877676659	0.08172209	2.4516625	-3.1054392	-5.849242	0.0	5.0	-46.0	32.625	-0.3936152	-0.9022369	-0.033320997
1276877676699	0.6946377	7.5865335	-3.9771416	-1.212718	0.0	6.25	-46.0	32.625	-2.2247624	-0.48113415	-0.09130735
1276877676729	1.2258313	16.657684	-3.8273177	7.32897	0.0	7.5	-46.25	32.375	-2.6710377	-0.22525455	-0.07345713
1276877676759	0.23154591	15.976667	-7.8589406	7.9998226	0.0	7.75	-46.4375	31.625	-2.3263953	-0.45710593	-0.014491739
1276877676789	-0.27240697	9.152874	-8.689782	2.8172007	0.0	7.5	-46.4375	31.375	-0.5793599	-0.75922877	0.029753122
1276877676819	-1.2258313	14.1787815	-1.525479	4.506546	0.0	7.75	-46.0	31.875	-3.00192	-0.10678131	0.08624089
1276877676859	-1.7297841	11.876944	1.879608	2.3418837	0.0	7.25	-45.5	32.625	-3.1259239	0.15534294	0.14462534
1276877676899	1.9477097	10.18802	1.56634	0.6834755	0.0	7.0	-45.0	33.375	-2.770668	0.14987613	-0.18889718
1276877676939	-1.56634	9.507003	1.56634	-0.0449934	0.0	7.25	-45.25	32.875	3.1365051	0.16115507	0.1632895
1276877676979	-3.336985	8.730643	-0.7218784	-0.43217945	0.0	7.0	-46.25	31.625	2.7995346	-0.07708102	0.3650813
1276877677019	0.50395286	9.80665	0.6537767	0.034679413	0.0	7.0	-46.9375	29.9375	-2.8637955	0.0664807	-0.051343728
1276877677059	0.313268	7.8861814	-0.08172209	-1.913826	0.0	6.5	-48.1875	28.1875	-2.846809	-0.0103541585	-0.039702788
1276877677099	2.1792557	9.384419	-1.4982382	-0.05671692	0.0	5.75	-48.9375	27.0	-2.435623	-0.15427779	-0.22817641
1276877677139	1.607201	7.0553403	-2.3018389	-2.2132726	0.0	5.25	-49.6875	25.75	-2.1342378	-0.30798355	-0.22397718
1276877677179	2.8738933	7.5456724	-2.3018389	-1.4105263	0.0	4.75	-49.9375	25.0	-2.0559978	-0.27771086	-0.36390388
1276877677219	4.3312707	8.049625	-1.2666923	-0.5783844	0.0	5.0	-50.1875	24.25	-2.146171	-0.13769695	-0.49363863
1276877677259	5.243834	10.61025	-1.8387469	2.1706705	0.0	6.0	-50.6875	23.25	-2.1033704	-0.15412857	-0.45901567
1276877677299	3.990762	11.182305	-1.0760075	2.1150913	0.0	6.75	-50.6875	22.5625	-2.2363765	-0.090378895	-0.34279245
1276877677339	1.2258313	11.876944	2.0294318	2.3046265	0.0	7.0	-51.4375	21.3125	-2.7477543	0.1683597	-0.102846846
1276877677379	-4.3312707	13.947236	-0.50395286	4.8063326	0.0	7.0	-51.6875	21.0625	2.720036	-0.034493495	0.30110452
1276877677419	-7.3141265	18.34661	0.8036005	9.960501	0.0	5.25	-51.6875	21.8125	2.6021318	0.040664535	0.37935382
1276877677459	0.38136974	13.593107	-0.8036005	3.8155298	0.0	4.5	-51.1875	22.8125	-2.8498917	-0.059026334	-0.028048754
1276877677499	3.445948	10.95076	-1.2666923	1.7431641	0.0	3.75	-50.4375	24.75	-2.3753448	-0.109893136	-0.30486658
1276877677539	0.42223078	5.8976107	-0.23154591	-3.8894124	0.0	4.25	-49.4375	27.0	-2.8409717	-0.03914074	-0.07147159
1276877677579	-1.525479	1.920469	0.95342433	-7.1752424	0.0	6.0	-47.6875	28.1875	2.5963583	0.37076104	0.67127174
1276877677619	-1.6480621	1.6889231	-0.3405087	-7.4224277	0.0	7.25	-46.9375	29.1875	2.2734811	-0.1433075	0.77315384
1276877677649	-0.14982383	3.5957718	-2.7240696	-5.293051	0.0	8.75	-46.4375	29.6875	-0.981664	-0.6479145	0.041642576
1276877677689	0.6537767	7.246025	-3.5276701	-1.7210608	0.0	9.0	-46.4375	29.6875	-2.0536985	-0.45147258	-0.08998192
1276877677729	1.4165162	15.4046135	-4.8216033	6.396944	0.0	9.25	-46.9375	29.4375	-2.3897603	-0.30213988	-0.09169616
1276877677769	2.7921712	13.633968	-8.689782	6.6004696	0.0	9.25	-46.9375	29.4375	-2.3897603	-0.30213988	-0.09169616
1276877677799	-0.61291564	9.193735	-3.759216	0.14483929	0.0	9.25	-46.4375	29.9375	-2.5901792	-0.38736948	0.06656816
1276877677839	-4.3312707	16.467001	2.6832085	7.430567	0.0	9.5	-45.75	29.9375	3.0751753	0.15629928	0.25720155
1276877677879	1.56634	8.962189	0.7218784	-0.6800213	0.0	9.0	-45.75	30.4375	-2.6815042	0.07917855	-0.17302448
1276877677919	-1.4573772	9.043911	1.6480621	-0.49899864	0.0	8.75	-46.0	30.1875	-3.10686	0.17800383	0.15977107
1276877677959	-4.5628166	7.1234417	0.92618364	-1.2966242	0.0	9.0	-46.6875	28.6875	2.655603	0.109050415	0.5696929
1276877677999	0.42223078	11.454713	0.95342433	1.695425	0.0	8.75	-48.1875	27.9375	-2.8221924	0.08298673	-0.036844198
1276877678039	0.46309182	8.771504	0.50395286	-1.0084848	0.0	8.5	-49.1875	26.25	-2.7765357	0.057310678	-0.052746058
1276877678079	1.2258313	8.281172	-0.84446156	-1.3927584	0.0	7.75	-49.9375	25.25	-2.5053897	-0.100534424	-0.14695913
1276877678119	1.7297841	7.0553403	-1.4573772	-2.3976064	0.0	6.75	-50.6875	24.5	-2.237414	-0.19799355	-0.24043116
1276877678159	2.1792557	8.008764	-2.070293	-1.2523785	0.0	6.25	-50.6875	22.8125	-2.0759363	-0.24444577	-0.26567635
1276877678199	4.5628166	8.390134	-2.6014864	0.09190369	0.0	6.5	-50.6875	22.3125	-1.912442	-0.2659384	-0.49809477
1276877678239	5.8567495	9.534244	-1.3756552	1.4670248	0.0	6.75	-50.9375	21.8125	-2.0486054	-0.12232853	-0.55085754
1276877678279	4.140586	9.956474	-0.08172209	0.9767866	0.0	7.0	-50.9375	21.5625	-2.255016	-0.0075785555	-0.394111
1276877678319	-1.0351465	10.460427	0.50395286	0.71694374	0.0	6.5	-51.4375	21.3125	-3.082638	0.047906224	0.0986372
1276877678359	-7.3549876	18.619015	-0.42223078	10.216883	0.0	5.0	-51.9375	21.5625	2.5282133	-0.021088291	0.37621078
1276877678399	-6.1291566	16.930092	-0.27240697	8.200815	0.0	3.3125	-51.6875	22.0625	2.54471	-0.015128023	0.3473492
1276877678439	1.9885708	12.830367	-2.1383946	3.3518248	0.0	1.0625	-51.1875	22.8125	-2.5858717	-0.16323477	-0.15376595
1276877678479	3.8273177	9.80665	0.27240697	0.7239218	0.0	0.0625	-50.1875	25.25	-2.5362246	0.025871089	-0.37209716
1276877678519	-0.6946377	5.012288	-0.3405087	-4.7350135	0.0	0.3125	-49.1875	27.4375	2.8803864	-0.06719035	0.1377098
1276877678559	-1.9885708	2.2201166	0.3405087	-6.8067703	0.0	1.0625	-48.6875	29.1875	2.3793564	0.11375262	0.7304374
1276877678599	1.0351465	1.1849703	-2.1792557	-7.118744	0.0	2.0625	-48.6875	30.4375	-1.259367	-0.945455	-0.7180157
1276877678639	1.7570249	3.759216	-3.9771416	-4.0589113	0.0	2.8125	-48.6875	30.6875	-1.2560455	-0.7641851	-0.43722203
1276877678679	1.6889231	11.182305	-4.5219555	2.373026	0.0	3.3125	-48.1875	30.1875	-2.358661	-0.38037705	-0.14990234
1276877678719	-0.88532263	17.474907	-5.597963	8.5643425	0.0	4.0	-47.9375	29.9375	-3.0288713	-0.30964178	0.050619233
1276877678759	-1.6480621	6.851035	-7.9679036	0.8300915	0.0	5.25	-47.6875	30.1875	0.36876047	-0.8466912	0.23607126
1276877678799	-3.8273177	12.639683	-0.23154591	3.4018154	0.0	6.0	-46.6875	30.4375	2.884478	-0.017531013	0.2940252
1276877678839	-1.525479	13.633968	2.3699405	4.115591	0.0	6.75	-46.4375	31.1875	-3.1017191	0.17105997	0.111424685
1276877678879	2.8738933	10.991621	1.7297841	1.6853971	0.0	7.0	-46.25	31.625	-2.6863542	0.15109435	-0.25573716
1276877678919	-3.1463003	7.5865335	0.88532263	-1.545991	0.0	6.75	-46.25	31.625	2.8352165	0.10737959	0.39313275
1276877678959	-4.903325	8.62168	0.95342433	0.15753555	0.0	6.75	-47.1875	30.1875	2.6706526	0.09583174	0.5171022
1276877678999	0.95342433	10.310603	1.7978859	0.70286655	0.0	5.75	-48.1875	28.1875	-2.865657	0.1719178	-0.09220806
1276877679039	0.7218784	8.962189	0.23154591	-0.8124552	0.0	4.25	-49.4375	26.25	-2.851633	0.025746772	-0.08037359
1276877679079	3.255263	8.076866	-1.2666923	-1.0068197	0.0	2.8125	-50.4375	24.5	-2.2593575	-0.14444685	-0.3831204
1276877679119	3.173541	6.782933	-1.607201	-2.1474962	0.0	1.8125	-51.4375	23.5	-2.0888863	-0.21141186	-0.43761605
1276877679159	3.255263	8.281172	-1.9885708	-0.6891413	0.0	1.3125	-52.1875	23.0	-2.102827	-0.21987191	-0.37453714
1276877679199	5.5571017	8.471856	-2.1792557	0.5568857	0.0	1.8125	-52.4375	22.0625	-1.9639821	-0.21186249	-0.5805456
1276877679239	4.372132	10.760075	-2.4516625	2.0637074	0.0	2.5625	-51.9375	21.5625	-2.0487962	-0.20803384	-0.38595057
1276877679279	2.2609777	10.882658	-0.27240697	1.3117342	0.0	2.8125	-52.1875	21.5625	-2.55961	-0.02450304	-0.20484556
1276877679309	0.19068487	11.114203	1.0351465	1.3572836	0.0	2.8125	-51.9375	20.8125	-2.9975696	0.09285575	-0.01715518
1276877679349	-4.0588636	15.472715	-0.61291564	6.201315	0.0	2.0625	-51.9375	21.3125	2.6176097	-0.038297527	0.25654364
1276877679389	-8.008764	18.428331	0.6946377	10.298727	0.0	0.3125	-52.1875	22.3125	2.4334607	0.034556724	0.40996516
1276877679429	0.5720546	13.021052	-0.88532263	3.2569962	0.0	-1.4375	-51.1875	23.5	-3.1010392	-0.067821935	-0.043904826
1276877679469	4.2495484	11.182305	-1.4165162	2.2394753	0.0	-2.4375	-50.6875	26.0	-2.4787471	-0.117863715	-0.3631683
1276877679509	0.42223078	5.5162406	0.27240697	-4.2675714	0.0	-2.9375	-49.6875	27.9375	-3.1131594	0.049198955	-0.07639425
1276877679549	-0.95342433	1.56634	1.0760075	-7.680567	0.0	-1.1875	-48.1875	30.1875	2.6311321	0.530655	0.5467888
1276877679589	-0.6946377	0.6946377	-0.29964766	-8.7796	0.0	0.8125	-46.9375	31.875	2.134948	-0.29606187	0.7853982
1276877679629	-0.10896278	3.0645783	-4.630918	-4.25247	0.0	2.8125	-46.0	32.375	-0.05720685	-0.9859042	0.035540584
1276877679669	0.95342433	8.008764	-4.5219555	-0.5601692	0.0	4.75	-45.5	32.875	-2.1672714	-0.5109958	-0.118489966
1276877679709	-0.61291564	17.161638	-3.9771416	7.820463	0.0	5.25	-45.25	32.625	-2.9745524	-0.22758593	0.035699114
1276877679749	1.2666923	10.378705	-9.615966	4.398589	0.0	6.25	-45.5	32.875	-1.1067866	-0.743585	-0.12144662
1276877679789	-2.8330324	13.824653	-0.53119355	4.3152924	0.0	7.0	-45.0	33.875	3.0739782	-0.03762364	0.2021277
1276877679819	-2.4108016	12.9529505	2.1792557	3.5477524	0.0	6.75	-44.25	34.125	3.1059527	0.1639194	0.18401438
1276877679859	0.38136974	7.8861814	0.84446156	-1.866221	0.0	7.0	-44.5	34.125	-2.9091864	0.10655111	-0.048321597
1276877679899	0.42223078	9.302697	2.6423476	-0.12675095	0.0	6.75	-44.5	32.875	-2.9436424	0.2764817	-0.045356866
1276877679939	-4.9850473	8.281172	0.38136974	-0.13328838	0.0	6.5	-45.75	31.625	2.6451542	0.039434955	0.54186946
1276877679979	0.38136974	11.073342	0.7218784	1.2967482	0.0	6.75	-46.9375	29.6875	-2.8909523	0.06506007	-0.034426738
1276877680019	-0.040861044	8.771504	0.313268	-1.029458	0.0	6.25	-47.9375	27.9375	-2.940945	0.035698723	0.004658351
1276877680059	0.7627395	8.62168	-0.9942854	-1.0943747	0.0	4.75	-49.1875	27.0	-2.738838	-0.11437385	-0.08823789
1276877680099	2.4925237	7.014479	-1.1168685	-2.2791681	0.0	3.5625	-49.6875	25.5	-2.3160083	-0.14892198	-0.34142396
1276877680139	3.405087	7.8180795	-1.7978859	-1.0917559	0.0	3.0625	-50.4375	25.25	-2.1624334	-0.20779248	-0.41076422
1276877680179	3.486809	9.343558	-2.0294318	0.37070274	0.0	2.8125	-51.1875	24.5	-2.190263	-0.20075238	-0.3571722
1276877680219	4.862464	11.141444	-2.1383946	2.5362864	0.0	3.3125	-50.9375	23.5	-2.1492434	-0.17412706	-0.41151226
1276877680259	5.5571017	10.991621	-0.46309182	2.518591	0.0	3.5625	-51.1875	22.5625	-2.2425349	-0.037581485	-0.46809858
1276877680299	-0.19068487	10.732834	1.2666923	1.0023556	0.0	3.5625	-51.1875	21.8125	-3.0460076	0.1174585	0.01776463
1276877680339	-5.434519	14.750836	-0.5720546	5.9238424	0.0	3.3125	-51.1875	21.5625	2.5056605	-0.036373988	0.3529904
1276877680379	-5.5571017	18.700737	-0.38136974	9.706022	0.0	1.8125	-51.6875	23.0	2.608707	-0.019545967	0.28884882
1276877680419	-0.42223078	13.184497	-0.42223078	3.3913622	0.0	0.0625	-51.4375	25.0	3.0738387	-0.031997457	0.03201385
1276877680459	2.4516625	10.732834	-1.7297841	1.3376999	0.0	-1.6875	-51.1875	26.75	-2.6590989	-0.15584634	-0.22457334
1276877680499	0.61291564	6.782933	-0.46309182	-2.9803553	0.0	-2.1875	-49.9375	28.6875	-3.0500884	-0.06789155	-0.0901167
1276877680539	-0.6946377	1.879608	0.92618364	-7.599103	0.0	-0.4375	-48.6875	29.6875	2.782422	0.43295315	0.35399744
1276877680579	-0.3405087	0.3405087	-0.040861044	-9.323368	0.0	1.3125	-47.6875	30.9375	2.2757149	-0.08465004	0.7853982
1276877680619	0.14982383	3.173541	-2.982856	-5.448756	0.0	3.0625	-47.1875	31.375	-0.5171726	-0.7538791	-0.047175273
1276877680661	0.08172209	6.891896	-5.202973	-1.1709204	0.0	3.75	-46.9375	31.875	-0.9925453	-0.6466219	-0.011857153
1276877680699	0.95342433	16.04477	-3.445948	6.6316643	0.0	4.0	-47.1875	31.875	-2.8334813	-0.21119554	-0.05935296
1276877680739	-0.040861044	15.091345	-7.7363577	7.15217	0.0	4.5	-47.4375	31.375	-2.5330663	-0.47370327	0.0027075747
1276877680779	-0.27240697	4.3312707	-6.428804	-2.050128	0.0	4.75	-47.1875	31.875	-0.08275033	-0.9770054	0.06281036
1276877680819	-7.7363577	13.184497	4.2904096	6.0706854	0.0	5.25	-46.9375	31.625	2.7132475	0.27362385	0.5306398
1276877680859	1.0351465	13.947236	2.1792557	4.3477163	0.0	5.25	-46.9375	31.625	2.7132475	0.27362385	0.5306398
1276877680899	1.6889231	8.430995	-0.040861044	-1.2080564	0.0	4.5	-47.4375	30.9375	-2.7212887	-0.004752079	-0.19770622
1276877680939	-4.7943625	4.862464	2.8738933	-2.3979573	0.0	3.75	-47.6875	29.6875	2.5035987	0.3983611	0.7783461
1276877680979	-1.1168685	12.53072	1.7978859	2.9015646	0.0	3.0625	-48.6875	27.4375	3.1042652	0.14195056	0.08889553
1276877681019	1.9885708	11.604536	0.46309182	1.9761381	0.0	1.5625	-49.9375	25.25	-2.7895703	0.039312523	-0.16971312
1276877681059	1.9885708	6.6331096	-0.88532263	-2.8255076	0.0	0.3125	-50.6875	23.25	-2.4209816	-0.1271587	-0.29126838
1276877681099	3.759216	7.164303	-0.53119355	-1.6985617	0.0	-0.6875	-51.9375	21.8125	-2.2432802	-0.06556098	-0.4832234
1276877681139	3.0645783	8.049625	-2.7513103	-0.7646475	0.0	-1.1875	-52.6875	21.0625	-1.8445568	-0.30918363	-0.36376786
1276877681179	3.5957718	9.765789	-3.173541	1.0732203	0.0	-0.6875	-52.4375	20.8125	-1.87495	-0.29599237	-0.35279647
1276877681219	6.3607025	10.882658	-0.3405087	2.8031368	0.0	0.0625	-52.1875	20.3125	-2.1970546	-0.027006807	-0.52893
1276877681259	1.6889231	12.408136	2.1792557	2.9041119	0.0	0.5625	-52.1875	19.3125	-2.875592	0.17230092	-0.13528278
1276877681299	-6.1700177	14.628253	0.14982383	6.0702934	0.0	0.0625	-52.1875	19.3125	2.344729	0.009436706	0.39914668
1276877681339	-6.782933	16.249075	-0.19068487	7.802353	0.0	-1.6875	-52.6875	19.3125	2.2810113	-0.01082904	0.39544564
1276877681379	-1.6889231	14.410328	0.9942854	4.7363415	0.0	-3.4375	-52.4375	20.5625	2.7647104	0.06842208	0.116670005
1276877681419	2.6832085	11.686258	-1.1849703	2.2421007	0.0	-4.875	-51.4375	23.0	-2.7796168	-0.0985072	-0.22569199
1276877681489	-0.53119355	3.5957718	-0.5720546	-6.127114	0.0	-5.625	-50.4375	25.5	2.5067015	-0.15610242	0.1466665
1276877681529	-0.040861044	1.1168685	1.0351465	-8.2833	0.0	-4.375	-48.6875	28.1875	3.0273843	0.7471083	0.03656906
1276877681569	0.7218784	2.5606253	-1.920469	-6.5254745	0.0	-3.1875	-47.1875	30.4375	-1.328173	-0.6252489	-0.2747835
1276877681609	1.56634	6.1291566	-5.7886477	-1.2317781	0.0	-1.9375	-46.9375	31.875	-0.9143429	-0.74106103	-0.25020054
1276877681649	1.56634	10.337844	-5.09401	1.8240585	0.0	-0.9375	-46.4375	32.625	-2.5593681	-0.45334968	-0.15037143
1276877681679	-1.525479	15.894946	-6.1700177	7.311922	0.0	-0.1875	-46.6875	32.875	2.819426	-0.36872703	0.09567954
1276877681719	-3.1463003	13.715691	-7.43671	6.1095057	0.0	0.8125	-47.4375	33.625	2.2571497	-0.4861697	0.22549298
1276877681759	-0.27240697	13.824653	0.8036005	4.044017	0.0	1.3125	-46.4375	34.375	-3.130856	0.0580515	0.019701885
1276877681800	-0.3405087	5.243834	1.1441092	-4.4286647	0.0	1.3125	-46.0	35.375	3.103932	0.21437764	0.06484403
1276877681839	2.9556155	13.824653	3.3778462	4.72836	0.0	0.8125	-45.0	35.5625	-2.9175584	0.23453814	-0.21062231
1276877681879	-3.1463003	9.112013	-1.2258313	-0.08910656	0.0	0.8125	-45.0	34.875	2.6967335	-0.12648319	0.33247402
1276877681919	-2.1111538	6.891896	0.14982383	-2.5970979	0.0	0.8125	-46.0	33.125	2.784567	0.02078279	0.29724857
1276877681959	-0.040861044	8.349273	1.4573772	-1.3310394	0.0	0.3125	-47.1875	30.9375	-3.1394792	0.17280832	0.004893925
1276877681999	0.08172209	9.507003	-0.61291564	-0.2795601	0.0	-0.4375	-48.9375	28.1875	3.1409187	-0.06437844	-0.008595777
1276877682039	1.4165162	8.853226	-1.4982382	-0.7164993	0.0	-1.6875	-49.9375	26.0	-2.7994351	-0.16557547	-0.15865527
1276877682079	1.9885708	6.2108784	-2.2609777	-2.9043722	0.0	-2.9375	-50.9375	24.25	-2.056826	-0.33373028	-0.3098621
1276877682119	4.2086873	8.19945	-1.9477097	-0.38658714	0.0	-2.6875	-51.6875	22.8125	-2.1053348	-0.20826413	-0.4742222
1276877682149	4.671779	10.119919	-1.879608	1.4969425	0.0	-2.6875	-52.1875	21.8125	-2.1759434	-0.16706012	-0.4324931
1276877682179	5.2165933	11.223166	-2.0294318	2.7349167	0.0	-1.9375	-52.6875	20.8125	-2.1256237	-0.16253108	-0.43509802
1276877682219	3.1463003	10.923519	0.46309182	1.570385	0.0	-1.1875	-52.9375	19.8125	-2.588409	0.040715333	-0.28043923
1276877682259	-0.6537767	12.639683	2.1111538	3.0247946	0.0	-1.1875	-52.9375	19.0625	2.9999397	0.1652812	0.051678084
1276877682289	-5.434519	15.935807	0.10896278	7.0306835	0.0	-1.6875	-52.9375	19.3125	2.380953	0.0064715436	0.3286576
1276877682319	-8.349273	18.727978	1.0760075	10.726379	0.0	-3.4375	-52.6875	20.0625	2.3114064	0.05242775	0.4193709
1276877682359	-2.1792557	14.601013	0.53119355	4.9656525	0.0	-5.125	-51.9375	21.8125	2.6470532	0.035966504	0.14816003
1276877682399	3.336985	12.14935	-0.8036005	2.818243	0.0	-6.375	-51.1875	23.75	-2.7940037	-0.06369512	-0.2680535
1276877682439	1.0351465	7.5865335	-0.8036005	-2.1077676	0.0	-6.375	-49.9375	25.75	-3.1202395	-0.104569316	-0.13560784
1276877682469	-1.0351465	3.0237172	0.38136974	-6.5879803	0.0	-5.125	-48.9375	27.9375	2.5817893	0.11876576	0.32983667
1276877682499	-0.88532263	1.5390993	1.1849703	-7.6719894	0.0	-3.1875	-47.6875	29.4375	2.623403	0.5884945	0.52200055
1276877682539	0.38136974	2.0294318	-0.7627395	-7.6053305	0.0	-1.6875	-46.9375	30.6875	-2.6370509	-0.35382876	-0.18575312
1276877682579	1.1168685	3.7864566	-4.140586	-4.085715	0.0	-0.4375	-47.1875	32.125	-0.88047653	-0.80923617	-0.28683025
1276877682619	2.1792557	8.853226	-3.9499009	0.1296711	0.0	0.0625	-46.6875	32.375	-2.3767827	-0.40881413	-0.24135551
1276877682662	-0.42223078	16.88923	-6.0474343	8.137594	0.0	0.3125	-46.9375	32.625	3.0838947	-0.34374192	0.024994794
1276877682699	-2.1792557	8.158588	-7.6273947	1.5726671	0.0	1.0625	-46.6875	33.375	1.0971006	-0.7345938	0.26101798
1276877682739	-4.0180025	14.369467	1.7570249	5.2171	0.0	2.0625	-45.75	33.875	2.8816867	0.117218055	0.27265707
1276877682779	1.1849703	13.252599	2.152015	3.671729	0.0	2.8125	-45.25	35.125	-2.979714	0.1603505	-0.08917703
1276877682819	3.718355	9.80665	0.46309182	0.69149303	0.0	3.5625	-44.5	35.375	-2.6662085	0.044126105	-0.36241862
1276877682859	-2.3699405	8.471856	0.95342433	-0.95803547	0.0	4.0	-44.5	35.375	2.940449	0.10795801	0.27277017
1276877682899	-3.568531	10.651112	0.7218784	1.4495344	0.0	3.75	-45.25	33.625	2.8525522	0.064175755	0.3232843
1276877682939	-0.7627395	9.043911	0.50395286	-0.7166519	0.0	3.5625	-46.4375	31.1875	3.131135	0.055468805	0.084138244
1276877682979	-0.61291564	7.0553403	-0.23154591	-2.720953	0.0	2.5625	-48.4375	28.9375	3.081703	-0.03268375	0.08665503
1276877683019	1.4982382	7.668256	-1.56634	-1.8379436	0.0	1.8125	-49.6875	26.0	-2.5256865	-0.19784963	-0.19295114
1276877683059	0.6537767	7.082581	-0.9125633	-2.6356564	0.0	1.0625	-50.4375	24.75	-2.8379061	-0.12760359	-0.09204685
1276877683099	1.1441092	7.668256	-1.3756552	-1.9324164	0.0	0.5625	-50.9375	23.5	-2.6291878	-0.1756045	-0.14810815
1276877683139	6.1291566	10.460427	-1.7978859	2.4497557	0.0	0.5625	-50.9375	22.8125	-2.1228662	-0.14722072	-0.5300153
1276877683179	5.366417	11.454713	-2.1111538	3.0177736	0.0	0.8125	-51.4375	22.5625	-2.1465824	-0.16537252	-0.4381233
1276877683219	2.982856	12.980191	1.607201	3.6084871	0.0	0.8125	-51.9375	21.3125	-2.71315	0.120093495	-0.22587903
1276877683259	-2.3699405	11.114203	0.23154591	1.5597811	0.0	0.3125	-52.1875	21.0625	2.6951659	0.020372441	0.21008882
1276877683299	-5.706926	17.583868	-0.14982383	8.680748	0.0	-0.6875	-52.1875	21.5625	2.4716136	-0.008104194	0.31382903
1276877683339	-3.445948	16.467001	0.95342433	7.044037	0.0	-2.4375	-51.6875	22.3125	2.664739	0.056610975	0.20628701
1276877683379	1.3075534	12.026767	0.040861044	2.2910557	0.0	-3.1875	-51.1875	24.25	-3.0451114	0.003377593	-0.108294934
1276877683419	1.334794	9.425281	-1.4982382	-0.17014122	0.0	-3.4375	-50.1875	26.75	-2.9489033	-0.1561085	-0.14068298
1276877683459	-0.27240697	3.5957718	0.42223078	-6.1759396	0.0	-2.4375	-49.4375	29.1875	2.9657633	0.11655799	0.07561314
1276877683499	-0.84446156	0.313268	1.4982382	-8.0585165	0.0	-0.9375	-48.4375	31.375	2.1490154	1.0295173	1.2155654
1276877683539	0.040861044	1.9885708	-1.0351465	-7.5644164	0.0	0.3125	-46.9375	32.625	-2.9679565	-0.47986406	-0.020545052
1276877683579	-0.27240697	4.2086873	-3.5957718	-4.264374	0.0	1.5625	-46.6875	32.625	0.26037896	-0.7059929	0.06463476
1276877683619	1.3075534	10.310603	-3.759216	1.2454958	0.0	2.5625	-46.25	32.625	-2.6382427	-0.3470599	-0.12614304
1276877683649	1.1441092	16.88923	-5.202973	7.9028397	0.0	3.3125	-46.0	32.625	-2.795155	-0.29819542	-0.067638606
1276877683679	-0.6537767	14.410328	-8.471856	6.922287	0.0	3.75	-46.0	32.875	-2.8202193	-0.5310271	0.04533753
1276877683719	-2.9147544	14.7916975	-4.944186	6.059511	0.0	4.75	-45.0	33.875	2.9225166	-0.31689566	0.1945607
1276877683759	-2.2609777	11.563675	-0.9125633	2.0112762	0.0	5.0	-44.25	34.375	3.0259144	-0.077295505	0.19308817
1276877683799	-0.6946377	4.5219555	-0.19068487	-5.2276807	0.0	5.0	-44.0	35.375	3.089742	-0.041655667	0.15242298
1276877683829	3.7864566	13.33432	4.7535014	4.8472614	0.0	6.0	-44.0	35.5625	-2.7785838	0.33036095	-0.27668002
1276877683859	-0.040861044	11.727119	0.14982383	1.9214973	0.0	6.0	-45.0	34.375	-2.9759257	0.01277507	0.0034843064
1276877683899	-2.2609777	7.8589406	-2.7513103	-1.1785173	0.0	6.5	-46.4375	32.375	2.7481296	-0.32454407	0.2801299
1276877683939	-0.10896278	7.7363577	1.7297841	-1.8785195	0.0	6.75	-47.9375	29.9375	-2.9897485	0.21995234	0.0140835745
1276877683979	-0.9125633	8.076866	0.38136974	-1.6694536	0.0	5.75	-49.4375	27.4375	-3.1361027	0.046884634	0.1125077
1276877684039	-0.08172209	7.4639506	-1.0351465	-2.2708178	0.0	5.25	-50.4375	25.75	-2.8938315	-0.13779894	0.010948467
1276877684079	-0.040861044	7.5865335	-0.88532263	-2.1685247	0.0	4.0	-50.9375	24.25	-2.9394634	-0.116169475	0.0053859446
1276877684119	3.0645783	8.049625	-1.1441092	-1.1177435	0.0	3.75	-51.1875	22.3125	-2.2056096	-0.1320582	-0.36376783
1276877684162	3.718355	10.732834	-1.9885708	1.7247972	0.0	3.75	-51.9375	21.3125	-2.1259217	-0.17331399	-0.3335058
1276877684199	4.671779	12.53072	-2.8738933	3.8719358	0.0	4.0	-51.9375	21.0625	-2.023992	-0.2116789	-0.35686344
1276877684239	4.140586	10.528529	-0.19068487	1.5084171	0.0	4.25	-52.1875	21.0625	-2.2919319	-0.016853094	-0.3746938
1276877684279	0.61291564	10.337844	1.7570249	0.69734	0.0	4.25	-52.1875	21.3125	-2.8994646	0.16806217	-0.059219215
1276877684309	-3.173541	15.894946	0.313268	6.405037	0.0	3.5625	-51.6875	22.0625	2.861673	0.019324794	0.19706598
1276877684349	-8.117727	18.700737	2.152015	10.693258	0.0	2.8125	-51.4375	23.0	2.5718238	0.105170585	0.4095413
1276877684389	-0.23154591	12.830367	0.10896278	3.026269	0.0	2.3125	-50.9375	24.5	-3.0857778	0.008490983	0.018044751
1276877684429	3.0645783	10.841797	-1.0760075	1.5112114	0.0	1.8125	-50.4375	26.5	-2.5249004	-0.095215425	-0.2754767
1276877684469	0.10896278	5.366417	0.313268	-4.429993	0.0	3.0625	-49.1875	28.4375	-3.0123875	0.058297474	-0.02030178
1276877684509	-1.8387469	1.6889231	1.7297841	-6.7692823	0.0	3.75	-47.9375	29.6875	2.506272	0.6058986	0.82784367
1276877684549	-1.2666923	2.2609777	0.27240697	-7.2007465	0.0	5.25	-46.6875	30.9375	2.664618	0.10472586	0.51067173
1276877684589	-0.8036005	4.3312707	-3.5276701	-4.163058	0.0	6.5	-45.75	31.875	0.4567523	-0.675228	0.18344861
1276877684629	-0.42223078	7.9679036	-3.255263	-1.1890802	0.0	6.5	-45.75	31.875	0.4567523	-0.675228	0.18344861
1276877684662	1.4165162	13.865514	-5.134871	5.04683	0.0	7.0	-46.0	31.625	-2.4515657	-0.35298634	-0.10180789
1276877684699	3.336985	13.184497	-7.8861814	5.9146185	0.0	7.0	-46.0	31.625	-2.4515657	-0.35298634	-0.10180789
1276877684739	1.2666923	11.413852	-5.284695	2.8348894	0.0	7.0	-46.25	31.625	-2.2549891	-0.43128896	-0.11052624
1276877684779	-1.9885708	15.091345	0.6537767	5.42918	0.0	7.0	-45.75	32.125	-3.1133368	0.042923655	0.13101417
1276877684809	-1.9477097	3.718355	-1.607201	-5.3118944	0.0	6.0	-45.75	32.875	2.3337553	-0.36566722	0.48251328
1276877684849	-1.1168685	11.917805	2.5606253	2.4341946	0.0	5.5	-45.5	33.125	-3.1122842	0.21074347	0.09344137
1276877684889	-2.8330324	11.413852	-0.08172209	1.953825	0.0	4.75	-45.5	32.625	2.9475036	-0.006948932	0.24329327
1276877684929	0.8036005	11.073342	-0.53119355	1.3085127	0.0	4.25	-46.25	31.1875	-2.8854046	-0.0478082	-0.07244372
1276877684969	1.7978859	4.5219555	1.9885708	-4.5497603	0.0	3.5625	-47.4375	29.4375	-2.694229	0.38793638	-0.3784274
1276877685009	0.3405087	9.234595	-0.27240697	-0.5617657	0.0	2.3125	-48.9375	26.75	-2.9803872	-0.029469963	-0.03685646
1276877685049	0.42223078	11.413852	-0.9942854	1.658205	0.0	0.8125	-50.4375	25.0	-3.011999	-0.08683372	-0.03697598
1276877685089	-0.0	5.47538	-0.9125633	-4.255744	0.0	-0.1875	-51.1875	23.25	3.1286788	-0.16514868	0.0
1276877685129	3.1054392	7.5865335	-1.7297841	-1.4286203	0.0	0.0625	-51.6875	21.8125	-2.0994513	-0.20796247	-0.38852844
