#timestamp	accel_x	accel_y	accel_z	accel_mag	temperature	mag_x	mag_y	mag_z	azimuth	pitch	roll
1276791197560	0.313268	4.944186	8.049625	-0.35468864	0.0	6.5	-13.5625	-39.875	-0.64695215	1.0190977	-0.0632763
1276791197600	0.27240697	4.903325	8.117727	-0.31906414	0.0	6.0	-13.5625	-40.125	-0.6188887	1.0267391	-0.05549851
1276791197650	0.313268	4.944186	8.008764	-0.38946247	0.0	5.25	-12.5625	-40.625	-0.5020375	1.0168233	-0.0632763
1276791197680	0.23154591	5.053149	8.117727	-0.24184895	0.0	5.25	-12.3125	-40.375	-0.48141158	1.0135382	-0.045790073
1276791197710	0.23154591	5.09401	8.076866	-0.25477505	0.0	5.0	-12.5625	-40.875	-0.45409784	1.007649	-0.04542328
1276791197741	0.19068487	5.134871	8.240311	-0.095523834	0.0	4.75	-12.3125	-41.125	-0.425925	1.0132262	-0.037118223
1276791197780	0.27240697	5.053149	8.19945	-0.17132473	0.0	4.75	-13.0625	-40.875	-0.47518578	1.0178446	-0.053856224
1276791197810	0.23154591	5.053149	8.158588	-0.20714569	0.0	4.0	-13.5625	-41.375	-0.41622883	1.0157895	-0.04579007
1276791197851	0.38136974	5.012288	8.049625	-0.3163948	0.0	3.5625	-13.8125	-41.125	-0.41894582	1.012576	-0.07594063
1276791197891	0.38136974	5.012288	7.9679036	-0.38561153	0.0	3.3125	-14.0625	-40.625	-0.41089314	1.0079812	-0.07594064
1276791197930	0.313268	4.944186	7.9270425	-0.45886326	0.0	3.3125	-14.0625	-41.125	-0.39467385	1.0122243	-0.0632763
1276791197960	0.38136974	4.862464	8.117727	-0.33635426	0.0	3.3125	-13.8125	-40.875	-0.4334192	1.0297647	-0.07827114
1276791198000	0.53119355	4.944186	8.19945	-0.21717072	0.0	3.5625	-14.0625	-40.875	-0.48526612	1.0256402	-0.10702748
1276791198040	0.6537767	4.9850473	8.19945	-0.18848515	0.0	3.3125	-13.8125	-41.125	-0.4625266	1.0207423	-0.13040331
1276791198081	0.50395286	4.9850473	8.308413	-0.10436249	0.0	2.5625	-13.3125	-41.125	-0.3669659	1.0281314	-0.10075062
1276791198121	0.84446156	4.7126403	8.049625	-0.44083118	0.0	2.3125	-13.3125	-41.125	-0.42895713	1.0342288	-0.17730896
1276791198160	1.1168685	4.6036777	7.8180795	-0.6653366	0.0	1.8125	-13.0625	-41.375	-0.41626745	1.026027	-0.23800527
1276791198200	0.7218784	5.09401	7.7772183	-0.4816742	0.0	2.0625	-13.3125	-41.375	-0.31312108	0.98635453	-0.14077388
1276791198240	0.53119355	5.434519	7.7363577	-0.33736324	0.0	2.5625	-13.5625	-40.875	-0.29475647	0.95618004	-0.09743485
1276791198280	0.6537767	5.284695	7.9270425	-0.2571249	0.0	2.8125	-13.8125	-41.375	-0.35839772	0.9792836	-0.12308595
1276791198311	0.6946377	5.09401	8.308413	-0.036226273	0.0	3.3125	-13.8125	-41.125	-0.4603409	1.0166758	-0.13552772
1276791198350	0.61291564	5.175732	8.240311	-0.056440353	0.0	3.0625	-13.8125	-41.375	-0.4068244	1.0068306	-0.11787211
1276791198390	0.50395286	5.09401	8.19945	-0.14053059	0.0	2.5625	-13.5625	-41.625	-0.3450796	1.012704	-0.09860961
1276791198430	0.50395286	5.053149	8.158588	-0.19671535	0.0	2.5625	-12.8125	-40.875	-0.33458176	1.0140414	-0.09940177
1276791198471	0.50395286	5.134871	8.19945	-0.11893463	0.0	2.0625	-12.5625	-40.375	-0.2874898	1.0091434	-0.09782993
1276791198510	0.8036005	5.053149	8.281172	-0.072283745	0.0	1.8125	-12.3125	-40.125	-0.3267316	1.0173441	-0.15770897
1276791198550	0.95342433	4.671779	8.158588	-0.35693645	0.0	1.8125	-12.0625	-40.375	-0.38013712	1.0419086	-0.20131712
1276791198601	0.92618364	4.6036777	8.117727	-0.4285288	0.0	1.8125	-12.0625	-40.875	-0.3755701	1.0463529	-0.1985332
1276791198640	0.84446156	4.6036777	8.076866	-0.47162342	0.0	1.3125	-11.3125	-41.625	-0.28322795	1.045592	-0.18141519
1276791198671	1.1441092	4.6036777	8.117727	-0.40450478	0.0	1.3125	-11.3125	-41.875	-0.3238753	1.0419525	-0.2435859
1276791198700	1.2258313	4.399372	8.308413	-0.32578182	0.0	0.8125	-11.3125	-42.125	-0.33606517	1.0681994	-0.27174506
1276791198730	1.3075534	4.2904096	8.158588	-0.49644756	0.0	0.3125	-10.8125	-42.125	-0.2961513	1.0681405	-0.29581976
1276791198770	1.0760075	4.440233	8.281172	-0.34878254	0.0	0.5625	-11.0625	-41.875	-0.28075412	1.0666466	-0.23774813
1276791198810	0.7218784	4.7126403	8.308413	-0.22751617	0.0	0.3125	-10.625	-41.875	-0.16146486	1.0498425	-0.15199772
1276791198850	0.84446156	4.5628166	8.240311	-0.34963512	0.0	0.8125	-10.8125	-41.375	-0.2428743	1.0579343	-0.1830039
1276791198890	0.6537767	4.4810944	8.281172	-0.36814213	0.0	1.0625	-11.0625	-41.875	-0.24436244	1.070377	-0.1448745
1276791198930	0.8036005	4.5219555	8.240311	-0.37285042	0.0	1.0625	-11.0625	-41.875	-0.24436244	1.070377	-0.1448745
1276791198960	0.61291564	4.7535014	8.349273	-0.17951107	0.0	1.0625	-11.5625	-41.875	-0.22588253	1.0496805	-0.1282323
1276791198990	0.61291564	4.944186	8.158588	-0.24719429	0.0	0.8125	-11.3125	-42.375	-0.1728694	1.0225837	-0.12333771
1276791199030	0.6946377	4.7943625	8.158588	-0.3181839	0.0	0.8125	-11.5625	-41.875	-0.20843214	1.0349615	-0.14388512
1276791199060	0.95342433	4.7535014	8.19945	-0.2811184	0.0	1.3125	-11.5625	-41.875	-0.29361442	1.0368129	-0.19794652
1276791199090	0.7218784	4.7126403	8.240311	-0.28652382	0.0	1.5625	-11.8125	-41.875	-0.29248443	1.0462823	-0.1519977
1276791199120	0.92618364	4.7943625	8.049625	-0.39175797	0.0	1.5625	-12.0625	-41.625	-0.31534287	1.0255288	-0.1908311
1276791199160	0.6946377	4.630918	8.076866	-0.47050095	0.0	1.8125	-12.3125	-41.875	-0.3260826	1.0453846	-0.14888994
1276791199200	0.50395286	4.7535014	7.668256	-0.77050686	0.0	2.0625	-12.5625	-41.875	-0.28007412	1.0133721	-0.10562264
1276791199230	0.38136974	5.175732	7.8180795	-0.42283344	0.0	2.8125	-13.0625	-41.625	-0.29612866	0.98477	-0.07355129
1276791199260	-0.0	5.243834	7.5456724	-0.61779976	0.0	3.5625	-13.8125	-40.625	-0.29224443	0.96347034	0.0
1276791199290	-0.14982383	5.284695	7.0553403	-0.9902859	0.0	4.5	-14.3125	-40.125	-0.31616542	0.9277204	0.028342923
1276791199320	-0.38136974	5.5571017	7.082581	-0.796113	0.0	5.5	-15.3125	-39.875	-0.34512988	0.9043656	0.06852002
1276791199360	-1.3756552	5.829509	7.273266	-0.38454914	0.0	7.25	-16.3125	-39.1875	-0.2832474	0.88188213	0.23174171
1276791199400	-2.6014864	6.0201936	7.5865335	0.22160721	0.0	10.5	-17.0625	-38.6875	-0.271759	0.85796857	0.40789154
1276791199440	-3.1054392	6.238119	4.6036777	-1.4548998	0.0	12.4375	-18.25	-37.1875	-0.15692574	0.58382946	0.46189934
1276791199480	-2.7513103	4.862464	6.891896	-0.93470097	0.0	14.6875	-18.5	-35.9375	-0.6840311	0.8895981	0.5149127
1276791199521	-3.9090397	6.6331096	8.19945	1.4410028	0.0	16.4375	-18.25	-35.0	-0.65203375	0.8168483	0.5325313
1276791199561	-3.405087	6.742072	6.4015636	0.094368935	0.0	17.875	-18.75	-34.0	-0.64820653	0.7030612	0.46767986
1276791199602	-3.5957718	6.4424243	5.47538	-0.6189308	0.0	19.375	-19.0	-33.0	-0.6088016	0.6384426	0.50907093
1276791199640	-3.8273177	6.4015636	5.9793324	-0.24732018	0.0	20.875	-20.25	-32.0	-0.794124	0.6757683	0.5388536
1276791199680	-3.8273177	6.469665	6.0201936	-0.1760912	0.0	21.875	-20.75	-31.25	-0.92199403	0.67527705	0.53420454
1276791199720	-4.0588636	6.510526	5.8567495	-0.15456009	0.0	22.125	-20.75	-31.25	-0.8355234	0.6520104	0.5574702
1276791199750	-4.2495484	6.469665	6.0201936	-6.3323975E-4	0.0	22.125	-20.75	-31.25	-0.8355234	0.6520104	0.5574702
1276791199781	-4.140586	6.510526	5.9793324	-0.04530716	0.0	22.125	-20.25	-31.5	-0.8283728	0.6592855	0.56645846
1276791199820	-3.9090397	6.3607025	6.0882955	-0.17303848	0.0	22.375	-20.0	-31.5	-0.94266385	0.6841116	0.5510574
1276791199850	-3.9771416	6.3607025	6.2108784	-0.067492485	0.0	22.375	-19.5	-31.75	-0.9368644	0.6915376	0.55879176
1276791199880	-4.099725	6.469665	6.0474343	-0.047768593	0.0	23.125	-19.25	-31.75	-0.91016877	0.6683415	0.5648198
1276791199920	-3.8681788	6.2108784	5.8567495	-0.43438625	0.0	23.375	-18.5	-31.25	-0.97226137	0.6750064	0.55702084
1276791199960	-3.8273177	6.1700177	6.2108784	-0.25193977	0.0	23.625	-18.5	-31.25	-1.086402	0.7076281	0.55521894
1276791200000	-4.140586	6.2789803	6.3607025	0.043658257	0.0	23.625	-19.0	-30.8125	-1.0853807	0.7019873	0.5829801
1276791200040	-3.8681788	6.1291566	6.782933	0.119957924	0.0	23.375	-18.5	-31.75	-1.1894848	0.7522841	0.5629818
1276791200081	-3.173541	5.7477865	7.014479	-0.19877148	0.0	22.875	-18.25	-33.0	-1.3246629	0.8184328	0.50447917
1276791200120	-2.982856	5.597963	6.932757	-0.40996265	0.0	21.875	-17.8125	-34.25	-1.2254106	0.82978654	0.4895784
1276791200160	-3.0645783	5.47538	7.014479	-0.39525604	0.0	20.875	-16.5625	-35.25	-1.1018345	0.84101135	0.510261
1276791200200	-2.8330324	5.6660647	7.1234417	-0.2738762	0.0	19.875	-16.3125	-35.25	-1.0595466	0.84392625	0.4636476
1276791200240	-2.7240696	5.706926	7.205164	-0.2199955	0.0	18.875	-16.3125	-35.6875	-1.0042496	0.8504582	0.44534522
1276791200280	-2.4108016	5.7477865	7.273266	-0.22805882	0.0	18.125	-16.0625	-35.9375	-0.9952057	0.8622755	0.3971445
1276791200320	-2.3018389	5.7477865	7.1234417	-0.3684864	0.0	17.4375	-16.3125	-36.1875	-0.9384569	0.855271	0.3809149
1276791200350	-2.4925237	5.6660647	6.851035	-0.57336044	0.0	16.9375	-16.5625	-36.4375	-0.82760775	0.8360382	0.41442636
1276791200390	-2.5606253	5.6252036	6.891896	-0.54933167	0.0	16.9375	-16.8125	-35.9375	-0.85306513	0.83975685	0.42717463
1276791200420	-2.4516625	5.6660647	6.891896	-0.55391216	0.0	16.9375	-17.0625	-35.6875	-0.88757396	0.84030896	0.408368
1276791200450	-2.3699405	5.434519	6.932757	-0.684494	0.0	16.6875	-17.5625	-35.4375	-0.9653861	0.86329937	0.41122657
1276791200492	-2.2201166	5.325556	6.973618	-0.7555828	0.0	16.4375	-17.5625	-35.0	-1.039146	0.87958544	0.3949727
1276791200531	-2.0294318	5.597963	6.891896	-0.69874096	0.0	15.6875	-17.8125	-35.6875	-0.91952044	0.85824066	0.34779385
1276791200570	-2.7921712	6.0474343	7.273266	0.055808067	0.0	15.4375	-17.8125	-35.6875	-0.7241936	0.8293165	0.4325506
1276791200610	-2.1111538	6.0201936	6.66035	-0.5838547	0.0	15.4375	-17.3125	-36.1875	-0.7470196	0.8069224	0.33727935
1276791200640	-1.7297841	5.829509	6.851035	-0.6463003	0.0	15.1875	-17.0625	-36.6875	-0.8293493	0.8448944	0.28845313
1276791200680	-2.5606253	6.2789803	7.668256	0.4297819	0.0	15.1875	-16.5625	-36.4375	-0.75174475	0.8467238	0.3872202
1276791200720	-2.7240696	5.2165933	8.240311	0.3193617	0.0	14.4375	-15.8125	-36.9375	-0.86991733	0.9506209	0.48124412
1276791200772	-1.9477097	4.862464	7.7772183	-0.4299631	0.0	13.9375	-15.0625	-37.1875	-0.98407173	0.97806984	0.38098922
1276791200828	-1.7297841	5.325556	7.3549876	-0.56275845	0.0	13.9375	-15.0625	-37.6875	-0.8213824	0.92009515	0.3140584
1276791200860	-1.920469	5.597963	7.504812	-0.24905682	0.0	13.9375	-14.8125	-37.9375	-0.7529557	0.9030511	0.33048397
1276791200900	-2.1383946	5.434519	7.504812	-0.2972374	0.0	14.1875	-15.0625	-38.1875	-0.7476197	0.9095024	0.37487626
1276791200990	-2.4108016	5.434519	9.425281	1.3370419	0.0	14.4375	-15.3125	-38.1875	-1.0970088	1.0080538	0.4175265
1276791201030	-2.4925237	6.1700177	8.730643	1.1708689	0.0	14.1875	-14.5625	-38.1875	-0.754958	0.91953564	0.3839271
1276791201060	-2.3699405	4.5219555	7.246025	-0.9427023	0.0	15.1875	-13.8125	-38.1875	-0.8463316	0.95700735	0.48273838
1276791201090	-2.7921712	4.372132	6.66035	-1.3643742	0.0	16.4375	-13.3125	-37.6875	-0.7398488	0.90906286	0.5683401
1276791201120	-3.445948	3.9090397	6.4424243	-1.5205193	0.0	18.375	-13.3125	-36.9375	-0.6913571	0.89067256	0.7225182
1276791201151	-3.9499009	4.671779	6.5922484	-0.81304264	0.0	20.625	-13.0625	-36.1875	-0.77010584	0.8227111	0.7018647
1276791201190	-3.759216	4.7943625	7.4639506	-0.1719122	0.0	21.875	-13.0625	-35.9375	-1.1312237	0.8862273	0.66496474
1276791201220	-3.718355	5.829509	7.6954966	0.53888035	0.0	22.625	-13.0625	-35.6875	-1.0691199	0.8388088	0.5677868
1276791201250	-2.4925237	5.5571017	6.0474343	-1.2237883	0.0	23.125	-13.0625	-35.4375	-1.0015566	0.7818511	0.42163035
1276791201280	-2.3699405	6.0201936	6.4424243	-0.6762514	0.0	23.625	-13.3125	-35.4375	-1.0303452	0.78327185	0.37503344
1276791201310	-2.982856	6.4015636	6.0474343	-0.50885963	0.0	24.125	-13.3125	-34.5	-0.94542646	0.7081323	0.43604457
1276791201399	-3.7864566	6.3198414	4.7126403	-1.0609865	0.0	24.875	-13.0625	-33.5	-0.76305455	0.5690768	0.5397854
1276791201430	-4.5900574	6.4424243	4.0180025	-0.9343443	0.0	25.8125	-14.0625	-31.75	-0.66694325	0.4699819	0.6190486
1276791201470	-4.944186	6.510526	4.8216033	-0.31561375	0.0	27.3125	-16.5625	-29.3125	-0.8573892	0.5328805	0.64949906
1276791201505	-4.944186	5.829509	5.175732	-0.5753794	0.0	28.3125	-19.5	-26.625	-1.2048705	0.59519935	0.7034079
1276791201554	-4.2904096	6.0882955	4.903325	-0.88938904	0.0	29.8125	-23.0	-23.375	-1.5938942	0.5822073	0.613872
1276791201590	-3.9090397	6.238119	5.012288	-0.9005985	0.0	30.0625	-25.6875	-20.9375	-1.8912301	0.5977642	0.559776
1276791201620	-4.5900574	7.7363577	5.366417	0.6680002	0.0	29.5625	-28.1875	-18.25	-1.9558476	0.537889	0.53548574
1276791201650	-4.5219555	8.19945	5.706926	1.1591177	0.0	29.0625	-30.6875	-16.5	-2.1661637	0.54735565	0.5039903
1276791201682	-4.099725	8.076866	5.6660647	0.877347	0.0	27.8125	-32.875	-15.0	-2.33484	0.558992	0.4697
1276791201720	-3.1054392	7.4639506	5.597963	0.026533127	0.0	27.0625	-34.875	-14.0625	-2.4014058	0.6056457	0.3942727
1276791201750	-2.7240696	7.6273947	5.407278	-0.06825447	0.0	26.0625	-35.875	-13.3125	-2.3592553	0.5886677	0.34302393
1276791201787	-2.6423476	8.390134	5.434519	0.53309536	0.0	25.0625	-36.625	-12.3125	-2.3133838	0.55341434	0.30510178
1276791201820	-3.1463003	8.499097	5.175732	0.62992287	0.0	24.625	-37.625	-11.8125	-2.423469	0.51889694	0.35454905
1276791201868	-2.2201166	8.19945	4.7535014	-0.072398186	0.0	23.875	-38.125	-11.3125	-2.2764683	0.51017195	0.26442388
1276791201900	-1.7297841	7.8861814	4.8216033	-0.40282822	0.0	24.375	-37.875	-11.5625	-2.2121975	0.53835934	0.2159242
1276791201941	-2.3426998	8.117727	4.099725	-0.41551208	0.0	24.375	-37.875	-11.3125	-2.1613312	0.4517632	0.28095686
1276791201970	-2.4925237	8.158588	4.440233	-0.18943119	0.0	24.375	-38.125	-11.3125	-2.2628222	0.47990644	0.2965034
1276791202010	-2.5333846	8.049625	4.1814466	-0.38863564	0.0	24.625	-37.625	-11.3125	-2.2108593	0.46003988	0.30490685
1276791202040	-2.6832085	7.5865335	4.399372	-0.63552284	0.0	24.375	-37.875	-10.5625	-2.4198189	0.50031054	0.33994982
1276791202080	-3.445948	7.504812	4.2495484	-0.5192709	0.0	24.625	-37.625	-10.8125	-2.584968	0.475251	0.43044946
1276791202120	-3.486809	8.117727	4.2904096	0.014904976	0.0	24.875	-36.875	-10.5625	-2.427914	0.45207837	0.40570152
1276791202160	-3.8681788	8.580819	4.3312707	0.5544872	0.0	25.0625	-36.875	-10.125	-2.4430072	0.43127614	0.42351377
1276791202200	-3.718355	7.9679036	4.2086873	-0.058485985	0.0	25.5625	-36.875	-10.125	-2.4917321	0.4464226	0.43662718
1276791202240	-2.7513103	7.205164	3.9499009	-1.1414433	0.0	26.5625	-37.125	-9.625	-2.3557885	0.47330964	0.3647648
1276791202280	-2.4925237	6.891896	3.8681788	-1.5196905	0.0	27.3125	-36.875	-9.125	-2.329215	0.48564517	0.3470244
1276791202320	-3.1054392	7.8861814	4.0588636	-0.4093113	0.0	27.5625	-36.625	-9.125	-2.296653	0.44661635	0.3751349
1276791202360	-2.3699405	8.049625	3.990762	-0.5147581	0.0	28.0625	-36.375	-8.625	-2.1378806	0.44392645	0.28632626
1276791202400	-2.7921712	8.008764	4.0180025	-0.4215088	0.0	28.5625	-36.375	-8.625	-2.200906	0.4424157	0.33546227
1276791202430	-3.336985	7.8589406	4.3312707	-0.23281479	0.0	29.0625	-36.375	-8.125	-2.3759758	0.46946254	0.4015403
1276791202470	-3.486809	7.7772183	4.2904096	-0.26460743	0.0	29.8125	-36.125	-7.125	-2.4136474	0.46635348	0.4214695
1276791202510	-3.0645783	7.3549876	3.9499009	-0.9134388	0.0	29.8125	-35.625	-6.875	-2.3460107	0.46022293	0.39479113
1276791202550	-3.255263	7.164303	4.0180025	-0.9710226	0.0	29.8125	-35.375	-6.375	-2.4323988	0.4720916	0.42648426
1276791202590	-3.8681788	7.273266	4.0588636	-0.62310123	0.0	30.0625	-34.625	-6.1875	-2.514796	0.45779487	0.48879024
1276791202630	-4.2086873	7.5456724	3.9499009	-0.30654812	0.0	30.5625	-34.125	-5.9375	-2.4892733	0.4287943	0.50878274
1276791202670	-4.2904096	7.43671	3.336985	-0.59536743	0.0	31.3125	-33.375	-5.6875	-2.3748062	0.37070376	0.52327836
1276791202710	-5.012288	7.6273947	3.3778462	-0.07474232	0.0	31.8125	-31.9375	-5.1875	-2.4286654	0.35446623	0.5813802
1276791202750	-6.0882955	7.7363577	3.8681788	0.7707491	0.0	32.25	-31.4375	-5.4375	-2.6591282	0.37438723	0.6667463
1276791202780	-5.7886477	6.932757	3.759216	-0.023845673	0.0	32.75	-30.1875	-5.4375	-2.69034	0.39441454	0.6957037
1276791202820	-5.407278	6.469665	3.568531	-0.65079784	0.0	33.25	-29.4375	-5.6875	-2.6321607	0.40036458	0.69618607
1276791202860	-5.597963	6.1700177	3.568531	-0.74349785	0.0	34.25	-28.6875	-6.375	-2.657007	0.40469736	0.7368253
1276791202900	-8.580819	7.5865335	5.012288	2.6957083	0.0	35.25	-27.4375	-6.875	-2.9048305	0.41250715	0.8468204
1276791202940	-9.193735	7.7363577	5.47538	3.3977346	0.0	36.25	-26.4375	-7.625	-2.8800056	0.42757326	0.8712685
1276791202980	-8.076866	6.701211	5.5571017	2.068676	0.0	37.25	-24.5	-8.875	-2.7763722	0.48697376	0.87821823
1276791203020	-7.04172	5.9793324	4.7126403	0.5638466	0.0	37.0	-22.75	-10.375	-2.5697443	0.47172958	0.8668078
1276791203060	-6.510526	5.7886477	5.7477865	0.6304207	0.0	37.0	-20.5	-12.8125	-2.4854999	0.58321315	0.8440241
1276791203100	-6.2789803	5.434519	5.6660647	0.24640274	0.0	36.75	-18.5	-15.25	-2.347474	0.5987572	0.8573667
1276791203140	-5.5571017	4.372132	6.2108784	-0.39538383	0.0	36.0	-16.8125	-17.5	-2.510686	0.72073996	0.90417796
1276791203184	-5.6252036	4.0588636	6.6331096	-0.20897198	0.0	36.0	-14.8125	-19.6875	-2.4927666	0.76303214	0.94575346
1276791203220	-5.6660647	3.990762	6.973618	0.025024414	0.0	34.75	-12.5625	-21.6875	-2.3691347	0.78850627	0.9571723
1276791203260	-5.243834	3.568531	7.246025	-0.17664051	0.0	33.5	-10.625	-24.625	-2.3069286	0.85176206	0.9732646
1276791203300	-4.7943625	3.2961242	7.6954966	-0.15931797	0.0	32.0625	-9.125	-27.0625	-2.2659485	0.9234407	0.968509
1276791203340	-3.759216	2.7240696	7.8180795	-0.7140913	0.0	30.5625	-6.875	-28.8125	-2.2525854	1.0349419	0.9437257
1276791203380	-3.255263	2.070293	8.049625	-0.88032246	0.0	29.0625	-5.625	-30.5625	-2.3908007	1.1238812	1.0043379
1276791203420	-2.6423476	1.4982382	7.9679036	-1.2793875	0.0	27.8125	-4.375	-31.5	-2.504782	1.2065806	1.0549873
1276791203460	-2.2609777	1.8387469	7.6954966	-1.5778179	0.0	26.8125	-3.875	-32.5	-2.2048893	1.2087865	0.8880264
1276791203500	-3.405087	2.8738933	8.008764	-0.64181614	0.0	25.5625	-4.875	-33.75	-1.8318751	1.0630821	0.8697959
1276791203540	-3.445948	3.636633	8.308413	-0.10462093	0.0	25.0625	-6.625	-33.75	-1.6769273	1.0281754	0.75848156
1276791203580	-2.8738933	3.3778462	8.281172	-0.41266727	0.0	24.375	-8.375	-34.75	-1.8054942	1.0791143	0.7049621
1276791203620	-2.6014864	3.486809	7.8861814	-0.80012894	0.0	23.875	-9.375	-35.25	-1.7214599	1.066693	0.6409964
1276791203660	-2.2609777	4.0180025	8.19945	-0.39987946	0.0	23.125	-9.875	-35.4375	-1.5719599	1.0585669	0.5125504
1276791203700	-2.070293	4.4810944	8.430995	-0.036901474	0.0	22.625	-9.625	-36.1875	-1.4171932	1.0411177	0.43279323
1276791203740	-0.9942854	3.486809	8.240311	-0.8039198	0.0	22.125	-9.875	-35.6875	-1.5639395	1.1562829	0.27778366
1276791203780	-0.88532263	3.405087	7.8861814	-1.1712427	0.0	21.375	-10.375	-35.25	-1.5553176	1.1511619	0.25436807
1276791203820	-2.4516625	4.399372	8.662541	0.21356678	0.0	21.125	-11.0625	-35.25	-1.5345918	1.0441674	0.5084119
1276791203861	-2.2609777	4.5628166	8.349273	-0.026993752	0.0	20.875	-12.3125	-35.6875	-1.4765807	1.023124	0.46005908
1276791203900	-1.334794	4.372132	8.499097	-0.15616512	0.0	20.375	-12.8125	-36.1875	-1.5004148	1.0773194	0.29630834
1276791203930	-1.1441092	3.9499009	8.158588	-0.6702795	0.0	20.125	-13.0625	-36.9375	-1.5439447	1.1039212	0.2819393
1276791203960	-1.1441092	3.9090397	8.240311	-0.61468124	0.0	19.375	-12.8125	-37.1875	-1.5324339	1.1117343	0.28473046
1276791203990	-0.9125633	4.0588636	8.689782	-0.17236423	0.0	18.125	-12.5625	-37.1875	-1.4761615	1.1242973	0.22115475
1276791204030	-0.5720546	4.0588636	8.580819	-0.2970724	0.0	17.4375	-11.8125	-37.9375	-1.34413	1.125155	0.14001736
1276791204070	-0.27240697	3.173541	8.62168	-0.615407	0.0	16.9375	-11.3125	-37.6875	-1.4999343	1.2169071	0.08562702
1276791204110	-0.08172209	3.2961242	8.894087	-0.32108784	0.0	17.4375	-11.8125	-37.9375	-1.4714059	1.2157911	0.024788309
1276791204150	-1.9885708	3.486809	8.158588	-0.7140808	0.0	18.125	-11.8125	-37.6875	-1.6340371	1.1135709	0.51830435
1276791204190	-1.3756552	4.8216033	7.7772183	-0.5532503	0.0	19.375	-13.8125	-35.9375	-1.317516	0.9981527	0.27792653
1276791204230	-1.2666923	4.862464	8.240311	-0.15518475	0.0	20.375	-17.0625	-34.75	-1.5961608	1.0232195	0.25484025
1276791204270	-1.6480621	3.9499009	7.164303	-1.4612885	0.0	21.375	-20.25	-32.75	-2.057584	1.032293	0.39528072
1276791204310	-3.214402	5.938472	6.0882955	-0.714612	0.0	22.625	-23.5	-30.5625	-1.3838452	0.7337096	0.4961271
1276791204350	-2.4925237	9.112013	5.5162406	1.1327448	0.0	23.875	-25.6875	-28.8125	-1.0551751	0.5285186	0.26701078
1276791204390	-2.5606253	7.6273947	5.053149	-0.30568886	0.0	25.0625	-26.6875	-26.875	-1.2507037	0.56079143	0.32389188
1276791204430	-2.7513103	6.851035	4.3312707	-1.247077	0.0	25.8125	-27.9375	-24.375	-1.3501067	0.5305581	0.38187674
1276791204470	-3.1463003	8.008764	3.718355	-0.43298054	0.0	27.0625	-29.4375	-21.6875	-1.2300767	0.4078982	0.37433362
1276791204510	-3.214402	10.528529	3.6774938	1.799653	0.0	27.5625	-31.4375	-18.75	-1.2501123	0.32240987	0.29631573
1276791204550	-2.4925237	8.349273	3.214402	-0.5192709	0.0	28.5625	-33.125	-16.25	-1.4909247	0.3534156	0.2901093
1276791204590	-3.718355	7.7772183	3.718355	-0.41849518	0.0	30.3125	-33.125	-15.25	-1.7974926	0.40723154	0.44598162
1276791204630	-4.3312707	7.014479	5.09401	-0.115841866	0.0	30.8125	-32.625	-15.75	-2.3895392	0.5534834	0.55317026
1276791204670	-3.9771416	5.8976107	6.4424243	-0.20955181	0.0	31.5625	-31.1875	-16.5	-2.6665177	0.7359461	0.5933132
1276791204710	-2.8330324	6.2108784	4.440233	-1.6631403	0.0	31.5625	-30.4375	-17.5	-2.0107598	0.576685	0.42794853
1276791204750	-2.6014864	5.434519	4.7535014	-2.1321793	0.0	30.3125	-30.9375	-17.25	-2.2737284	0.6679673	0.44646022
1276791204790	-3.7864566	5.407278	4.140586	-2.0143232	0.0	30.0625	-31.9375	-15.25	-2.585464	0.56021357	0.610895
1276791204830	-2.8738933	5.8567495	2.2201166	-2.9153738	0.0	30.3125	-33.625	-13.0625	-1.7039428	0.32801378	0.4561781
1276791204870	-2.7240696	7.7772183	2.1792557	-1.2828693	0.0	30.3125	-35.125	-9.875	-1.6582682	0.25853834	0.33690885
1276791204910	-1.607201	13.252599	0.3405087	3.547392	0.0	30.8125	-36.625	-6.375	-1.3691642	0.025501313	0.12068505
1276791204952	-3.759216	8.349273	2.5333846	-0.30611897	0.0	30.3125	-38.375	-3.6875	-2.2239945	0.2699229	0.42305744
1276791204991	-4.3312707	9.997335	1.9885708	1.2685938	0.0	29.8125	-39.5625	-1.25	-2.1385484	0.18052998	0.4088314
1276791205030	-4.2904096	9.343558	3.173541	0.9535103	0.0	30.0625	-40.0625	1.25	-2.5456307	0.29938683	0.43046477
1276791205070	-4.2904096	5.134871	2.6014864	-2.6273575	0.0	30.0625	-40.0625	3.4375	3.0194623	0.3707984	0.6960414
1276791205110	-4.903325	6.701211	3.255263	-0.88781834	0.0	29.3125	-40.0625	5.1875	3.141539	0.3736195	0.6316906
1276791205150	-4.1814466	8.281172	2.3426998	-0.23844528	0.0	27.5625	-41.0625	5.6875	-2.8069587	0.24735688	0.46758714
1276791205190	-2.4108016	10.56939	0.9942854	1.0796986	0.0	25.3125	-42.5625	5.6875	-2.150816	0.09146069	0.22425625
1276791205230	-0.6537767	10.56939	0.10896278	0.7835016	0.0	23.375	-44.3125	5.6875	-1.8613046	0.010289249	0.061776962
1276791205270	-1.0351465	10.800936	-0.6537767	1.0634537	0.0	22.625	-45.0625	5.4375	-1.7125151	-0.0601808	0.09554677
1276791205310	-0.88532263	10.923519	-0.38136974	1.1593208	0.0	21.875	-44.8125	5.4375	-1.7778336	-0.034784578	0.08087062
1276791205350	-0.53119355	10.651112	0.08172209	0.8580122	0.0	21.625	-44.8125	3.9375	-1.7887291	0.007662961	0.049830835
1276791205390	0.313268	10.691973	-0.5720546	0.90519714	0.0	21.375	-45.0625	2.1875	-1.5625237	-0.05342934	-0.029290985
1276791205430	1.0351465	10.691973	-0.50395286	0.94712925	0.0	20.375	-45.5625	1.25	-1.5390037	-0.04688003	-0.09651449
1276791205470	0.92618364	11.032481	-0.7218784	1.2881489	0.0	19.625	-46.3125	2.1875	-1.540373	-0.065110564	-0.08375423
1276791205510	2.070293	10.501288	-0.38136974	0.90356064	0.0	17.6875	-47.0	4.1875	-1.6712233	-0.035615582	-0.19465038
1276791205550	1.3075534	9.697687	-0.3405087	-0.015288353	0.0	15.6875	-47.75	6.375	-1.7862308	-0.034783453	-0.1340232
1276791205590	0.84446156	9.575105	0.19068487	-0.19248867	0.0	13.9375	-48.75	8.375	-2.0444782	0.01983505	-0.08796586
1276791205630	0.14982383	10.119919	0.9942854	0.3630991	0.0	11.9375	-49.25	8.875	-2.3928597	0.09792535	-0.0148037635
1276791205670	0.040861044	9.765789	1.1441092	0.026014328	0.0	10.9375	-50.25	9.375	-2.5073218	0.11662218	-0.0041840766
1276791205710	-0.08172209	10.310603	0.84446156	0.5387993	0.0	9.5	-50.25	9.125	-2.538028	0.08171729	0.007925858
1276791205750	0.61291564	10.501288	0.6537767	0.7328062	0.0	8.75	-50.0	9.125	-2.3781734	0.0620712	-0.058299616
1276791205790	1.3756552	10.079058	0.7218784	0.39143467	0.0	8.5	-50.0	9.375	-2.270332	0.07084493	-0.13564833
1276791205830	1.0351465	9.425281	-0.040861044	-0.3246088	0.0	8.25	-49.75	10.125	-2.1996677	-0.004309322	-0.10938819
1276791205870	0.7627395	9.80665	-1.1168685	0.092822075	0.0	8.25	-49.75	11.0625	-1.9957662	-0.11306173	-0.077621505
1276791205910	0.88532263	9.193735	-0.38136974	-0.56251717	0.0	8.0	-50.0	12.5625	-2.2609055	-0.04126704	-0.096000284
1276791205950	0.42223078	9.193735	0.42223078	-0.593544	0.0	7.75	-50.25	14.0625	-2.5900812	0.045845423	-0.045893677
1276791205990	0.08172209	9.915613	-0.040861044	0.10938358	0.0	8.25	-49.75	14.3125	-2.5910647	-0.0041207164	-0.008241572
1276791206030	-0.040861044	9.615966	0.08172209	-0.1902504	0.0	9.25	-49.75	14.3125	-2.5913782	0.008498303	0.0042492663
1276791206070	0.23154591	9.193735	0.88532263	-0.56748486	0.0	10.5	-49.75	13.5625	-2.569354	0.09597004	-0.025179861
1276791206110	0.42223078	9.234595	0.7218784	-0.53426456	0.0	11.9375	-49.75	12.5625	-2.4265783	0.07793136	-0.045690894
1276791206150	0.08172209	9.615966	0.6946377	-0.1652813	0.0	12.1875	-49.75	12.0625	-2.4620452	0.0721101	-0.008498379
1276791206190	-0.040861044	9.615966	0.9942854	-0.13933086	0.0	12.4375	-49.75	12.5625	-2.5349412	0.103032365	0.004249266
1276791206220	-0.50395286	9.534244	0.50395286	-0.2458067	0.0	12.6875	-49.5	13.0625	-2.5714417	0.052734524	0.052808
1276791206250	-0.27240697	9.302697	0.08172209	-0.4996071	0.0	12.1875	-49.25	13.8125	-2.4956162	0.008780784	0.029274216
1276791206290	-0.19068487	9.847511	-0.0	0.042707443	0.0	12.1875	-49.25	15.25	-2.5067832	-0.0	0.019361343
1276791206330	0.08172209	9.997335	-0.08172209	0.19135284	0.0	11.4375	-49.0	15.25	-2.468585	-0.008173932	-0.008174204
1276791206370	-0.23154591	10.269742	-0.0	0.4657011	0.0	10.9375	-49.25	15.75	-2.5838685	-0.0	0.0225426
1276791206410	-0.53119355	10.691973	0.08172209	0.89882183	0.0	10.6875	-48.75	16.75	-2.6924021	0.0076337485	0.049640715
1276791206450	-0.7627395	10.337844	0.3405087	0.5648842	0.0	10.25	-48.5	17.5	-2.8064408	0.03283698	0.07364784
1276791206490	-0.46309182	9.534244	-0.040861044	-0.26107883	0.0	10.0	-48.5	19.1875	-2.7590833	-0.0042806417	0.048533283
1276791206530	-0.5720546	10.419566	0.23154591	0.631176	0.0	9.25	-48.25	20.4375	-2.84429	0.022185167	0.054846898
1276791206570	-0.42223078	9.234595	-0.6946377	-0.5363455	0.0	9.0	-48.0	20.6875	-2.7612903	-0.07500178	0.045690898
1276791206630	-0.53119355	10.882658	-0.53119355	1.1019049	0.0	9.25	-47.5	21.1875	-2.7892656	-0.048714396	0.0487723
1276791206670	-0.88532263	10.501288	-0.53119355	0.7452707	0.0	8.75	-47.5	20.9375	-2.891232	-0.050362222	0.084107205
1276791206710	-0.29964766	12.489859	-0.040861044	2.6868687	0.0	7.75	-47.25	20.9375	-2.8334541	-0.003270585	0.023986677
1276791206750	0.313268	11.536434	-0.38136974	1.7403355	0.0	6.0	-47.25	21.4375	-2.7904022	-0.033033654	-0.027147993
1276791206790	0.8036005	8.499097	-1.1168685	-1.1968985	0.0	3.75	-47.5	21.4375	-2.6457446	-0.13008794	-0.09427102
1276791206820	1.4982382	8.390134	-0.8036005	-1.2459936	0.0	2.8125	-47.25	22.1875	-2.5842562	-0.09400977	-0.17670886
1276791206860	2.7240696	11.372991	-0.29964766	1.8918648	0.0	2.0625	-47.5	22.875	-2.5994093	-0.025616964	-0.23509198
1276791206900	0.6537767	11.604536	-0.7627395	1.8412876	0.0	2.3125	-48.0	23.875	-2.9041202	-0.06552968	-0.05627854
1276791206940	0.14982383	9.615966	-1.879608	-0.0075597763	0.0	3.0625	-47.75	24.875	-2.897233	-0.19301069	-0.015579476
1276791206980	1.0760075	7.9679036	-1.920469	-1.5402431	0.0	4.0	-47.25	25.875	-2.5216904	-0.23446442	-0.13423069
1276791207020	0.7627395	6.3198414	-2.070293	-3.1127515	0.0	5.75	-46.3125	27.0625	-2.3766658	-0.31443647	-0.12010873
1276791207060	-0.50395286	6.238119	-1.607201	-3.3451338	0.0	7.0	-45.8125	28.3125	-2.937961	-0.2513733	0.08061096
1276791207100	-1.607201	7.504812	-1.334794	-2.0164661	0.0	8.0	-45.5625	29.3125	3.0597785	-0.17219274	0.21096937
1276791207140	-1.8387469	9.343558	-0.42223078	-0.2745285	0.0	7.5	-45.3125	29.8125	3.0915256	-0.04431007	0.19431001
1276791207180	-0.8036005	10.923519	0.040861044	1.1464643	0.0	6.75	-45.3125	30.0625	-3.029363	0.0037305497	0.0734338
1276791207220	0.23154591	11.114203	-0.9942854	1.3543415	0.0	6.5	-45.3125	28.8125	-2.848644	-0.08920402	-0.02083032
1276791207260	-0.9125633	9.80665	-1.879608	0.22011852	0.0	6.0	-46.0625	27.0625	-3.046457	-0.18857464	0.092788346
1276791207300	-2.070293	7.6954966	-1.2258313	-1.7438068	0.0	5.75	-47.0	25.625	2.7909083	-0.15262648	0.26280433
1276791207340	-1.9477097	8.662541	-0.10896278	-0.9271755	0.0	4.75	-48.0	23.375	2.8884182	-0.012271618	0.22116478
1276791207380	-1.2666923	11.114203	-0.0	1.3795033	0.0	3.5625	-48.75	21.6875	3.0505142	-0.0	0.113480926
1276791207420	-0.23154591	12.067628	-0.08172209	2.2634754	0.0	2.3125	-48.75	20.9375	-3.0748756	-0.0067706597	0.019185005
1276791207460	-0.6537767	10.923519	-0.46309182	1.1462097	0.0	1.5625	-48.75	20.1875	3.0670247	-0.042293053	0.059779067
1276791207500	0.040861044	9.697687	-0.3405087	-0.102900505	0.0	1.3125	-48.25	19.9375	-3.058646	-0.03509763	-0.0042134584
1276791207540	-0.10896278	9.956474	0.10896278	0.15101624	0.0	0.5625	-48.25	21.6875	-3.1400416	0.01094282	0.010943475
1276791207580	-0.38136974	9.084772	-0.88532263	-0.6708784	0.0	-0.6875	-48.0	23.375	2.9975874	-0.09705958	0.041954376
1276791207620	-0.0	10.651112	-0.08172209	0.84477425	0.0	-2.6875	-47.0	25.125	3.0334897	-0.0076724845	0.0
1276791207660	-0.9125633	11.563675	-0.42223078	1.8006601	0.0	-4.625	-47.25	26.375	2.8158762	-0.03638431	0.078753166
1276791207700	-0.27240697	10.882658	-1.607201	1.1974192	0.0	-6.875	-46.75	26.125	2.7419934	-0.14657947	0.025026064
1276791207740	1.7297841	10.378705	-1.4982382	0.8213501	0.0	-7.625	-46.75	25.375	-3.1326795	-0.141442	-0.16514868
1276791207780	2.1111538	8.771504	-1.334794	-0.6864557	0.0	-7.125	-47.5	24.375	-2.9015458	-0.14688346	-0.23619087
1276791207820	1.8387469	9.084772	-1.1441092	-0.4673214	0.0	-6.625	-47.25	24.625	-2.9880192	-0.122812934	-0.19970103
1276791207860	1.2666923	9.997335	-0.7627395	0.29943657	0.0	-5.625	-47.5	24.875	-3.1231806	-0.07554511	-0.12603143
1276791207911	2.2201166	8.894087	-0.3405087	-0.6333389	0.0	-5.125	-48.0	25.125	-2.8638496	-0.037128028	-0.2446183
1276791207950	4.440233	8.921328	0.08172209	0.1589117	0.0	-4.375	-48.0	25.375	-2.5453231	0.008200542	-0.46181387
1276791207990	2.5333846	10.732834	-1.879608	1.3801584	0.0	-4.375	-48.5	24.375	-2.7336674	-0.16882081	-0.23179787
1276791208030	-2.7240696	10.651112	0.42223078	1.1953955	0.0	-3.875	-48.5	24.125	2.5941758	0.038386904	0.25038728
1276791208070	-0.5720546	8.349273	-0.27240697	-1.4333706	0.0	-2.9375	-47.75	24.625	2.8792531	-0.032538626	0.068408586
1276791208110	0.19068487	8.076866	-0.84446156	-1.6835203	0.0	-2.1875	-47.5	24.875	3.0878122	-0.104145825	-0.023604384
1276791208150	-0.53119355	9.765789	-1.1441092	0.04026699	0.0	0.0625	-47.25	25.125	3.0137093	-0.11645261	0.05433976
1276791208190	-0.8036005	10.18802	-0.040861044	0.41309547	0.0	1.8125	-47.25	24.875	3.0644343	-0.0039982554	0.07871403
1276791208230	-1.9885708	8.771504	0.53119355	-0.79688454	0.0	3.0625	-47.5	23.625	2.8638046	0.058991745	0.2229396
1276791208270	-2.1111538	7.5456724	1.2258313	-1.8758998	0.0	4.5	-47.75	22.6875	2.8619406	0.15518905	0.27280784
1276791208310	-1.0760075	8.430995	0.23154591	-1.3041162	0.0	5.0	-48.0	22.4375	3.094584	0.027235944	0.12693897
1276791208350	-1.334794	8.812365	-0.3405087	-0.8872671	0.0	5.75	-48.0	22.1875	3.0677683	-0.03818554	0.15032564
1276791208390	-1.7570249	9.534244	0.9942854	-0.061008453	0.0	7.25	-48.5	22.6875	3.081457	0.10220142	0.18224104
1276791208430	-2.3018389	9.425281	0.61291564	-0.08502293	0.0	9.0	-48.25	23.125	3.038624	0.063088454	0.239531
1276791208470	-0.9125633	8.499097	1.6480621	-1.1012764	0.0	11.6875	-47.5	23.375	-2.9404957	0.19046499	0.10696202
1276791208510	-2.4925237	7.7772183	-0.3405087	-1.6326828	0.0	15.6875	-46.0625	22.875	-3.0993302	-0.04166976	0.3101477
1276791208550	-3.0645783	6.891896	-2.3426998	-1.908669	0.0	20.375	-43.0625	22.6875	-2.994012	-0.30115148	0.4184077
1276791208590	-4.4810944	7.43671	-4.0588636	-0.22232819	0.0	25.8125	-38.875	23.125	-2.1036253	-0.43729427	0.5423027
1276791208630	-5.407278	6.742072	-5.053149	0.20476913	0.0	31.0625	-33.125	23.375	-0.91951	-0.5290791	0.67597157
1276791208670	-7.205164	7.43671	-5.175732	1.7694998	0.0	35.75	-27.9375	23.875	-1.77057	-0.463524	0.76958555
1276791208710	-8.471856	6.782933	-5.6660647	2.4360962	0.0	39.0	-23.0	23.125	-1.5328878	-0.48116246	0.8956634
1276791208750	-7.8861814	6.238119	-4.099725	1.0521584	0.0	41.1875	-19.0	21.9375	-1.9024307	-0.38714722	0.90155566
1276791208790	-5.5571017	-0.38136974	-2.9556155	-3.5008998	0.0	43.4375	-16.5625	20.4375	1.4824419	-0.4878384	1.6393163
1276791208830	-9.466142	7.8589406	-3.9090397	3.1027021	0.0	44.6875	-14.0625	18.5	-1.8194283	-0.30763635	0.8779007
1276791208870	-7.1234417	7.273266	-3.6774938	1.0177565	0.0	45.4375	-12.8125	16.25	-1.6291286	-0.3466414	0.7749917
1276791208910	-6.510526	5.6252036	-1.9477097	-0.98489094	0.0	45.9375	-12.5625	13.0625	-1.7279283	-0.22261898	0.8582209
1276791208960	-5.325556	7.8180795	-7.1234417	2.0351114	0.0	45.9375	-13.0625	10.125	-1.1428506	-0.64544314	0.5979863
1276791209000	-10.419566	8.076866	-1.4982382	3.4616528	0.0	45.6875	-14.3125	6.375	-1.6465975	-0.11315996	0.9113842
1276791209040	-9.765789	7.0553403	-1.3756552	2.3193922	0.0	45.4375	-15.5625	2.9375	-1.4083332	-0.113691114	0.94515854
1276791209080	-12.53072	5.407278	-1.4573772	3.9185658	0.0	44.6875	-16.8125	-0.25	-0.40362978	-0.10638301	1.1634147
1276791209120	-11.223166	4.7943625	-0.42223078	2.4049692	0.0	44.6875	-17.3125	-3.4375	-0.3106186	-0.03458304	1.1670768
1276791209160	-9.534244	3.445948	2.3426998	0.5983772	0.0	44.4375	-17.0625	-5.9375	2.952822	0.22709775	1.2239766
1276791209200	-9.193735	2.7921712	2.6832085	0.16935062	0.0	44.4375	-15.5625	-7.875	2.7695704	0.27231967	1.2759451
1276791209240	-8.240311	2.9556155	2.6832085	-0.65034103	0.0	44.9375	-13.5625	-9.625	-2.6538818	0.29740986	1.2264118
1276791209280	-7.8861814	3.1054392	2.7649305	-0.891469	0.0	44.4375	-11.8125	-11.0625	-2.1745176	0.31533748	1.1956614
1276791209320	-7.8180795	3.1054392	2.4516625	-1.0444145	0.0	44.6875	-10.625	-12.3125	-1.7054431	0.28358448	1.1926953
1276791209360	-7.04172	3.718355	1.920469	-1.61518	0.0	44.6875	-9.875	-13.0625	-1.3792737	0.23665011	1.0849642
1276791209400	-7.04172	3.568531	1.2258313	-1.8177271	0.0	44.4375	-9.875	-13.0625	-1.0722307	0.15404995	1.1017475
1276791209440	-7.3141265	3.759216	0.50395286	-1.5675898	0.0	44.6875	-9.875	-12.5625	-0.86961806	0.06120451	1.096038
1276791209480	-7.1234417	4.3312707	1.0760075	-1.4006338	0.0	44.9375	-10.375	-11.3125	-1.2009377	0.1283566	1.0244929
1276791209520	-8.049625	4.944186	1.1849703	-0.28585148	0.0	44.9375	-11.3125	-9.375	-1.3036021	0.12478482	1.0199914
1276791209560	-8.158588	5.366417	0.313268	-0.036331177	0.0	45.1875	-12.5625	-6.625	-1.2234799	0.032068726	0.9889832
1276791209593	-8.076866	6.1291566	0.3405087	0.33821392	0.0	45.4375	-13.5625	-4.6875	-1.3813686	0.033570945	0.92165315
1276791209630	-7.3958488	6.510526	0.7627395	0.07602692	0.0	44.9375	-14.0625	-2.4375	-1.617279	0.07725627	0.8489754
1276791209670	-7.1234417	6.891896	-0.50395286	0.117845535	0.0	45.4375	-14.8125	-1.5	-1.3969351	-0.050800536	0.80191755
1276791209710	-7.43671	6.66035	-1.3756552	0.270916	0.0	44.9375	-15.3125	-1.5	-1.1893356	-0.13693424	0.84041506
1276791209750	-7.6273947	7.5456724	-1.525479	1.0303888	0.0	44.4375	-16.3125	-1.0	-1.2263316	-0.14123437	0.7907841
1276791209790	-7.8861814	7.504812	-0.84446156	1.1124687	0.0	44.6875	-17.5625	-1.0	-1.3301988	-0.07741519	0.81017184
1276791209830	-6.2789803	6.851035	-0.6537767	-0.490551	0.0	44.1875	-18.75	-0.75	-1.3815305	-0.07023481	0.74185723
1276791209870	-5.434519	6.469665	-1.2258313	-1.268897	0.0	44.4375	-20.0	0.0	-1.2813423	-0.14407568	0.69865984
1276791209910	-7.04172	7.014479	-2.1383946	0.360034	0.0	43.9375	-21.5	1.5	-1.0878459	-0.2119161	0.7873362
1276791209950	-6.5922484	7.3958488	-0.10896278	0.10133648	0.0	43.4375	-23.0	3.1875	-1.7260951	-0.010997691	0.7280124
1276791209990	-6.1291566	7.3141265	-1.1441092	-0.19561577	0.0	42.9375	-24.25	5.9375	-1.5938529	-0.11932418	0.69747955
1276791210030	-5.7886477	7.273266	-2.5333846	-0.1719799	0.0	42.4375	-25.1875	8.375	-1.3435888	-0.26607296	0.67222375
1276791210070	-5.5571017	8.281172	-2.9556155	0.59502506	0.0	41.9375	-26.6875	11.0625	-1.4545269	-0.2881177	0.5910328
1276791210110	-5.243834	7.7363577	-3.214402	0.076740265	0.0	40.6875	-27.6875	13.3125	-1.4452645	-0.33125782	0.5956823
1276791210150	-4.2904096	7.1234417	-2.7921712	-1.0346918	0.0	39.9375	-28.6875	14.3125	-1.5289391	-0.3239425	0.5421049
1276791210190	-5.366417	6.973618	-0.6537767	-0.98297787	0.0	39.1875	-29.4375	15.0	-2.2893555	-0.074161455	0.6558843
1276791210230	-4.862464	8.730643	-2.1111538	0.40729427	0.0	39.0	-29.6875	15.0	-1.8389517	-0.20819406	0.5081575
1276791210270	-4.2495484	8.539958	-3.8273177	0.47138023	0.0	38.75	-30.4375	15.25	-1.4566575	-0.38157052	0.4617319
1276791210301	-3.2961242	8.962189	-2.8738933	0.16553688	0.0	37.75	-31.9375	16.0	-1.6901785	-0.292337	0.3524269
1276791210340	-2.4108016	8.539958	-2.9556155	-0.45365524	0.0	36.25	-33.875	16.5	-1.6578	-0.32151827	0.27513713
1276791210380	-4.099725	9.084772	-1.525479	0.27640057	0.0	34.0	-35.375	17.0	-2.1088161	-0.1518746	0.4239132
1276791210420	-2.3699405	8.471856	-2.3426998	-0.7029581	0.0	31.5625	-37.375	17.5	-1.8332238	-0.26026344	0.27277017
1276791210460	-3.173541	9.084772	-1.9477097	0.011599541	0.0	28.8125	-38.875	17.0	-2.0513532	-0.1997012	0.33607364
1276791210520	-1.1441092	8.158588	-2.070293	-1.3120842	0.0	26.8125	-40.0625	16.25	-1.8128952	-0.24619935	0.13932516
1276791210560	-0.9125633	9.724928	-1.8387469	0.13256454	0.0	24.375	-42.0625	14.75	-1.8723722	-0.18607107	0.093563564
1276791210590	-0.53119355	11.727119	-2.2201166	2.140585	0.0	22.875	-43.5625	13.3125	-1.7968196	-0.18691327	0.045265228
1276791210630	-1.0760075	13.593107	-1.334794	3.8941536	0.0	21.375	-45.3125	12.8125	-2.003303	-0.097579286	0.078993596
1276791210670	-0.9942854	11.536434	-2.0294318	1.9490509	0.0	19.625	-46.3125	12.3125	-1.8143977	-0.17350304	0.08597409
1276791210710	-0.040861044	8.430995	-0.9942854	-1.3171301	0.0	18.875	-46.75	12.5625	-1.9294257	-0.11738857	0.0048464886
1276791210750	0.38136974	9.697687	-3.3642259	0.46508694	0.0	17.4375	-47.25	13.0625	-1.421656	-0.33368033	-0.039305586
1276791210790	0.8036005	9.384419	-2.8330324	0.028957367	0.0	16.4375	-46.75	12.8125	-1.5343184	-0.29217777	-0.08542296
1276791210830	1.3075534	9.507003	-2.1111538	0.019324303	0.0	15.6875	-47.25	14.0625	-1.7568054	-0.21654275	-0.13667832
1276791210870	-0.29964766	8.894087	-1.879608	-0.7111845	0.0	15.6875	-47.0	14.75	-1.8872108	-0.20815319	0.033677924
1276791210910	-0.27240697	8.049625	-2.9556155	-1.2272367	0.0	15.9375	-46.75	15.0	-1.4186344	-0.35170707	0.033828042
1276791210950	1.4165162	8.499097	-2.6832085	-0.78219604	0.0	15.9375	-47.0	15.5	-1.6471529	-0.3018912	-0.16514868
1276791210990	1.8387469	7.082581	-2.6423476	-2.0268078	0.0	15.1875	-47.0	15.25	-1.5779173	-0.3465344	-0.25400776
1276791211030	2.9147544	8.076866	-2.1792557	-0.94771576	0.0	12.6875	-47.75	15.25	-1.7394526	-0.24854635	-0.34633166
1276791211070	1.7978859	11.536434	-3.1054392	2.2749662	0.0	9.75	-48.25	15.5	-1.751131	-0.25995636	-0.15460055
1276791211110	2.4925237	8.62168	-2.982856	-0.34919357	0.0	7.0	-49.0	16.0	-1.617485	-0.32087526	-0.28142658
1276791211150	3.0645783	6.932757	-2.7240696	-1.7521286	0.0	4.75	-49.5	16.75	-1.6159533	-0.34500757	-0.41621742
1276791211190	1.920469	9.575105	-2.3426998	0.23621178	0.0	3.75	-49.75	16.25	-1.8997769	-0.23543926	-0.1979426
1276791211230	2.2609777	16.467001	-2.9147544	7.0684776	0.0	3.75	-49.75	15.25	-2.1324184	-0.17359546	-0.13645035
1276791211270	3.0237172	9.302697	-2.1792557	0.21493626	0.0	4.25	-50.25	14.5625	-1.7776394	-0.21920751	-0.31426504
1276791211310	3.0237172	9.466142	-2.1792557	0.36683846	0.0	4.0	-50.5	13.5625	-1.7363358	-0.21588226	-0.3091808
1276791211350	3.9499009	10.119919	-1.920469	1.2252436	0.0	4.25	-50.5	13.3125	-1.7992023	-0.17497483	-0.3721247
1276791211390	3.990762	9.915613	-2.0294318	1.0728788	0.0	4.0	-51.0	13.8125	-1.7880889	-0.18763581	-0.38263607
1276791211430	0.38136974	7.014479	-2.5606253	-2.3296747	0.0	3.5625	-50.75	14.3125	-1.0241182	-0.34954256	-0.054315455
1276791211470	2.7649305	9.466142	-2.2201166	0.30184174	0.0	3.75	-50.75	13.8125	-1.7378896	-0.22143403	-0.28418082
1276791211510	3.0645783	10.310603	-2.070293	1.1471748	0.0	3.3125	-51.0	14.3125	-1.8456777	-0.19014555	-0.2889098
1276791211550	3.0645783	9.152874	-2.4516625	0.1521349	0.0	3.5625	-50.75	13.8125	-1.6638312	-0.24873787	-0.32308924
1276791211592	3.6774938	9.00305	-2.1792557	0.15969467	0.0	3.3125	-50.5	13.3125	-1.707191	-0.22044255	-0.38778841
1276791211630	3.445948	9.084772	-2.1111538	0.13641834	0.0	3.5625	-50.25	13.5625	-1.7368824	-0.21395275	-0.36254424
1276791211670	3.336985	9.112013	-2.1792557	0.1388712	0.0	3.75	-50.0	13.0625	-1.7022936	-0.22091174	-0.35104945
1276791211710	3.5957718	9.152874	-2.1111538	0.25126457	0.0	3.5625	-50.5	13.3125	-1.7266952	-0.21147244	-0.3743336
1276791211760	3.1054392	8.812365	-2.3426998	-0.17390537	0.0	3.5625	-50.5	13.5625	-1.6628575	-0.24566527	-0.33880746
1276791211790	3.173541	8.158588	-1.9885708	-0.82954884	0.0	3.5625	-50.5	13.0625	-1.69037	-0.22336872	-0.37097186
1276791211830	3.255263	8.689782	-2.070293	-0.29901314	0.0	3.3125	-50.5	12.5625	-1.6768702	-0.2195091	-0.35842708
1276791211870	3.3778462	11.264028	-1.6889231	2.0736122	0.0	2.8125	-49.75	12.0625	-1.8722184	-0.14264536	-0.29134583
1276791211910	3.568531	9.275456	-1.4573772	0.23787308	0.0	2.8125	-49.75	10.5625	-1.7570257	-0.14560568	-0.36727223
1276791211950	2.4925237	9.466142	-1.0760075	0.041106224	0.0	2.0625	-50.5	10.375	-1.8975786	-0.10948282	-0.25746536
1276791211990	2.982856	9.656827	-1.0351465	0.35323524	0.0	1.5625	-51.0	9.625	-1.8451915	-0.10206274	-0.29958877
1276791212031	4.399372	9.656827	-1.0351465	0.8554468	0.0	1.5625	-51.5	8.875	-1.7593693	-0.09723975	-0.42747724
1276791212070	3.718355	8.430995	-1.1168685	-0.52466583	0.0	0.8125	-52.0	9.125	-1.7248217	-0.12061874	-0.41537276
1276791212110	4.2495484	8.390134	-1.3756552	-0.3016281	0.0	-0.1875	-51.25	8.875	-1.6641433	-0.14523938	-0.46882895
1276791212150	4.9850473	8.430995	-1.56634	0.11231136	0.0	-0.6875	-51.25	8.875	-1.6390225	-0.15857749	-0.5339803
1276791212190	4.2904096	8.853226	-1.0760075	0.09006691	0.0	-1.6875	-51.5	8.875	-1.7458476	-0.10893903	-0.45126435
1276791212230	4.2495484	9.343558	-1.0351465	0.5099516	0.0	-2.9375	-51.0	8.625	-1.7740934	-0.10050706	-0.42684716
1276791212270	4.630918	8.580819	-1.0760075	0.0032253265	0.0	-3.4375	-51.0	8.625	-1.7331115	-0.10990729	-0.4948874
1276791212300	3.718355	8.921328	-0.38136974	-0.13392067	0.0	-4.125	-50.75	8.625	-1.9742372	-0.039437536	-0.39489952
1276791212340	3.5957718	9.384419	-0.08172209	0.24340343	0.0	-4.375	-50.75	8.875	-2.1129327	-0.008131597	-0.36590886
1276791212380	3.990762	9.343558	-0.19068487	0.35526943	0.0	-4.125	-51.25	8.875	-2.0241187	-0.018765751	-0.4036596
1276791212420	5.012288	9.384419	-0.38136974	0.8392782	0.0	-3.4375	-51.5	8.875	-1.897081	-0.03583073	-0.4905598
1276791212460	4.440233	9.234595	-0.7627395	0.46832848	0.0	-2.6875	-51.75	9.125	-1.8415037	-0.07430105	-0.44819105
1276791212500	3.9090397	8.921328	-0.7218784	-0.039777756	0.0	-1.9375	-51.75	9.375	-1.8666064	-0.073978364	-0.41297093
1276791212540	2.9556155	9.724928	-1.3756552	0.45016766	0.0	-1.1875	-51.25	9.875	-1.7966197	-0.13452645	-0.29505068
1276791212580	1.2666923	11.795221	-1.0351465	2.101468	0.0	-0.9375	-51.25	9.875	-2.4424222	-0.087037645	-0.106980294
1276791212620	3.486809	9.043911	-0.88532263	-0.07351303	0.0	0.0625	-51.0	10.125	-1.8739399	-0.09108554	-0.36798093
1276791212660	6.4424243	7.6954966	-0.53119355	0.24360657	0.0	1.0625	-50.75	10.125	-1.8084942	-0.05287837	-0.69699717
1276791212700	6.701211	7.7363577	-0.6537767	0.44931793	0.0	2.0625	-50.75	10.375	-1.7966955	-0.063789226	-0.7138225
1276791212740	5.284695	8.471856	-1.1168685	0.24062538	0.0	2.8125	-51.0	11.0625	-1.7836422	-0.111391544	-0.5577318
1276791212780	6.3198414	9.302697	-0.7218784	1.4628525	0.0	2.5625	-51.0	11.0625	-1.8381225	-0.0640998	-0.596736
1276791212820	2.6832085	8.853226	-0.9942854	-0.50246716	0.0	1.5625	-50.5	10.8125	-1.9066093	-0.10706879	-0.29427728
1276791212860	3.759216	8.430995	-1.334794	-0.47953606	0.0	0.5625	-50.75	10.5625	-1.7507515	-0.14360204	-0.41942286
1276791212901	3.173541	10.119919	-0.10896278	0.7997627	0.0	0.0625	-50.25	9.875	-2.1268797	-0.010273473	-0.3038808
1276791212940	2.7240696	9.697687	0.14982383	0.2674818	0.0	-0.1875	-50.5	9.375	-2.2138479	0.014872681	-0.27384207
1276791212980	2.9147544	9.425281	-0.42223078	0.06806469	0.0	0.3125	-51.0	9.125	-2.0002582	-0.04277182	-0.29991996
1276791213020	2.7921712	9.534244	-0.46309182	0.13882542	0.0	1.0625	-51.25	8.375	-1.9468346	-0.046579905	-0.28489092
1276791213080	3.0645783	9.507003	-0.6537767	0.20345306	0.0	1.0625	-51.5	8.125	-1.8559171	-0.06535821	-0.31183285
1276791213120	3.636633	9.275456	-0.84446156	0.1919651	0.0	1.5625	-51.0	8.125	-1.7739282	-0.084558584	-0.37365198
1276791213160	3.9090397	9.193735	-0.6537767	0.2049818	0.0	1.5625	-50.75	7.875	-1.7946466	-0.065348215	-0.4020275
1276791213200	3.9499009	8.921328	-0.95342433	-0.0035476685	0.0	1.8125	-50.5	8.125	-1.7352049	-0.09741139	-0.4168069
1276791213240	4.2086873	8.771504	-1.56634	0.04757595	0.0	2.5625	-50.5	8.125	-1.6105506	-0.15962814	-0.4473685
1276791213270	4.7535014	8.812365	-1.879608	0.3809147	0.0	2.8125	-51.0	7.875	-1.5597296	-0.18556333	-0.49467844
1276791213300	4.944186	8.771504	-1.8387469	0.42883968	0.0	3.0625	-51.0	7.875	-1.5720867	-0.18062481	-0.51327366
1276791213340	4.4810944	8.962189	-1.4982382	0.3247738	0.0	3.5625	-50.75	7.375	-1.602348	-0.14842469	-0.4636476
1276791213380	2.982856	9.534244	-0.9942854	0.23266411	0.0	3.5625	-50.75	7.125	-1.699353	-0.0992018	-0.30321017
1276791213410	1.7297841	9.915613	-0.50395286	0.2713213	0.0	3.5625	-50.0	7.125	-1.94005	-0.050026253	-0.17271249
1276791213450	0.8036005	10.228881	-0.10896278	0.45432663	0.0	3.75	-49.75	7.375	-2.3021324	-0.010619343	-0.07840089
1276791213490	0.84446156	10.119919	-0.42223078	0.35721493	0.0	3.75	-49.75	7.375	-2.3021324	-0.010619343	-0.07840089
1276791213530	1.4982382	9.765789	-0.6946377	0.0977869	0.0	4.0	-49.75	7.125	-1.8822205	-0.070191614	-0.15223008
1276791213570	2.2201166	9.575105	-1.0760075	0.0811882	0.0	4.5	-50.0	7.375	-1.7065462	-0.109037235	-0.22783747
1276791213600	2.982856	9.425281	-1.3075534	0.1654625	0.0	5.0	-50.25	7.125	-1.6199092	-0.13149965	-0.30650118
1276791213640	3.2961242	9.275456	-1.3756552	0.13271332	0.0	5.25	-50.25	7.875	-1.6390849	-0.13885048	-0.3414417
1276791213680	3.1054392	9.302697	-1.4573772	0.108382225	0.0	5.25	-50.25	8.875	-1.6670424	-0.14752112	-0.32218972
1276791213720	3.1054392	9.302697	-1.607201	0.13150978	0.0	5.0	-50.5	8.875	-1.6318578	-0.16243353	-0.32218972
1276791213760	3.2961242	9.152874	-1.7297841	0.07422447	0.0	4.75	-51.0	9.375	-1.6218721	-0.17597063	-0.34566095
1276791213800	3.5276701	9.152874	-1.7570249	0.15862465	0.0	4.0	-51.25	9.875	-1.6402746	-0.1772413	-0.36787164
1276791213840	3.8681788	9.00305	-1.9477097	0.18390942	0.0	3.5625	-50.75	10.125	-1.6185763	-0.19621158	-0.40580437
1276791213880	4.099725	9.00305	-1.920469	0.2705946	0.0	3.5625	-50.5	10.5625	-1.6488979	-0.19174765	-0.42731118
1276791213920	3.990762	8.921328	-1.7297841	0.11849117	0.0	3.5625	-50.25	11.3125	-1.7128061	-0.17517765	-0.4206299
1276791213960	3.5957718	9.112013	-1.7297841	0.14073658	0.0	3.5625	-50.25	11.3125	-1.7128061	-0.17517765	-0.4206299
1276791214000	3.5276701	9.302697	-1.607201	0.27143097	0.0	4.25	-50.5	11.3125	-1.7462074	-0.16015872	-0.362456
1276791214040	3.6774938	9.084772	-1.607201	0.12512398	0.0	4.0	-50.75	11.3125	-1.7360326	-0.16253889	-0.38463536
1276791214080	3.8681788	9.00305	-1.8387469	0.16323948	0.0	4.0	-50.75	11.0625	-1.6785337	-0.1854919	-0.40580437
1276791214120	3.8681788	9.193735	-1.6889231	0.30967522	0.0	4.0	-50.5	10.8125	-1.705277	-0.1677357	-0.3982575
1276791214160	3.214402	9.384419	-1.3075534	0.1988182	0.0	3.5625	-51.0	10.125	-1.7635714	-0.13105874	-0.33000046
1276791214200	2.3426998	9.765789	-0.9942854	0.2853012	0.0	3.3125	-50.75	9.875	-1.8938099	-0.0986827	-0.23543948
1276791214240	1.6480621	9.915613	-0.9942854	0.29404736	0.0	3.0625	-51.0	9.625	-1.960517	-0.098596975	-0.16470316
1276791214270	2.152015	9.80665	-1.1441092	0.29832554	0.0	3.0625	-51.25	9.125	-1.8143435	-0.11346568	-0.21602033
1276791214300	2.8330324	9.575105	-1.0351465	0.2322855	0.0	3.0625	-51.0	9.375	-1.8168771	-0.10329677	-0.28766793
1276791214360	3.568531	8.921328	-1.1168685	-0.13339329	0.0	3.5625	-51.5	9.625	-1.7555451	-0.115717486	-0.3805064
1276791214400	4.099725	9.112013	-1.2666923	0.2651434	0.0	3.5625	-51.25	9.125	-1.7082603	-0.12610023	-0.42279178
1276791214440	4.2904096	9.084772	-1.2666923	0.31981087	0.0	3.75	-51.5	9.375	-1.7146394	-0.12541588	-0.44121352
1276791214480	3.6774938	9.152874	-1.1849703	0.12829876	0.0	3.75	-51.75	9.375	-1.7338917	-0.11955753	-0.38204482
1276791214520	3.1463003	9.425281	-0.9942854	0.17952633	0.0	3.3125	-51.25	9.125	-1.7914066	-0.09973142	-0.32218403
1276791214560	2.9147544	9.466142	-0.9125633	0.140028	0.0	3.3125	-51.0	9.375	-1.8368691	-0.09187474	-0.29870114
1276791214600	2.6832085	9.534244	-0.95342433	0.14374828	0.0	3.3125	-50.75	9.125	-1.8298292	-0.09596493	-0.2743329
1276791214640	2.7921712	9.534244	-0.95342433	0.17368221	0.0	3.3125	-50.5	9.125	-1.8265454	-0.09567622	-0.2848909
1276791214680	3.1463003	9.343558	-0.9942854	0.1024313	0.0	3.5625	-51.0	8.625	-1.764049	-0.100509964	-0.32480866
1276791214720	3.336985	9.302697	-1.1168685	0.13935661	0.0	3.5625	-51.25	8.875	-1.7403668	-0.11253051	-0.3444145
1276791214760	3.568531	9.234595	-1.0760075	0.15176105	0.0	3.75	-51.25	9.375	-1.7641017	-0.10826147	-0.36875424
1276791214800	3.5957718	9.193735	-1.2258313	0.14106274	0.0	4.0	-51.25	9.375	-1.7302655	-0.12354147	-0.3728201
1276791214840	3.5276701	9.234595	-1.4165162	0.17977715	0.0	3.75	-51.5	9.875	-1.7133689	-0.14232415	-0.36489868
1276791214880	3.5957718	9.234595	-1.3075534	0.18919945	0.0	3.5625	-51.25	9.375	-1.7165207	-0.13118559	-0.3713183
1276791214930	3.5276701	9.234595	-1.2666923	0.15962887	0.0	3.0625	-51.25	8.875	-1.7050698	-0.12744251	-0.36489868
1276791214961	3.405087	9.384419	-1.1441092	0.24177933	0.0	3.5625	-51.25	9.125	-1.7474627	-0.11410696	-0.34807163
1276791215001	3.405087	9.275456	-0.9942854	0.1239748	0.0	3.75	-50.75	8.625	-1.7562245	-0.100291185	-0.35183308
1276791215040	3.3778462	9.234595	-1.0760075	0.08503246	0.0	4.5	-51.0	8.625	-1.731806	-0.10899469	-0.3506645
1276791215080	3.3778462	9.275456	-1.0760075	0.123189926	0.0	4.5	-50.75	8.875	-1.745985	-0.1085742	-0.34924254
1276791215120	3.445948	9.234595	-1.1441092	0.11611557	0.0	3.75	-50.5	8.375	-1.7122738	-0.11555847	-0.35715336
1276791215160	3.486809	9.275456	-1.1441092	0.16836452	0.0	3.3125	-50.0	8.375	-1.7187947	-0.114950486	-0.35957506
1276791215200	3.445948	9.343558	-1.1441092	0.21760178	0.0	3.0625	-49.5	7.875	-1.7022173	-0.114383385	-0.3533281
1276791215240	3.405087	9.384419	-1.0760075	0.23425293	0.0	3.3125	-49.75	7.375	-1.6917977	-0.10736859	-0.34807163
1276791215280	3.3778462	9.343558	-0.95342433	0.17437935	0.0	3.3125	-50.0	7.375	-1.7167697	-0.09566952	-0.34689707
1276791215320	3.173541	9.302697	-0.7218784	0.048939705	0.0	3.75	-50.5	7.375	-1.7668471	-0.07331124	-0.32876185
1276791215360	3.1463003	9.302697	-0.7627395	0.043281555	0.0	3.5625	-51.0	7.625	-1.7685114	-0.07751361	-0.32613653
1276791215400	3.1463003	9.343558	-0.84446156	0.08852005	0.0	3.75	-51.25	7.875	-1.7595582	-0.08544471	-0.32480866
1276791215440	3.173541	9.343558	-0.84446156	0.09721565	0.0	3.75	-51.0	7.375	-1.7363348	-0.08536951	-0.32742488
1276791215470	3.2961242	9.384419	-0.9942854	0.1893673	0.0	4.0	-50.75	7.625	-1.7133867	-0.099632904	-0.33777344
1276791215510	3.3778462	9.425281	-1.0760075	0.26328278	0.0	3.75	-50.75	6.875	-1.6609044	-0.10705788	-0.34412202
1276791215550	3.3778462	9.302697	-0.88532263	0.12983894	0.0	3.5625	-50.75	6.625	-1.6891001	-0.08921644	-0.3483007
1276791215580	3.255263	9.275456	-0.88532263	0.06323528	0.0	3.75	-51.0	6.875	-1.6994256	-0.0898201	-0.33752486
1276791215620	3.173541	9.343558	-0.8036005	0.0938158	0.0	3.0625	-51.0	6.625	-1.7130008	-0.081257336	-0.32742488
1276791215660	3.1463003	9.343558	-0.7218784	0.07881355	0.0	3.0625	-50.5	7.375	-1.774661	-0.073089294	-0.32480866
1276791215700	3.1054392	9.343558	-0.8036005	0.07219601	0.0	3.3125	-50.0	7.625	-1.7703451	-0.08143556	-0.32087567
1276791215740	3.214402	9.343558	-0.84446156	0.11038399	0.0	3.3125	-49.75	7.625	-1.7592081	-0.085255876	-0.33134046
1276791215770	3.3778462	9.343558	-0.8036005	0.16118336	0.0	4.0	-50.0	7.625	-1.7573684	-0.08070696	-0.34689704
1276791215800	3.336985	9.343558	-0.84446156	0.15079212	0.0	4.25	-50.25	7.625	-1.746241	-0.08490907	-0.34302393
1276791215840	3.2961242	9.384419	-0.8036005	0.17220402	0.0	3.75	-50.25	7.125	-1.7368551	-0.08061764	-0.33777344
1276791215880	3.336985	9.302697	-0.8036005	0.10906601	0.0	3.0625	-50.25	7.125	-1.7380953	-0.081132084	-0.3444145
1276791215920	3.445948	9.234595	-0.8036005	0.08264065	0.0	2.5625	-49.75	6.625	-1.7156944	-0.081349365	-0.35715333
1276791215960	3.636633	9.193735	-0.88532263	0.11976242	0.0	2.3125	-49.75	6.1875	-1.6737403	-0.08930724	-0.3766691
1276791216000	3.718355	9.193735	-0.95342433	0.15627861	0.0	2.5625	-50.0	6.375	-1.6652889	-0.09584387	-0.3843319
1276791216040	3.718355	9.275456	-0.9125633	0.22794151	0.0	2.8125	-50.25	6.375	-1.6737739	-0.091067575	-0.3812657
1276791216080	3.636633	9.234595	-0.9125633	0.16007519	0.0	3.0625	-50.5	6.625	-1.6826124	-0.091689415	-0.3751548
1276791216110	3.568531	9.234595	-0.84446156	0.12940884	0.0	3.0625	-50.75	7.125	-1.7195623	-0.08509224	-0.36875424
1276791216150	3.5276701	9.302697	-0.8036005	0.17485332	0.0	2.3125	-50.75	6.875	-1.7233142	-0.080596186	-0.36245596
1276791216190	3.5276701	9.234595	-0.7627395	0.10818577	0.0	2.3125	-50.75	6.875	-1.7233142	-0.080596186	-0.36245596
1276791216220	3.486809	9.302697	-0.8036005	0.16048527	0.0	2.0625	-50.75	7.375	-1.750074	-0.080712624	-0.3586102
1276791216251	3.405087	9.234595	-0.84446156	0.07188606	0.0	2.0625	-51.0	6.875	-1.71386	-0.08558894	-0.3532638
1276791216290	3.405087	9.234595	-0.88532263	0.075463295	0.0	2.8125	-51.0	6.875	-1.7005991	-0.08970866	-0.3532638
1276791216330	3.445948	9.193735	-0.9125633	0.05398369	0.0	2.8125	-51.0	6.625	-1.6808213	-0.09267873	-0.3586083
1276791216370	3.445948	9.302697	-0.9942854	0.16347218	0.0	2.8125	-51.0	6.375	-1.652729	-0.09989254	-0.35475332
1276791216410	3.445948	9.466142	-0.9942854	0.3161459	0.0	2.5625	-51.0	6.625	-1.6697949	-0.09838103	-0.34911755
1276791216450	3.486809	9.384419	-0.95342433	0.24989891	0.0	2.3125	-50.75	6.375	-1.6668783	-0.09494892	-0.35574523
1276791216490	3.445948	9.343558	-0.8036005	0.18446636	0.0	2.0625	-50.25	6.375	-1.7055527	-0.080518484	-0.35332814
1276791216530	3.568531	9.193735	-0.6537767	0.077002525	0.0	2.0625	-50.75	6.1875	-1.7221369	-0.06619561	-0.3702477
1276791216570	3.5957718	9.152874	-0.6946377	0.051706314	0.0	2.5625	-50.75	6.1875	-1.7088603	-0.07052025	-0.3743336
1276791216600	3.6774938	9.084772	-0.9125633	0.03661251	0.0	2.3125	-51.0	6.625	-1.6781923	-0.09284276	-0.38463536
1276791216640	3.759216	9.112013	-0.9125633	0.0925045	0.0	2.3125	-51.75	6.625	-1.6741138	-0.09231705	-0.39128348
1276791216680	3.636633	9.343558	-0.88532263	0.2586851	0.0	2.0625	-51.5	6.625	-1.6888657	-0.08807139	-0.37117267
1276791216720	3.445948	9.425281	-1.1441092	0.29381752	0.0	1.5625	-51.0	6.875	-1.6478761	-0.11351654	-0.35051033
1276791216760	3.568531	9.343558	-1.1168685	0.25733948	0.0	1.5625	-51.25	6.875	-1.6507051	-0.11120578	-0.36482736
1276791216800	3.5957718	9.193735	-0.8036005	0.09790039	0.0	1.5625	-50.75	7.125	-1.7354352	-0.08122375	-0.3728201
1276791216840	3.718355	9.193735	-0.8036005	0.14305878	0.0	1.8125	-50.5	7.375	-1.744845	-0.0808543	-0.38433188
1276791216880	3.7864566	9.112013	-0.8036005	0.09344101	0.0	2.3125	-50.75	7.625	-1.747904	-0.08126041	-0.39383548
1276791216920	3.636633	9.275456	-0.7627395	0.18539524	0.0	2.8125	-50.75	7.375	-1.7497783	-0.076409	-0.37365198
1276791216960	3.486809	9.343558	-0.84446156	0.20199776	0.0	2.5625	-51.0	7.875	-1.7608004	-0.08447362	-0.35717222
1276791217000	3.445948	9.302697	-0.8036005	0.14626408	0.0	2.3125	-51.25	8.125	-1.7820632	-0.080828205	-0.35475335
1276791217040	3.6774938	9.084772	-0.84446156	0.030531883	0.0	1.8125	-51.0	7.625	-1.7419072	-0.08594963	-0.3846354
1276791217080	3.990762	9.043911	-0.9942854	0.12849522	0.0	1.8125	-50.75	7.875	-1.7170388	-0.100245394	-0.41556624
1276791217120	4.099725	9.193735	-1.334794	0.3478651	0.0	2.0625	-50.5	7.375	-1.6312441	-0.13182984	-0.41946074
1276791217160	4.099725	9.112013	-1.3075534	0.2703638	0.0	2.3125	-50.5	7.125	-1.623844	-0.13012293	-0.42279175
1276791217200	3.5957718	9.343558	-1.0760075	0.26258278	0.0	2.3125	-51.0	7.625	-1.6963245	-0.10706535	-0.3673692
1276791217240	3.1463003	9.466142	-0.84446156	0.20435143	0.0	2.0625	-50.75	7.625	-1.768055	-0.08445372	-0.320887
1276791217280	3.0645783	9.466142	-0.6537767	0.16465378	0.0	2.3125	-51.0	7.125	-1.7892241	-0.06561288	-0.31309277
1276791217320	2.982856	9.425281	-0.5720546	0.09590435	0.0	2.5625	-50.5	6.875	-1.800107	-0.05780057	-0.30650118
1276791217360	3.336985	9.275456	-0.6946377	0.07525635	0.0	2.8125	-50.5	6.625	-1.7381606	-0.07035191	-0.34534758
1276791217400	3.8273177	9.00305	-0.9125633	0.01862526	0.0	2.5625	-50.5	6.625	-1.6776856	-0.09301322	-0.40196672
1276791217440	4.2086873	8.921328	-1.2666923	0.13858223	0.0	2.8125	-50.75	7.125	-1.6275125	-0.12771368	-0.44079798
1276791217480	4.5628166	9.234595	-1.4165162	0.59063625	0.0	2.5625	-51.25	7.125	-1.6089139	-0.13666403	-0.45891678
1276791217520	3.2961242	9.507003	-0.7218784	0.28139496	0.0	2.3125	-51.25	7.125	-1.7631859	-0.07161902	-0.33373627
1276791217560	2.3018389	9.697687	-0.46309182	0.17122841	0.0	2.3125	-51.5	6.375	-1.8508146	-0.04642853	-0.23304686
1276791217600	2.2609777	9.425281	-0.9125633	-0.07111168	0.0	1.8125	-51.25	5.6875	-1.6457924	-0.09387308	-0.23543568
1276791217640	3.405087	9.084772	-1.525479	0.014490128	0.0	1.5625	-51.0	5.6875	-1.4825021	-0.1559575	-0.35860637
1276791217680	4.0180025	8.894087	-1.2666923	0.03477478	0.0	1.5625	-50.5	5.4375	-1.5506147	-0.1290683	-0.4243175
1276791217720	3.9090397	8.962189	-0.9125633	0.013441086	0.0	1.5625	-50.25	4.9375	-1.60303	-0.09306247	-0.41129375
1276791217760	3.405087	9.112013	-0.61291564	-0.0599041	0.0	1.5625	-50.25	4.9375	-1.60303	-0.09306247	-0.41129375
1276791217790	3.1463003	9.234595	-0.5720546	-0.034025192	0.0	1.3125	-50.25	4.1875	-1.6520473	-0.058569916	-0.328373
1276791217830	2.7649305	9.956474	-0.29964766	0.5309515	0.0	1.3125	-50.25	3.6875	-1.725408	-0.028990246	-0.27087626
1276791217870	2.8738933	9.956474	-0.10896278	0.55686855	0.0	1.0625	-50.0	3.9375	-1.7975843	-0.010514265	-0.28100774
1276791217910	3.214402	9.80665	-0.46309182	0.52375317	0.0	1.0625	-49.75	4.4375	-1.7109535	-0.044843074	-0.31674224
1276791217950	3.1054392	9.425281	-0.27240697	0.12077999	0.0	1.0625	-50.25	4.6875	-1.7704012	-0.02744327	-0.31827834
1276791217990	3.255263	9.384419	-0.3405087	0.13216305	0.0	0.5625	-50.75	4.6875	-1.7465723	-0.034267206	-0.33389217
1276791218020	3.5957718	9.234595	-0.7627395	0.13261986	0.0	0.3125	-51.5	5.6875	-1.6756215	-0.07681551	-0.3713183
1276791218060	3.718355	9.275456	-0.61291564	0.20513916	0.0	0.0625	-52.0	5.9375	-1.7228051	-0.061257694	-0.3812657
1276791218100	2.6832085	9.697687	-0.3405087	0.26115417	0.0	0.5625	-52.0	7.125	-1.9312495	-0.033827998	-0.26993245
1276791218150	3.8681788	9.084772	-0.9125633	0.10943031	0.0	0.5625	-51.5	8.875	-1.7847887	-0.09215903	-0.40253714
1276791218190	5.053149	8.771504	-0.08172209	0.3166046	0.0	0.5625	-51.0	10.375	-1.9393506	-0.008072796	-0.5226508
1276791218230	5.9793324	8.921328	-0.0	0.93311214	0.0	0.3125	-51.0	12.0625	-1.9692532	-0.0	-0.5904648
1276791218270	5.7477865	8.539958	-0.53119355	0.50111866	0.0	-0.6875	-50.5	13.8125	-1.9687979	-0.051556155	-0.5924062
1276791218300	5.284695	8.19945	-0.84446156	-0.015220642	0.0	-0.4375	-50.75	15.75	-1.9870472	-0.08635225	-0.572512
1276791218340	5.8567495	8.62168	-1.2666923	0.6928444	0.0	-0.6875	-50.75	17.0	-1.9692212	-0.12093776	-0.5967012
1276791218380	6.1291566	8.281172	-2.7240696	0.85003376	0.0	-0.9375	-50.25	18.5	-1.820065	-0.25848973	-0.63715535
1276791218420	6.0474343	9.302697	-3.9771416	1.9801769	0.0	-0.6875	-50.0	20.1875	-1.7463676	-0.34417754	-0.5764267
1276791218460	4.7535014	12.4489975	-5.09401	4.4594727	0.0	-1.1875	-49.75	20.9375	-1.7381386	-0.3651296	-0.36475217
1276791218500	3.0645783	11.795221	-7.8861814	4.7092295	0.0	-1.4375	-49.0	22.875	-1.017125	-0.57433856	-0.254195
1276791218540	4.140586	9.00305	-6.3198414	1.9466372	0.0	-1.6875	-48.0	25.625	-1.4513625	-0.5677168	-0.43106383
1276791218580	4.630918	5.284695	-5.09401	-1.1278057	0.0	-1.9375	-46.5	28.3125	-1.6271324	-0.6272811	-0.7195593
1276791218620	1.9885708	5.243834	-6.238119	-1.4181852	0.0	-1.4375	-44.3125	32.0	-0.9723532	-0.83851993	-0.36246595
1276791218660	3.7864566	5.597963	-6.510526	-0.42254734	0.0	0.0625	-42.5625	34.5	-1.5880082	-0.7667279	-0.5947102
1276791218700	1.2258313	5.9793324	-7.5456724	-0.1013813	0.0	1.8125	-40.8125	36.4375	-0.90170425	-0.8906521	-0.20220952
1276791218740	0.42223078	7.0553403	-7.9679036	0.8443403	0.0	3.5625	-39.3125	38.1875	-0.9922252	-0.84517974	-0.059774265
1276791218780	1.6480621	6.782933	-7.7363577	0.61330795	0.0	5.5	-37.875	39.4375	-1.5748295	-0.83672875	-0.23835312
1276791218820	1.7978859	5.8567495	-7.9679036	0.2442894	0.0	7.5	-36.125	40.625	-1.5218954	-0.9153108	-0.29784513
1276791218860	0.50395286	5.434519	-7.7363577	-0.33885288	0.0	10.25	-34.625	41.375	-1.3120555	-0.95640296	-0.092467375
1276791218900	-0.27240697	5.829509	-7.8861814	0.0040197372	0.0	12.1875	-33.375	41.875	-1.3532393	-0.9337181	0.04669501
1276791218940	0.9942854	6.2789803	-7.504812	0.028816223	0.0	13.9375	-32.125	42.625	-1.831032	-0.86799675	-0.15704742
1276791218980	-0.5720546	5.829509	-6.782933	-0.8445854	0.0	15.4375	-30.6875	43.125	-1.8785056	-0.85847914	0.09781766
1276791219020	-1.1441092	5.284695	-6.5922484	-1.28053	0.0	16.1875	-29.1875	43.125	-1.8384086	-0.8838445	0.21320452
1276791219060	-0.23154591	5.706926	-7.3958488	-0.46206856	0.0	17.6875	-27.9375	42.875	-1.7819535	-0.9131916	0.04055055
1276791219100	-0.61291564	5.47538	-6.6331096	-1.1837969	0.0	18.875	-26.9375	42.125	-1.8610435	-0.87766284	0.111476205
1276791219140	-0.95342433	4.862464	-6.932757	-1.2851658	0.0	19.625	-26.6875	42.125	-1.579039	-0.95025206	0.19362201
1276791219180	-0.46309182	4.3312707	-6.701211	-1.814117	0.0	20.375	-26.1875	42.125	-1.5313365	-0.9944033	0.1065136
1276791219220	-0.53119355	4.671779	-7.205164	-1.203042	0.0	20.875	-25.6875	42.875	-1.5753777	-0.9926159	0.1132164
1276791219260	-0.61291564	4.630918	-6.8237944	-1.5371132	0.0	20.875	-24.75	43.625	-1.6926361	-0.9705075	0.13158815
1276791219300	-0.0	5.012288	-7.8180795	-0.5198097	0.0	20.875	-24.0	44.3125	-1.746779	-1.0006925	0.0
1276791219340	-0.53119355	6.1700177	-11.264028	3.0475168	0.0	20.625	-22.75	45.5625	-1.5997427	-1.0681149	0.08588095
1276791219380	0.10896278	5.7886477	-10.528529	2.208767	0.0	20.125	-21.0	46.0625	-1.7694061	-1.0680273	-0.018821307
1276791219420	-1.0351465	5.6660647	-12.067628	3.5650911	0.0	20.125	-19.75	46.8125	-1.5318365	-1.1254753	0.18069954
1276791219460	-1.56634	7.1234417	-12.762266	4.892748	0.0	20.125	-18.0	46.5625	-1.8241308	-1.0515975	0.21644089
1276791219500	-0.14982383	9.80665	-15.132206	8.226	0.0	19.875	-16.5625	46.8125	-2.093699	-0.9957295	0.0152765885
1276791219540	-1.334794	7.3141265	-12.14935	4.4371147	0.0	18.875	-15.8125	47.5625	-2.0744536	-1.0216285	0.18050891
1276791219580	-2.5606253	4.4810944	-6.510526	-1.4985847	0.0	17.1875	-16.5625	47.5625	-2.617276	-0.9005026	0.5191461
1276791219620	-1.6889231	2.7649305	-4.7535014	-4.053992	0.0	14.1875	-18.0	48.75	-2.8365507	-0.972531	0.5483501
1276791219660	2.6423476	4.399372	-6.2108784	-1.7498837	0.0	10.25	-20.25	49.25	-2.4249864	-0.88023674	-0.5408747
1276791219700	2.7921712	4.0588636	-5.6252036	-2.3291163	0.0	6.0	-22.75	48.75	-2.4273875	-0.8515168	-0.60257214
1276791219740	3.636633	3.445948	-6.3607025	-1.7098484	0.0	0.8125	-24.5	48.5	-2.3250558	-0.9036363	-0.81231475
1276791219780	6.5922484	6.932757	-6.3198414	1.6590052	0.0	-4.375	-25.9375	47.5625	-2.6530647	-0.5837989	-0.76022726
1276791219820	5.6660647	7.5865335	-4.630918	0.7339945	0.0	-8.875	-27.6875	46.3125	-2.8316014	-0.4548629	-0.64148736
1276791219860	5.6252036	6.6331096	-4.3312707	-0.090634346	0.0	-13.0625	-29.4375	45.0625	-2.812301	-0.46205294	-0.70336044
1276791219900	6.932757	7.6273947	-3.9771416	1.241333	0.0	-16.3125	-31.1875	42.875	-2.8309739	-0.36825508	-0.73772615
1276791219940	5.8976107	7.273266	-3.718355	0.26848602	0.0	-18.5	-33.125	40.125	-2.8719668	-0.3780001	-0.6813288
1276791219980	3.5957718	7.164303	-3.0237172	-1.2392883	0.0	-21.0	-34.875	37.1875	2.990106	-0.36070552	-0.46516737
1276791220020	2.7921712	6.5513873	-2.6014864	-2.2247887	0.0	-21.75	-36.875	34.25	2.8361595	-0.35023627	-0.40288273
1276791220060	4.6036777	6.1291566	-2.6423476	-1.6984806	0.0	-22.75	-38.375	31.75	-2.8391447	-0.33194986	-0.6442118
1276791220100	4.7126403	5.243834	-2.070293	-2.458665	0.0	-23.0	-39.8125	29.5625	-2.5969214	-0.28561723	-0.7320971
1276791220140	4.372132	7.164303	-2.6423476	-1.007515	0.0	-23.0	-41.0625	27.0625	-2.992356	-0.30500326	-0.547934
1276791220180	4.5628166	9.152874	-2.5606253	0.7361765	0.0	-23.5	-42.0625	24.875	2.961467	-0.24533206	-0.46245643
1276791220220	6.742072	9.00305	-2.6832085	1.7566557	0.0	-23.75	-43.3125	22.6875	-2.5662723	-0.23417965	-0.6427746
1276791220260	8.117727	9.956474	-2.1792557	3.22324	0.0	-24.5	-44.0625	20.4375	-2.499797	-0.16804023	-0.6840137
1276791220300	7.6954966	13.184497	-3.3642259	5.825677	0.0	-24.75	-44.3125	19.6875	-3.0262377	-0.21690638	-0.52833134
1276791220340	2.3699405	9.697687	-3.6774938	0.8322277	0.0	-24.5	-44.3125	20.6875	1.758499	-0.35294798	-0.23968421
1276791220380	2.7921712	10.147159	-3.568531	1.306201	0.0	-24.25	-43.5625	23.625	2.0940223	-0.32690924	-0.2685222
1276791220420	9.888372	9.00305	1.6889231	3.672492	0.0	-23.5	-41.5625	28.3125	-2.7258015	0.1256292	-0.83222765
1276791220460	5.7477865	7.668256	-5.434519	1.2103004	0.0	-22.5	-39.3125	32.75	-2.4183052	-0.5158645	-0.64321685
1276791220500	0.6537767	5.706926	-1.4573772	-3.8804054	0.0	-21.5	-36.375	36.6875	2.557876	-0.24846788	-0.114061244
1276791220580	1.7570249	2.6832085	-2.3426998	-5.8348765	0.0	-20.25	-32.625	39.875	-3.0444267	-0.6308572	-0.5797578
1276791220620	0.6537767	4.140586	-3.8681788	-4.1027317	0.0	-19.0	-30.6875	42.125	2.111392	-0.74525833	-0.15660188
1276791220661	2.1111538	5.366417	-3.5957718	-3.0106974	0.0	-18.0	-29.9375	42.875	2.832837	-0.55754536	-0.3748047
1276791220710	4.1814466	6.1700177	-6.0474343	-0.20846939	0.0	-17.3125	-30.6875	42.125	-2.8755858	-0.681631	-0.5956051
1276791220750	2.3699405	4.1814466	-3.568531	-3.820372	0.0	-17.3125	-32.875	39.875	-3.0258281	-0.63865805	-0.51563126
1276791220790	1.8387469	2.3426998	-0.3405087	-6.8091216	0.0	-17.3125	-34.875	37.1875	-2.903558	-0.11384222	-0.6654555
1276791220830	1.8387469	-0.9942854	0.53119355	-7.6498566	0.0	-18.0	-36.625	35.25	-2.2625065	0.24884894	-2.066503
1276791220870	-1.4982382	-1.1441092	-2.4108016	-6.746312	0.0	-19.5	-37.625	33.75	2.801027	-0.90715855	2.2229676
1276791220910	-1.4982382	9.112013	-2.6832085	-0.19035625	0.0	-20.0	-37.375	33.0	2.2836728	-0.282781	0.16296633
1276791220950	11.413852	19.57244	1.9477097	12.93428	0.0	-21.5	-37.375	32.0	-3.1344154	0.085752815	-0.5279446
1276791220990	4.140586	8.049625	-7.9679036	2.2527199	0.0	-22.5	-35.625	32.25	0.811513	-0.7217816	-0.47508723
1276791221020	-10.760075	3.486809	0.92618364	1.5421324	0.0	-22.25	-34.375	32.25	2.239838	0.0817017	1.2574234
1276791221060	7.7772183	18.196785	-0.46309182	9.987858	0.0	-22.25	-34.625	32.0	2.9243457	-0.0233971	-0.40389764
1276791221090	17.161638	9.302697	-4.3312707	10.188898	0.0	-21.5	-34.875	31.75	-2.42215	-0.21834247	-1.0740669
1276791221130	8.689782	3.214402	-8.62168	2.8494978	0.0	-20.5	-37.375	29.3125	-1.5539074	-0.7494342	-1.2164992
1276791221170	-0.50395286	12.489859	-6.5513873	4.3061523	0.0	-20.5	-39.8125	25.625	1.776711	-0.48274913	0.040327087
1276791221210	5.8976107	4.372132	-1.334794	-2.3448124	0.0	-20.0	-42.0625	22.1875	-2.1552625	-0.17985077	-0.93286103
1276791221250	7.7363577	5.829509	0.42223078	-0.11063671	0.0	-19.25	-44.0625	19.4375	-2.3035655	0.04356062	-0.92504555
1276791221290	6.2108784	16.88923	2.6423476	8.381344	0.0	-19.0	-44.8125	18.75	3.0494955	0.14579573	-0.3523923
1276791221330	3.2961242	19.531578	0.95342433	10.024033	0.0	-19.25	-44.3125	20.1875	2.6638339	0.048096783	-0.16718349
1276791221370	-0.27240697	15.241169	-1.525479	5.513093	0.0	-20.0	-43.0625	23.875	2.324874	-0.0997413	0.0178712
1276791221410	4.099725	7.7772183	-0.8036005	-0.978364	0.0	-20.75	-40.3125	28.3125	-3.123197	-0.091151826	-0.48512736
1276791221450	4.862464	3.5957718	0.7218784	-3.716146	0.0	-21.0	-37.875	33.25	-2.6967213	0.118804514	-0.9340519
1276791221490	-0.19068487	0.9942854	0.92618364	-8.434505	0.0	-20.0	-34.875	38.1875	2.6482942	0.740951	0.18948016
1276791221546	-3.0237172	-1.7297841	1.0760075	-6.1607194	0.0	-18.0	-32.125	40.625	2.5706296	0.29958695	2.0904274
1276791221590	2.8738933	5.407278	-8.049625	0.30741882	0.0	-15.8125	-32.375	42.125	-0.372126	-0.9204663	-0.48851812
1276791221621	5.2165933	15.745122	-11.876944	10.593925	0.0	-13.3125	-32.375	42.375	2.969496	-0.6214155	-0.31993285
1276791221660	-0.95342433	10.691973	-7.014479	3.016385	0.0	-11.3125	-33.375	42.125	2.462395	-0.57880235	0.08893674
1276791221700	6.3198414	17.120777	-3.9771416	8.8716545	0.0	-10.125	-34.125	42.875	-3.07415	-0.21457113	-0.35361698
1276791221740	2.3018389	5.8567495	3.173541	-2.7588606	0.0	-10.8125	-32.875	43.8125	-3.1057243	0.4670888	-0.37447754
1276791221780	3.173541	10.310603	3.0645783	1.4081411	0.0	-12.8125	-32.625	43.8125	3.0904121	0.27678266	-0.29859176
1276791221820	8.390134	12.980191	0.6946377	5.664686	0.0	-15.8125	-32.625	42.625	-3.04168	0.044913463	-0.5738261
1276791221860	1.1441092	7.5456724	-1.56634	-2.0156565	0.0	-19.25	-34.375	39.4375	2.7232602	-0.20242453	-0.15047838
1276791221900	3.2961242	7.246025	0.38136974	-1.8370357	0.0	-21.75	-36.875	34.75	3.0189526	0.047871254	-0.4269107
1276791221940	7.43671	7.3958488	-0.0	0.68159294	0.0	-24.0	-38.875	29.8125	-2.798767	-0.0	-0.788153
1276791221980	4.5628166	6.5922484	-2.3018389	-1.465457	0.0	-25.1875	-41.3125	24.625	-2.8769917	-0.27958876	-0.6054372
1276791222010	5.7477865	8.117727	-1.0351465	0.1936531	0.0	-25.1875	-42.8125	20.1875	-2.8688357	-0.103697255	-0.6161106
1276791222040	7.3958488	7.3958488	-1.6889231	0.7881422	0.0	-24.9375	-43.8125	16.75	-2.1529942	-0.16009368	-0.7853982
1276791222080	9.193735	7.8861814	-2.6014864	2.5822296	0.0	-24.0	-45.3125	13.5625	-1.7417525	-0.21156025	-0.8618042
1276791222120	6.238119	10.228881	-2.2201166	2.3783016	0.0	-22.75	-46.0625	11.3125	-1.9466668	-0.18322499	-0.54763323
1276791222160	8.19945	11.032481	0.61291564	3.952794	0.0	-22.5	-46.3125	10.8125	-2.5091896	0.04455983	-0.6391413
1276791222200	2.3426998	12.680544	0.88532263	3.1188374	0.0	-22.25	-46.5	11.5625	2.4094377	0.068548	-0.18268768
1276791222240	-0.9942854	19.109348	0.6537767	9.339714	0.0	-22.0	-45.8125	15.25	2.1737287	0.034152895	0.05198448
1276791222280	3.636633	16.739407	1.9477097	7.433605	0.0	-22.75	-43.8125	20.4375	2.6752846	0.113216236	-0.21392557
1276791222320	5.6252036	11.495573	-1.1849703	3.0461807	0.0	-23.75	-40.5625	25.125	2.973868	-0.09232639	-0.45508048
1276791222360	2.1792557	7.1234417	-1.879608	-2.1238441	0.0	-24.75	-37.125	30.3125	2.5469115	-0.24715999	-0.29688582
1276791222400	1.334794	4.0180025	0.46309182	-5.547487	0.0	-24.75	-33.375	34.5	2.8174314	0.10894373	-0.32073325
1276791222440	-1.0760075	1.2666923	0.6537767	-8.02067	0.0	-24.0	-30.6875	37.9375	2.356446	0.37477207	0.70418185
1276791222480	-1.7297841	0.14982383	-0.61291564	-7.9653826	0.0	-22.5	-29.1875	40.625	2.5373476	-0.33935297	1.4843978
1276791222510	0.8036005	2.1111538	-6.3607025	-3.0567403	0.0	-20.25	-29.1875	41.375	0.42955872	-1.2295518	-0.36371064
1276791222540	6.469665	7.1234417	-9.302697	3.5776749	0.0	-19.0	-30.4375	40.875	-2.219241	-0.7684813	-0.737339
1276791222582	8.62168	16.739407	-11.727119	12.375921	0.0	-17.5625	-31.6875	40.125	3.0677135	-0.5570255	-0.47561732
1276791222620	-0.7218784	9.888372	-6.3607025	1.9729738	0.0	-16.0625	-33.125	39.625	2.290124	-0.5704074	0.07287348
1276791222660	4.2904096	15.472715	-2.5606253	6.4527874	0.0	-15.0625	-33.125	40.125	2.976357	-0.15814385	-0.2704928
1276791222700	2.1792557	3.8273177	1.607201	-5.118302	0.0	-14.3125	-32.625	40.625	-3.0680733	0.34990388	-0.5176118
1276791222740	10.56939	10.460427	3.7864566	5.538375	0.0	-14.3125	-33.125	39.875	-2.8618047	0.24932994	-0.7905795
1276791222780	5.7886477	11.876944	-1.525479	3.4936247	0.0	-15.3125	-34.625	38.4375	-3.1000972	-0.114948265	-0.453505
1276791222820	-1.8387469	8.921328	0.6537767	-0.6743727	0.0	-16.0625	-37.125	35.6875	2.592582	0.07165096	0.2032606
1276791222860	2.4108016	10.528529	-0.8036005	1.0242167	0.0	-16.5625	-39.8125	32.25	2.8963997	-0.07426364	-0.22509754
1276791222900	3.5276701	6.5513873	-0.53119355	-2.3469381	0.0	-17.3125	-42.0625	29.5625	-2.9645758	-0.07126864	-0.49394137
1276791222940	2.2609777	7.504812	-0.38136974	-1.9593792	0.0	-17.0625	-43.8125	26.375	2.9890883	-0.04861818	-0.2926219
1276791222980	3.255263	7.5456724	-2.3426998	-1.2613497	0.0	-17.0625	-45.3125	23.125	-2.8926985	-0.2777064	-0.40728566
1276791223020	5.053149	7.3549876	-1.1168685	-0.8134556	0.0	-16.5625	-45.8125	20.1875	-2.4273293	-0.124511875	-0.60197294
1276791223060	9.697687	11.985906	-2.982856	5.8969965	0.0	-15.8125	-47.0	17.25	-2.009661	-0.19110787	-0.6802596
1276791223100	7.7772183	11.495573	-5.434519	5.098628	0.0	-14.8125	-48.0	15.75	-1.3779986	-0.3732071	-0.594807
1276791223140	8.117727	8.580819	1.5390993	2.1053934	0.0	-13.5625	-48.25	16.0	-2.318182	0.12956753	-0.7576728
1276791223180	4.399372	14.09706	-0.42223078	4.9669704	0.0	-12.3125	-49.25	18.0	-2.966983	-0.02858394	-0.3024997
1276791223220	2.1792557	19.109348	1.4982382	9.484827	0.0	-11.0625	-48.25	21.6875	2.927786	0.0777415	-0.113550775
1276791223270	8.158588	14.056199	0.50395286	6.4535236	0.0	-10.375	-46.75	26.875	-2.6678998	0.030998044	-0.5259028
1276791223310	5.5571017	8.049625	-0.14982383	-0.023997307	0.0	-10.625	-44.8125	31.5	-2.6449	-0.015315854	-0.60422367
1276791223350	0.6537767	4.862464	0.7218784	-4.847609	0.0	-10.625	-42.3125	35.6875	3.0245862	0.14608721	-0.13365227
1276791223390	-0.6537767	1.8387469	1.7570249	-7.1807117	0.0	-10.125	-40.8125	38.4375	2.7219257	0.73300207	0.3416155
1276791223430	-1.879608	2.7921712	0.7218784	-6.36423	0.0	-9.125	-39.5625	39.625	2.554251	0.211269	0.5924919
1276791223470	0.040861044	5.2165933	-2.982856	-3.7973285	0.0	-7.375	-39.8125	40.125	2.7026296	-0.519414	-0.007832739
1276791223510	3.1463003	10.079058	-7.8589406	3.3557796	0.0	-6.375	-41.0625	39.625	-2.437986	-0.6398483	-0.30257705
1276791223550	8.62168	14.47843	-10.56939	10.084814	0.0	-4.875	-42.5625	39.4375	-2.1944196	-0.56019694	-0.5370926
1276791223590	4.4810944	4.671779	-8.049625	0.5230255	0.0	-3.625	-43.8125	39.4375	-1.5030576	-0.89350307	-0.76456785
1276791223620	3.7864566	10.732834	-6.3198414	3.2114668	0.0	-2.1875	-44.5625	39.4375	-2.3924668	-0.50689507	-0.33915985
1276791223660	4.7943625	14.47843	3.1463003	5.7660837	0.0	-0.9375	-44.8125	39.875	-2.8717177	0.20343947	-0.31977373
1276791223700	3.759216	4.5219555	3.405087	-3.0114746	0.0	-0.1875	-45.0625	39.1875	-2.6323738	0.52487355	-0.6935521
1276791223740	6.510526	11.264028	1.1441092	3.2537584	0.0	0.5625	-46.5	37.1875	-2.6116028	0.08771377	-0.5240805
1276791223780	0.50395286	9.507003	-1.4573772	-0.17539787	0.0	0.0625	-48.5	34.0	-3.0418606	-0.151901	-0.05295903
1276791223820	-0.5720546	11.182305	-0.08172209	1.3905764	0.0	0.3125	-50.75	30.3125	3.0655665	-0.0072984872	0.05111257
1276791223860	3.5957718	9.343558	-0.14982383	0.20604706	0.0	0.3125	-53.0	26.875	-2.5048094	-0.014963942	-0.36736917
1276791223900	3.2961242	5.6252036	-1.3075534	-3.1570601	0.0	0.5625	-54.4375	23.375	-2.0268612	-0.19792646	-0.53002936
1276791223940	3.636633	7.8180795	-0.8036005	-1.1467867	0.0	1.5625	-55.6875	20.9375	-2.1481738	-0.092929676	-0.4353866
1276791223980	3.718355	10.501288	-1.1849703	1.3963575	0.0	2.0625	-56.9375	18.0	-2.1015265	-0.10597074	-0.3403099
1276791224020	7.6954966	14.1787815	-4.862464	7.0427437	0.0	3.0625	-57.9375	15.5	-1.589495	-0.2927475	-0.49725795
1276791224060	10.882658	10.923519	-3.5276701	6.0110607	0.0	3.3125	-59.1875	14.3125	-1.6863742	-0.22491167	-0.78352433
1276791224100	9.112013	9.724928	1.9885708	3.667674	0.0	4.0	-59.4375	14.0625	-1.9994514	0.1481233	-0.7528717
1276791224140	4.2086873	13.402422	0.6537767	4.256258	0.0	3.75	-58.9375	15.75	-2.281944	0.046506204	-0.304273
1276791224180	0.14982383	19.000385	1.4573772	9.250135	0.0	2.5625	-58.6875	19.4375	-3.015514	0.076550245	-0.007885141
1276791224220	3.990762	13.443283	1.920469	4.3473682	0.0	0.3125	-56.6875	23.875	-2.654394	0.13610348	-0.28857282
1276791224260	1.7297841	8.499097	-2.3426998	-0.8224945	0.0	-3.1875	-54.4375	28.5625	-2.6213386	-0.26380834	-0.20078328
1276791224300	1.7978859	4.2904096	-1.3075534	-4.9744973	0.0	-5.125	-52.5	33.25	-2.438739	-0.2740104	-0.39681813
1276791224340	0.92618364	1.9885708	-0.42223078	-7.5727053	0.0	-6.625	-50.5	36.6875	-2.6231284	-0.19015063	-0.43587697
1276791224380	-0.42223078	2.9147544	0.6537767	-6.7897816	0.0	-5.875	-49.25	38.9375	2.8815622	0.21844012	0.14385912
1276791224420	-0.50395286	4.3312707	-1.607201	-5.159396	0.0	-3.625	-49.0	40.375	2.7295573	-0.35313264	0.11583137
1276791224460	3.2961242	8.390134	-8.880466	2.8472605	0.0	-1.9375	-49.5	39.875	-1.305691	-0.7779158	-0.37433362
1276791224500	8.539958	16.276316	-11.985906	12.136715	0.0	0.3125	-49.5	38.6875	-1.9225796	-0.5778449	-0.48320097
1276791224550	1.56634	12.217452	-8.430995	5.119877	0.0	1.8125	-49.75	38.1875	-2.0053093	-0.60023093	-0.12750955
1276791224590	4.440233	11.604536	4.099725	3.277258	0.0	2.0625	-49.5	37.4375	-2.7664146	0.31870916	-0.36544234
1276791224620	-2.8330324	2.6423476	-0.53119355	-5.8963766	0.0	1.0625	-49.25	37.9375	2.3213987	-0.13626695	0.8202099
1276791224660	9.507003	12.14935	2.1792557	5.773432	0.0	-0.4375	-50.0	37.4375	-2.52089	0.14033464	-0.66398567
1276791224700	5.134871	8.962189	-1.525479	0.6343651	0.0	-1.9375	-51.5	35.25	-2.438144	-0.14662933	-0.52029103
1276791224740	-1.9477097	6.2108784	-1.334794	-3.1620846	0.0	-2.9375	-53.6875	32.25	2.420809	-0.20226133	0.3038835
1276791224780	3.759216	10.038197	0.92618364	0.9522953	0.0	-2.9375	-55.4375	28.3125	-2.670437	0.08619166	-0.3583245
1276791224820	4.140586	9.656827	-0.6537767	0.7207508	0.0	-3.1875	-56.4375	24.375	-2.3987467	-0.062142372	-0.405062
1276791224860	3.336985	7.1234417	-1.4573772	-1.8064728	0.0	-2.9375	-56.9375	20.4375	-2.0243104	-0.18319102	-0.4380916
1276791224900	6.8237944	6.701211	-1.4982382	-0.12599277	0.0	-1.9375	-57.1875	17.75	-1.8455954	-0.15539075	-0.79446137
1276791224940	8.580819	9.425281	-2.1792557	3.1245346	0.0	-0.6875	-57.9375	14.5625	-1.7520819	-0.16933526	-0.73853385
1276791224980	8.539958	11.264028	-3.1054392	4.665839	0.0	1.3125	-58.4375	12.3125	-1.631346	-0.216257	-0.6487044
1276791225020	7.9270425	10.337844	-1.2258313	3.2781372	0.0	2.8125	-58.6875	11.3125	-1.7547623	-0.09382128	-0.6541657
1276791225060	4.440233	10.419566	1.3075534	1.5947857	0.0	3.0625	-58.4375	11.3125	-2.1618702	0.114936106	-0.40283903
1276791225090	0.53119355	17.774553	-0.61291564	7.9863987	0.0	3.0625	-57.9375	14.0625	-2.7634573	-0.03445373	-0.029876165
1276791225130	0.42223078	18.496431	1.9477097	8.796841	0.0	1.8125	-56.9375	18.25	-3.0132234	0.10488814	-0.022823725
1276791225170	6.238119	15.173067	0.5720546	6.6086884	0.0	-0.4375	-55.4375	23.625	-2.4584408	0.034855843	-0.39006516
1276791225210	2.4925237	8.19945	-2.4108016	-0.904088	0.0	-2.9375	-53.9375	28.8125	-2.3809125	-0.27422255	-0.29511032
1276791225250	2.152015	3.405087	0.313268	-5.7663627	0.0	-4.875	-51.75	33.0	-2.5689843	0.07761397	-0.5636172
1276791225290	-0.23154591	1.1849703	0.92618364	-8.2849455	0.0	-5.375	-49.75	36.1875	2.8906767	0.65435666	0.19297081
1276791225330	-1.3756552	-0.08172209	-0.38136974	-8.376773	0.0	-5.375	-48.75	38.1875	2.2496848	-0.269983	1.6301326
1276791225370	-0.6946377	1.7978859	-4.7126403	-4.715099	0.0	-3.625	-47.75	38.4375	0.6799192	-1.182566	0.36869588
1276791225410	5.7477865	10.95076	-9.534244	5.8093033	0.0	-2.1875	-48.5	37.6875	-1.7157608	-0.65674865	-0.48334944
1276791225450	7.014479	15.091345	-10.269742	9.748892	0.0	-1.4375	-49.75	36.4375	-1.912665	-0.5529003	-0.43509442
1276791225490	1.920469	9.507003	-8.62168	3.170433	0.0	-0.4375	-51.25	35.25	-0.9407467	-0.7266604	-0.1993234
1276791225530	6.2789803	12.340035	4.9850473	4.9090815	0.0	-0.9375	-52.25	35.0	-2.7039049	0.3455948	-0.4706866
1276791225560	-1.9477097	3.255263	-0.7627395	-5.937273	0.0	-1.6875	-52.25	35.25	2.3122005	-0.19842148	0.53918797
1276791225600	10.038197	12.639683	3.9499009	6.8104706	0.0	-2.4375	-52.75	34.0	-2.5207825	0.239998	-0.6711827
1276791225640	3.173541	9.724928	-1.607201	0.5484781	0.0	-2.6875	-53.4375	31.0625	-2.587668	-0.15583822	-0.31543487
1276791225681	-1.920469	7.273266	-1.607201	-2.1143365	0.0	-2.6875	-55.1875	26.875	2.3120828	-0.2104868	0.25815314
1276791225720	5.6252036	10.882658	1.3756552	2.5208635	0.0	-2.1875	-56.9375	22.4375	-2.4297848	0.111825176	-0.47707292
1276791225760	4.2086873	7.7772183	-1.2666923	-0.87341595	0.0	-1.6875	-58.1875	18.75	-1.9743247	-0.14227499	-0.49602774
1276791225800	4.0588636	6.4424243	-0.84446156	-2.1455588	0.0	-1.1875	-59.6875	16.25	-1.8996594	-0.11045176	-0.5622019
1276791225840	4.9850473	7.6954966	-1.3756552	-0.5349846	0.0	0.0625	-60.625	13.8125	-1.7539551	-0.1489218	-0.5748184
1276791225880	6.2789803	9.275456	-2.9147544	1.7672634	0.0	1.0625	-61.125	10.8125	-1.5101666	-0.2545793	-0.59508514
1276791225920	9.384419	9.724928	-2.6014864	3.9559546	0.0	3.3125	-61.875	8.875	-1.5869687	-0.1901699	-0.7675811
1276791225960	8.049625	8.662541	-0.84446156	2.0486946	0.0	4.75	-61.625	7.875	-1.6775837	-0.07129082	-0.7487398
1276791226000	7.3549876	10.841797	1.5390993	3.3846054	0.0	5.25	-61.875	8.625	-1.9192319	0.116942085	-0.5960762
1276791226030	-0.27240697	19.000385	0.6946377	9.20838	0.0	4.25	-62.375	11.5625	-2.9036644	0.03653911	0.014335936
1276791226070	-1.9477097	19.504337	1.879608	9.884609	0.0	1.3125	-61.875	16.0	2.9231775	0.09559948	0.09953038
1276791226110	3.336985	16.86199	0.14982383	7.3830166	0.0	-2.9375	-61.125	21.1875	-2.7492661	0.008716034	-0.19537537
1276791226150	3.6774938	7.8589406	-1.7978859	-0.9455385	0.0	-6.875	-59.1875	26.625	-2.2296984	-0.20431474	-0.4376703
1276791226190	0.9942854	5.09401	0.61291564	-4.5804462	0.0	-9.125	-56.4375	31.75	-3.093089	0.11754792	-0.1927636
1276791226230	-1.2666923	1.7297841	1.334794	-7.2811127	0.0	-10.125	-53.6875	36.1875	2.4725978	0.5568549	0.6320658
1276791226270	-0.8036005	0.42223078	0.46309182	-8.787579	0.0	-9.125	-51.25	39.4375	2.2767043	0.47172692	1.0870172
1276791226310	0.95342433	2.2201166	-3.1054392	-5.8719726	0.0	-6.875	-49.75	41.375	-0.8045904	-0.90958446	-0.405632
1276791226350	5.5571017	8.62168	-9.847511	4.4126406	0.0	-4.125	-49.25	41.625	-1.5626454	-0.7650123	-0.5725342
1276791226390	4.0180025	15.4046135	-11.182305	9.64818	0.0	-1.4375	-50.25	40.625	-1.9941047	-0.6123389	-0.25514638
1276791226430	-2.9147544	8.008764	-7.5456724	1.576375	0.0	1.3125	-51.0	39.875	1.435217	-0.7246697	0.3490441
1276791226470	6.8237944	16.08563	0.50395286	7.673786	0.0	2.8125	-51.0	40.125	-2.643961	0.02883353	-0.40120706
1276791226510	1.9477097	4.5219555	2.2609777	-4.3887467	0.0	2.8125	-50.5	40.875	-2.7588484	0.43048987	-0.40670797
1276791226550	5.175732	11.645397	0.8036005	2.9624243	0.0	1.8125	-49.5	41.125	-2.6809015	0.06297496	-0.41822433
1276791226590	4.0180025	10.038197	-0.6946377	1.02812	0.0	-0.1875	-49.75	39.4375	-2.6753533	-0.06415591	-0.38074028
1276791226620	1.6480621	7.504812	-0.8036005	-2.0811024	0.0	-2.1875	-51.25	36.4375	-2.8631916	-0.10420708	-0.21616945
1276791226650	3.7864566	7.7772183	0.42223078	-1.1463585	0.0	-3.875	-53.0	33.25	-2.6360114	0.048774134	-0.45308462
1276791226690	6.701211	8.853226	0.6946377	1.3184729	0.0	-5.125	-54.6875	30.0625	-2.4207983	0.062479295	-0.64791715
1276791226730	2.8738933	7.9679036	-0.7218784	-1.3055992	0.0	-5.875	-54.9375	28.0625	-2.6308699	-0.08501876	-0.34616074
1276791226770	4.0180025	7.4639506	-1.8387469	-1.1327877	0.0	-5.875	-55.1875	26.125	-2.179903	-0.21360782	-0.49383253
1276791226810	8.812365	6.932757	-0.95342433	1.4463453	0.0	-5.125	-55.9375	24.125	-2.0416594	-0.084827974	-0.904213
1276791226850	10.119919	9.466142	-2.3699405	4.2517004	0.0	-3.875	-55.9375	22.875	-1.9591101	-0.1693877	-0.8187655
1276791226890	6.469665	10.760075	-4.0180025	3.3759184	0.0	-2.4375	-56.4375	21.1875	-1.7558947	-0.3097249	-0.5413497
1276791226930	7.6954966	10.56939	0.88532263	3.2974129	0.0	-1.4375	-56.4375	20.9375	-2.2140245	0.06761243	-0.6293324
1276791226970	1.3075534	13.756551	-0.46309182	4.01966	0.0	-0.6875	-55.1875	22.1875	-2.9220238	-0.03349979	-0.09476482
1276791227010	-1.6889231	19.463476	1.2666923	9.770987	0.0	-0.9375	-53.25	24.875	2.9480329	0.06474621	0.08655716
1276791227050	4.671779	16.589584	0.10896278	7.4285374	0.0	-2.1875	-51.0	29.5625	-2.7677882	0.006322154	-0.27450025
1276791227110	2.6423476	6.469665	-1.0760075	-2.7358398	0.0	-3.4375	-47.5	34.25	-2.6402128	-0.15276952	-0.38774478
1276791227150	1.4573772	4.399372	0.46309182	-5.149089	0.0	-3.875	-43.8125	37.9375	-2.905651	0.099592514	-0.31989184
1276791227190	0.19068487	1.6889231	0.6537767	-7.985594	0.0	-3.1875	-40.5625	40.375	-3.1151395	0.36720657	-0.11242713
1276791227230	-0.3405087	-0.19068487	-0.7218784	-8.986032	0.0	-1.6875	-38.375	41.375	2.424655	-1.0751797	2.0812845
1276791227270	0.23154591	2.2201166	-4.4810944	-4.80038	0.0	0.3125	-37.375	40.875	-0.27191418	-1.1086475	-0.103918776
1276791227300	5.47538	11.304889	-10.310603	6.4441605	0.0	2.5625	-38.625	39.4375	-2.016097	-0.68731874	-0.45103917
1276791227340	4.5628166	16.317177	-11.917805	10.908167	0.0	3.75	-39.8125	37.9375	-2.1586344	-0.61300457	-0.2726681
1276791227380	-1.4982382	6.851035	-7.3141265	0.3263569	0.0	5.5	-40.5625	36.6875	0.68146133	-0.8064169	0.2152984
1276791227420	7.3549876	16.208214	1.9477097	8.098536	0.0	6.25	-40.5625	36.4375	-2.629653	0.10899476	-0.4259942
1276791227460	3.3778462	6.6331096	1.4165162	-2.229414	0.0	5.0	-39.5625	36.4375	-2.6510963	0.18805	-0.47101244
1276791227500	6.1291566	12.299174	1.607201	4.0287876	0.0	3.0625	-40.3125	35.6875	-2.6582427	0.1164284	-0.46231782
1276791227563	2.070293	9.997335	-1.1168685	0.46370602	0.0	0.5625	-41.0625	33.75	-2.8463476	-0.1089623	-0.20419818
1276791227600	5.829509	10.038197	-0.10896278	1.8019857	0.0	-1.9375	-43.3125	30.5625	-2.5549188	-0.009386493	-0.5261318
1276791227640	9.275456	8.471856	-0.95342433	2.791582	0.0	-3.4375	-45.5625	27.8125	-2.2485728	-0.07575164	-0.83064735
1276791227680	4.862464	4.9850473	-0.9942854	-2.772245	0.0	-4.125	-46.5	25.375	-2.1665213	-0.14182098	-0.77295065
1276791227720	5.2165933	4.7943625	-0.46309182	-2.7064238	0.0	-4.625	-47.5	23.625	-2.159391	-0.06526845	-0.82755005
1276791227760	3.445948	8.539958	-1.3075534	-0.5052986	0.0	-4.125	-47.75	22.1875	-2.406304	-0.1410439	-0.3835275
1276791227800	2.982856	10.228881	-2.1792557	1.0688543	0.0	-3.875	-48.5	19.4375	-2.3375127	-0.20174785	-0.28374296
1276791227840	7.8180795	11.34575	-3.336985	4.370229	0.0	-2.9375	-49.25	17.5	-1.8410032	-0.23761182	-0.6033564
1276791227880	10.651112	10.95076	0.61291564	5.4819403	0.0	-1.6875	-50.25	16.0	-2.047724	0.04010049	-0.77152765
1276791227920	5.284695	13.102775	-1.3756552	4.38853	0.0	-0.9375	-50.75	15.0	-2.0892622	-0.09706236	-0.38337067
1276791227960	2.9147544	14.7916975	-1.3756552	5.3321257	0.0	-0.6875	-50.5	16.5	-2.4900355	-0.09099516	-0.1945607
1276791228000	3.636633	19.15021	1.1441092	9.719349	0.0	-1.4375	-50.25	19.1875	-2.795233	0.058627725	-0.18766584
1276791228040	3.173541	15.4046135	0.5720546	5.931861	0.0	-2.6875	-48.75	22.6875	-2.8547995	0.03635545	-0.20316996
1276791228080	3.9090397	10.991621	-3.173541	2.2833328	0.0	-4.125	-46.75	27.3125	-2.457018	-0.26560533	-0.34168884
1276791228120	1.879608	7.504812	0.19068487	-2.0676913	0.0	-4.375	-44.5625	31.25	-2.9407446	0.024642095	-0.24540566
1276791228160	-0.0	4.099725	0.7627395	-5.6365767	0.0	-4.375	-41.5625	34.75	3.0372226	0.18394347	0.0
1276791228200	1.1168685	1.334794	-0.08172209	-8.06431	0.0	-3.875	-40.0625	37.9375	-2.582481	-0.04692085	-0.6967423
1276791228240	0.10896278	0.0	-0.6537767	-9.143855	0.0	-2.9375	-38.625	39.875	-1.665217	-1.4056476	-1.5707964
1276791228280	-1.1168685	-0.3405087	-0.42223078	-8.56503	0.0	-2.1875	-37.875	40.625	2.4464238	-0.34698537	1.8667223
1276791228310	0.6537767	1.6480621	-4.3312707	-5.126539	0.0	-0.6875	-38.875	39.875	-0.6354491	-1.1822566	-0.3776533
1276791228350	6.469665	9.152874	-11.876944	6.5241013	0.0	1.0625	-39.3125	38.1875	-1.7103202	-0.8143429	-0.6153053
1276791228380	4.7943625	17.883516	-13.1708765	12.915104	0.0	3.0625	-41.0625	36.1875	-2.0439045	-0.6183106	-0.26192924
1276791228420	0.50395286	7.6954966	-7.246025	0.7753868	0.0	4.5	-42.0625	35.6875	-1.2344571	-0.75425744	-0.06539335
1276791228460	-3.0237172	6.6331096	-8.117727	1.1038265	0.0	5.5	-42.3125	35.6875	1.0928612	-0.8390826	0.42770988
1276791228508	9.043911	18.115063	3.8681788	10.806709	0.0	6.0	-42.0625	36.4375	-2.6232147	0.18877314	-0.46304592
1276791228560	-1.7978859	4.3312707	-1.3075534	-4.9381804	0.0	5.25	-41.3125	37.1875	2.7279236	-0.27191424	0.39345065
1276791228590	4.7126403	11.073342	-0.3405087	2.2326126	0.0	4.0	-42.0625	36.1875	-2.6206894	-0.028286956	-0.40236542
1276791228620	9.888372	12.762266	1.334794	6.393257	0.0	2.5625	-43.3125	35.25	-2.4949307	0.08248868	-0.6591934
1276791228660	5.325556	8.240311	-1.56634	0.12902737	0.0	0.5625	-44.8125	33.0	-2.3931868	-0.15830845	-0.57375634
1276791228700	0.42223078	5.938472	-1.2258313	-3.7282963	0.0	-0.9375	-47.25	30.0625	-3.0209396	-0.20306428	-0.07098146
1276791228740	2.4925237	10.119919	-1.1849703	0.68284893	0.0	-1.9375	-48.75	27.3125	-2.7189193	-0.11320895	-0.24149214
1276791228780	3.445948	8.281172	-1.4165162	-0.72596264	0.0	-2.4375	-50.0	23.625	-2.3267593	-0.15663186	-0.39432386
1276791228810	3.759216	5.2165933	-0.9942854	-3.3002567	0.0	-2.4375	-51.25	20.9375	-2.038075	-0.1534178	-0.62443566
1276791228850	6.4015636	7.205164	-0.6946377	-0.14347649	0.0	-2.1875	-51.75	18.75	-2.0208597	-0.071947105	-0.72640765
1276791228890	9.534244	9.507003	-3.8681788	4.202194	0.0	-0.9375	-52.0	17.25	-1.7421522	-0.27975905	-0.78682876
1276791228930	9.425281	7.6273947	-2.3018389	2.5348053	0.0	0.5625	-52.5	16.25	-1.8065041	-0.18761143	-0.8904414
1276791228970	7.1234417	6.701211	0.88532263	0.013402939	0.0	2.0625	-52.75	16.0	-2.017039	0.09027714	-0.81593055
1276791229010	3.0237172	17.692831	0.42223078	8.147665	0.0	3.0625	-53.0	17.0	-2.5610068	0.023519121	-0.16926542
1276791229050	-0.8036005	19.463476	2.4925237	9.832224	0.0	2.5625	-53.0	18.9375	-3.1269403	0.12726109	0.041264176
1276791229090	2.4516625	19.000385	-0.19068487	9.352203	0.0	0.3125	-51.75	22.875	-2.840996	-0.009952997	-0.12832321
1276791229130	6.0882955	12.980191	-1.4165162	4.6002655	0.0	-2.6875	-50.25	26.875	-2.435265	-0.09848106	-0.4385785
1276791229170	1.4165162	7.9679036	-0.3405087	-1.7066536	0.0	-5.125	-47.75	31.0625	-3.0279615	-0.042050518	-0.17593962
1276791229210	-0.9125633	2.7921712	2.3699405	-6.0323143	0.0	-6.375	-45.5625	35.25	2.7796283	0.678864	0.31588554
1276791229250	-1.1441092	-1.6889231	1.1168685	-7.480958	0.0	-5.625	-43.8125	37.6875	2.1876361	0.5009176	2.5461829
1276791229290	-1.334794	-0.84446156	-0.42223078	-8.171698	0.0	-3.875	-42.3125	39.1875	2.4941363	-0.26121306	2.13488
1276791229330	1.8387469	5.175732	-8.390134	0.22148705	0.0	-1.6875	-42.3125	39.4375	-0.7992763	-0.99115527	-0.34135586
1276791229370	6.851035	16.3989	-12.176591	11.737024	0.0	0.8125	-43.3125	37.6875	-2.032419	-0.60068166	-0.39573437
1276791229410	1.4573772	7.3141265	-5.9793324	-0.24773788	0.0	2.8125	-44.5625	36.9375	-1.7286395	-0.6758034	-0.19667923
1276791229450	-0.46309182	7.9270425	-4.440233	-0.708951	0.0	4.25	-45.3125	36.4375	-2.9765031	-0.50986695	0.058352917
1276791229490	11.264028	17.24336	1.0760075	10.817841	0.0	5.0	-46.0625	35.9375	-2.4803832	0.052195046	-0.5786485
1276791229533	-0.3405087	3.173541	1.4573772	-6.29791	0.0	4.0	-45.8125	36.1875	3.1240942	0.42833441	0.106887214
1276791229570	0.8036005	9.084772	0.040861044	-0.6863146	0.0	2.3125	-46.5	34.5	-2.9592168	0.004480228	-0.08822614
1276791229610	7.5865335	13.143636	0.88532263	5.3951406	0.0	0.8125	-48.25	32.0	-2.515886	0.058271017	-0.5234876
1276791229650	2.6832085	7.273266	-0.9942854	-1.9907303	0.0	-1.1875	-49.75	29.0625	-2.5273635	-0.12755847	-0.35342422
1276791229690	2.4516625	7.164303	-1.4982382	-2.0876732	0.0	-1.6875	-51.25	25.875	-2.3843262	-0.1953379	-0.32971397
1276791229730	3.5957718	8.894087	-0.6537767	-0.19094563	0.0	-1.9375	-52.25	22.875	-2.4015474	-0.068043	-0.38419738
1276791229770	3.568531	6.4424243	-1.334794	-2.321938	0.0	-2.1875	-53.0	20.4375	-2.0266416	-0.17929514	-0.50584114
1276791229810	7.43671	6.851035	-1.525479	0.41921997	0.0	-1.1875	-53.6875	18.0	-1.8773017	-0.14973733	-0.8263666
1276791229850	8.689782	9.084772	-3.759216	3.3149767	0.0	-0.1875	-54.4375	15.5	-1.6650138	-0.29056135	-0.7631796
1276791229890	8.499097	10.079058	-2.070293	3.5390673	0.0	1.3125	-54.6875	14.3125	-1.7822989	-0.15575692	-0.70055825
1276791229931	6.8237944	11.75436	1.7978859	3.9032564	0.0	2.3125	-54.9375	13.5625	-2.154159	0.13151652	-0.52598256
1276791229970	-1.1849703	15.636159	-0.6946377	5.889724	0.0	2.5625	-54.6875	14.3125	3.0095491	-0.044269122	0.0756394
1276791230010	-0.23154591	19.000385	1.607201	9.262995	0.0	1.8125	-54.1875	17.25	-3.0886908	0.084380694	0.012185777
1276791230050	3.718355	17.583868	0.84446156	8.185896	0.0	-0.9375	-53.25	21.4375	-2.7412968	0.046951216	-0.20839393
1276791230090	4.3312707	10.269742	-1.7570249	1.4767294	0.0	-3.875	-51.75	25.625	-2.3887367	-0.15635425	-0.39911523
1276791230130	2.7240696	5.434519	-0.42223078	-3.7129788	0.0	-6.375	-49.75	30.3125	-2.5898416	-0.069345616	-0.4646496
1276791230170	-0.84446156	3.5276701	0.6946377	-6.1134005	0.0	-8.375	-47.5	33.5	2.705657	0.18921	0.23496078
1276791230210	-1.7297841	0.23154591	0.14982383	-8.055018	0.0	-8.125	-45.8125	35.25	2.215505	0.08563851	1.4377291
1276791230250	-0.7627395	-0.29964766	-0.84446156	-8.629928	0.0	-6.875	-44.5625	36.9375	2.3938031	-0.80040574	1.94513
1276791230290	1.3756552	3.1463003	-5.202973	-3.5726657	0.0	-5.125	-44.8125	36.4375	-0.6946343	-0.98743224	-0.41218334
1276791230330	9.847511	16.780268	-13.865514	14.084841	0.0	-2.9375	-46.0625	35.4375	-1.8042153	-0.61916286	-0.5306947
1276791230370	-0.27240697	9.765789	-7.7363577	2.6551342	0.0	-1.1875	-46.75	35.0	1.0134902	-0.66977113	0.027886773
1276791230410	4.1814466	16.88923	-4.140586	8.078402	0.0	0.3125	-47.0	35.25	-2.6872587	-0.23363057	-0.24270034
1276791230450	2.2201166	4.671779	3.759216	-3.4124227	0.0	0.3125	-46.3125	35.9375	-2.7817352	0.62847	-0.4436267
1276791230490	4.5219555	9.302697	2.6832085	0.8792219	0.0	-0.1875	-45.5625	36.4375	-2.7327054	0.25381514	-0.45245847
1276791230530	6.2789803	13.402422	-1.0760075	5.0327673	0.0	-0.9375	-45.8125	35.6875	-2.62284	-0.07257377	-0.43812823
1276791230570	1.2258313	7.9270425	-0.040861044	-1.7852831	0.0	-2.4375	-47.25	32.75	-2.9946425	-0.0050940467	-0.1534239
1276791230600	2.4925237	7.7363577	-0.38136974	-1.6697378	0.0	-3.4375	-49.25	29.5625	-2.7324297	-0.046886273	-0.311682
1276791230640	5.243834	8.812365	-0.08172209	0.44821358	0.0	-4.375	-51.25	26.125	-2.4247031	-0.00796919	-0.53677493
1276791230680	4.372132	7.3549876	-0.61291564	-1.2283611	0.0	-5.625	-52.75	22.6875	-2.2852635	-0.07151057	-0.53632456
1276791230720	3.8681788	6.3198414	-1.3075534	-2.282496	0.0	-5.875	-53.6875	19.9375	-2.0216897	-0.17466758	-0.54924655
1276791230760	6.701211	8.076866	-1.879608	0.8551941	0.0	-5.625	-54.4375	17.0	-1.8497114	-0.17721914	-0.6925781
1276791230800	8.689782	9.343558	-3.445948	3.4103441	0.0	-4.875	-54.6875	14.5625	-1.6523566	-0.26376894	-0.7491603
1276791230840	6.851035	10.119919	-2.6014864	2.688036	0.0	-3.625	-55.4375	13.0625	-1.6700165	-0.20974186	-0.59511226
1276791230880	8.471856	10.882658	1.2666923	4.0428658	0.0	-2.4375	-55.4375	12.5625	-2.0488372	0.091589116	-0.6614762
1276791230920	-0.61291564	15.173067	-0.53119355	5.3880796	0.0	-1.6875	-54.6875	14.75	2.8470292	-0.03496619	0.04037302
1276791230960	-0.53119355	18.768839	2.3699405	9.118679	0.0	-2.6875	-53.9375	17.75	2.970313	0.12555547	0.028294332
1276791231000	5.7477865	16.970953	-0.46309182	8.1172085	0.0	-4.375	-51.75	22.1875	-2.6036294	-0.025839489	-0.3265582
1276791231040	4.140586	9.466142	-0.6537767	0.546113	0.0	-7.125	-49.5	27.3125	-2.639012	-0.063192025	-0.41233498
1276791231080	1.4982382	5.7886477	0.38136974	-3.815106	0.0	-9.375	-47.5	31.25	-3.0592997	0.06369439	-0.25326574
1276791231120	-0.6946377	3.336985	1.4165162	-6.115511	0.0	-9.625	-45.0625	35.25	2.776839	0.39386597	0.2052324
1276791231160	-1.4165162	-0.6537767	1.0351465	-7.93436	0.0	-8.875	-43.5625	38.1875	2.0199463	0.58581316	2.003204
1276791231200	-0.38136974	0.61291564	-1.879608	-7.793187	0.0	-7.375	-43.0625	38.9375	1.0527852	-1.2041084	0.5565994
1276791231240	2.4108016	4.3312707	-6.973618	-1.250762	0.0	-5.375	-43.8125	38.9375	-0.99541646	-0.9528441	-0.50789917
1276791231270	8.499097	16.657684	-12.721405	12.8107605	0.0	-3.625	-44.8125	38.1875	-2.0168903	-0.5973589	-0.47179076
1276791231300	2.7921712	13.184497	-7.8861814	5.808056	0.0	-2.1875	-45.8125	36.9375	-2.4575446	-0.52943796	-0.20869337
1276791231330	-2.5606253	8.19945	-7.5456724	1.6268511	0.0	-0.4375	-46.0625	36.6875	1.4744041	-0.7207677	0.3026957
1276791231360	4.7126403	16.88923	-3.9499009	8.167131	0.0	1.0625	-45.8125	37.4375	-2.6811538	-0.22156745	-0.2721111
1276791231390	4.140586	7.7363577	4.3312707	-0.02117157	0.0	1.3125	-44.8125	38.1875	-2.732599	0.4585209	-0.49141824
1276791231420	2.6832085	4.3312707	2.5333846	-4.116523	0.0	0.8125	-44.3125	38.1875	-2.6996078	0.46142504	-0.5546322
1276791231450	6.973618	12.4489975	0.38136974	4.4676037	0.0	0.0625	-44.3125	37.9375	-2.633148	0.026720494	-0.5106216
1276791231491	4.5628166	11.182305	-0.29964766	2.2744522	0.0	-1.6875	-44.5625	36.1875	-2.7315571	-0.02480555	-0.38741726
1276791231530	-0.08172209	8.430995	-0.88532263	-1.328906	0.0	-2.9375	-46.5	33.5	3.0231204	-0.10461978	0.00969275
1276791231570	2.3699405	8.19945	-0.23154591	-1.2684307	0.0	-3.4375	-48.25	30.3125	-2.806797	-0.027122082	-0.28136846
1276791231610	5.012288	8.349273	-0.040861044	-0.068320274	0.0	-4.375	-49.5	27.0625	-2.4617238	-0.0041959104	-0.5406594
1276791231650	4.5219555	7.9270425	-1.56634	-0.5470867	0.0	-4.875	-50.75	23.875	-2.2137308	-0.16997647	-0.5184056
1276791231690	4.1814466	5.7477865	-1.3075534	-2.5795317	0.0	-5.125	-52.0	21.4375	-2.025547	-0.18192506	-0.6289372
1276791231730	6.851035	8.076866	-2.1111538	0.99285984	0.0	-4.625	-53.25	18.9375	-1.8850383	-0.19675305	-0.7034652
1276791231770	7.9679036	9.466142	-2.8738933	2.895893	0.0	-3.4375	-54.4375	16.75	-1.7654343	-0.22822149	-0.6996713
1276791231810	7.43671	9.888372	-1.9885708	2.7248688	0.0	-2.4375	-55.4375	15.0	-1.8068599	-0.15935917	-0.6448221
1276791231850	7.8589406	11.876944	2.152015	4.5966797	0.0	-0.9375	-55.6875	14.75	-2.1956527	0.1499725	-0.5845543
1276791231890	-1.1849703	14.246883	-0.08172209	4.489662	0.0	-0.9375	-55.1875	16.0	2.803861	-0.0057163364	0.082982995
1276791231920	-2.3699405	19.000385	1.607201	9.4083	0.0	-1.9375	-54.1875	18.75	2.78495	0.08374109	0.1240903
1276791231950	3.0237172	17.502148	1.2258313	7.9970207	0.0	-3.625	-52.75	22.6875	-2.9384506	0.06890724	-0.17107397
1276791231990	6.5513873	14.09706	-0.6537767	5.752117	0.0	-6.375	-50.75	26.625	-2.575401	-0.0420322	-0.43503916
1276791232030	3.336985	8.076866	-0.9942854	-1.0112066	0.0	-8.375	-49.0	30.5625	-2.7263973	-0.11328768	-0.39179388
1276791232070	1.1168685	5.284695	0.84446156	-4.3396115	0.0	-8.875	-47.25	34.5	-3.1154165	0.15508507	-0.20827542
1276791232110	-1.1849703	2.7921712	0.8036005	-6.6687927	0.0	-8.125	-45.5625	37.4375	2.6401742	0.2589839	0.40135407
1276791232150	-0.7218784	-0.14982383	-0.3405087	-8.994553	0.0	-6.875	-44.3125	39.1875	2.3583794	-0.4326692	1.7754382
1276791232190	0.38136974	0.95342433	-2.982856	-6.651988	0.0	-5.375	-43.5625	39.875	-0.39085796	-1.2392467	-0.38050637
1276791232230	4.399372	8.812365	-9.112013	3.6112862	0.0	-4.125	-44.0625	38.6875	-1.5942883	-0.7465249	-0.46302918
1276791232270	6.701211	17.079916	-10.61025	11.387857	0.0	-2.6875	-45.3125	37.1875	-2.2164729	-0.524307	-0.37388945
1276791232300	-1.920469	5.5162406	-7.1234417	-0.5946722	0.0	-1.6875	-45.5625	36.4375	1.0394572	-0.8839985	0.33502412
1276791232340	4.944186	16.317177	-6.0882955	8.297564	0.0	-0.1875	-45.5625	36.4375	-2.555558	-0.3429764	-0.2942114
1276791232380	3.5957718	5.597963	4.2086873	-1.9339242	0.0	0.0625	-44.5625	37.1875	-2.7029777	0.5640235	-0.57096845
1276791232420	1.3756552	6.2108784	0.84446156	-3.389443	0.0	-0.6875	-43.8125	37.6875	-2.9396946	0.1319761	-0.21797226
1276791232450	5.134871	14.750836	-1.1849703	5.8572645	0.0	-0.9375	-44.3125	36.9375	-2.7553165	-0.07572203	-0.3349875
1276791232490	5.407278	10.528529	0.10896278	2.0297537	0.0	-2.9375	-45.5625	35.6875	-2.6742558	0.009205864	-0.4744552
1276791232530	3.173541	6.238119	-1.1168685	-2.7191339	0.0	-4.375	-47.75	33.0	-2.5347111	-0.15824208	-0.47061008
1276791232570	3.214402	8.349273	-0.88532263	-0.8162918	0.0	-5.375	-49.75	29.5625	-2.6608968	-0.098634526	-0.36750174
1276791232610	2.3426998	9.534244	-1.0760075	0.06998062	0.0	-6.125	-51.25	26.125	-2.8427463	-0.10916146	-0.24094099
1276791232650	2.9556155	6.6331096	-1.4982382	-2.3918996	0.0	-6.125	-53.0	22.6875	-2.2123373	-0.20346272	-0.41917652
1276791232690	4.1814466	6.0474343	-1.0351465	-2.3818617	0.0	-5.375	-54.1875	19.9375	-2.031537	-0.13987328	-0.60495883
1276791232730	9.343558	8.62168	-2.4108016	3.1334972	0.0	-4.375	-54.6875	17.75	-1.8315092	-0.18739897	-0.8255585
1276791232770	8.894087	9.084772	-3.445948	3.3657608	0.0	-3.4375	-55.6875	16.5	-1.7038778	-0.2646831	-0.7747925
1276791232810	10.147159	10.651112	0.14982383	4.9050274	0.0	-2.1875	-55.6875	16.0	-1.9903177	0.010184183	-0.76117235
1276791232850	-3.0645783	16.739407	-0.27240697	7.21315	0.0	-1.4375	-55.6875	17.0	2.5244577	-0.016005982	0.18107049
1276791232890	-0.9942854	18.700737	1.5390993	8.983641	0.0	-1.6875	-55.1875	19.9375	2.9544823	0.08200116	0.053118233
1276791232930	6.0201936	15.894946	-0.53119355	7.198473	0.0	-3.4375	-53.6875	24.125	-2.5294845	-0.03124235	-0.36205333
1276791232970	6.2108784	11.141444	-0.6946377	2.967907	0.0	-5.375	-51.5	29.0625	-2.4847221	-0.054403488	-0.50855047
1276791233010	0.95342433	6.5922484	-0.53119355	-3.1246648	0.0	-7.875	-48.5	33.25	3.112473	-0.07958033	-0.14363216
1276791233050	-0.46309182	4.671779	0.88532263	-5.0292273	0.0	-8.375	-45.8125	36.9375	2.860965	0.18639123	0.0988026
1276791233090	-0.3405087	0.95342433	0.38136974	-8.724796	0.0	-7.625	-43.5625	39.1875	2.731575	0.36025745	0.34302393
1276791233130	-0.29964766	0.14982383	-0.95342433	-8.79608	0.0	-6.375	-42.3125	40.375	1.593194	-1.2328908	1.1071488
1276791233170	1.5390993	4.0588636	-6.2108784	-2.2291698	0.0	-4.875	-42.8125	40.375	-0.76341754	-0.9607989	-0.3624431
1276791233210	8.349273	16.208214	-11.917805	11.975237	0.0	-4.125	-44.0625	38.9375	-2.1209598	-0.578947	-0.47567508
1276791233250	2.4108016	8.117727	-7.082581	1.232934	0.0	-2.9375	-45.3125	37.9375	-1.6397463	-0.6965332	-0.28868374
1276791233290	-2.4516625	1.2258313	-7.246025	-2.0595093	0.0	-1.6875	-46.5	37.1875	1.4560332	-1.2091513	1.1071488
1276791233330	9.425281	18.087822	2.4925237	10.741291	0.0	-0.9375	-46.5	37.1875	-2.6842003	0.121602304	-0.48037246
1276791233370	2.6832085	7.164303	0.46309182	-2.142363	0.0	-0.9375	-46.3125	37.6875	-2.7769933	0.06045886	-0.3583539
1276791233410	-2.0294318	5.829509	0.84446156	-3.5764909	0.0	-2.4375	-46.5	36.6875	2.7466028	0.13596265	0.33500868
1276791233450	4.372132	11.876944	2.4925237	3.092575	0.0	-3.875	-47.25	34.75	-2.8542058	0.19445363	-0.35272464
1276791233510	2.4108016	7.7363577	-1.1441092	-1.6229973	0.0	-5.375	-49.0	31.5	-2.7725873	-0.1402637	-0.3020827
1276791233550	3.173541	7.6273947	-1.0351465	-1.4807844	0.0	-6.125	-50.75	27.8125	-2.5691772	-0.124651544	-0.39428383
1276791233590	3.759216	7.7772183	0.46309182	-1.1561422	0.0	-5.875	-52.75	24.625	-2.5667162	0.053559087	-0.45024928
1276791233620	3.8681788	6.2108784	-1.607201	-2.315261	0.0	-5.625	-53.6875	21.4375	-1.9901192	-0.2162206	-0.5570208
1276791233660	8.158588	6.742072	-1.7297841	0.91763306	0.0	-4.625	-53.9375	19.1875	-1.8911959	-0.16200371	-0.8801774
1276791233700	8.921328	8.921328	-3.336985	3.2438536	0.0	-4.125	-54.9375	17.5	-1.7427368	-0.25856942	-0.7853982
1276791233740	7.3549876	9.847511	-1.4165162	2.565732	0.0	-3.1875	-54.9375	16.0	-1.908197	-0.11474179	-0.64150643
1276791233780	6.6331096	12.026767	1.5390993	4.0139894	0.0	-2.4375	-55.4375	15.5	-2.2752326	0.11159386	-0.5040163
1276791233820	-1.0760075	17.62473	0.19068487	7.851923	0.0	-2.1875	-55.1875	16.75	2.8320544	0.01079864	0.060975328
1276791233860	0.84446156	18.959524	1.334794	9.218554	0.0	-3.1875	-53.9375	19.9375	3.108481	0.07021694	-0.04451081
1276791233900	4.7535014	16.630445	0.19068487	7.49086	0.0	-5.125	-52.75	24.625	-2.7786512	0.011024057	-0.27840784
1276791233940	4.671779	10.18802	-1.3756552	1.4855461	0.0	-7.375	-50.75	29.3125	-2.582603	-0.12212688	-0.42994642
1276791233970	2.7649305	6.3198414	0.10896278	-2.9075847	0.0	-9.625	-48.5	33.75	-2.842996	0.015794504	-0.41241044
1276791234010	-1.0760075	3.5957718	2.0294318	-5.539806	0.0	-9.375	-46.5	36.6875	2.7375357	0.49567816	0.29076165
1276791234050	-2.1792557	0.7627395	1.2666923	-7.1731286	0.0	-8.375	-44.8125	38.4375	2.258484	0.5017813	1.2341216
1276791234090	-0.3405087	-0.08172209	-1.1441092	-8.610151	0.0	-6.375	-44.0625	39.875	2.156425	-1.2737795	1.8063413
1276791234130	0.92618364	3.1463003	-5.7886477	-3.1534204	0.0	-3.875	-44.5625	39.4375	-0.44266906	-1.0553054	-0.2862858
1276791234170	8.430995	17.883516	-13.143636	13.934811	0.0	-2.1875	-45.3125	38.4375	-2.040459	-0.5866993	-0.44053924
1276791234210	-1.4982382	7.9679036	-7.43671	1.1950254	0.0	-0.6875	-45.5625	37.9375	1.3309172	-0.74226874	0.18586394
1276791234250	6.782933	15.213928	-1.7570249	6.943243	0.0	0.8125	-45.3125	38.1875	-2.6234949	-0.10509101	-0.41938666
1276791234290	3.0237172	5.366417	3.5276701	-2.7083578	0.0	1.0625	-45.0625	38.9375	-2.7316961	0.52010876	-0.5131122
1276791234330	6.782933	12.367276	1.6480621	4.394541	0.0	0.8125	-44.8125	39.1875	-2.6679895	0.11631306	-0.5016587
1276791234370	3.2961242	10.228881	-1.1441092	1.0009127	0.0	0.5625	-45.8125	37.9375	-2.726815	-0.10606064	-0.31173086
1276791234410	0.23154591	8.158588	-0.46309182	-1.63165	0.0	-1.1875	-47.25	35.0	-3.1368377	-0.056677654	-0.028373018
1276791234450	3.486809	8.158588	0.10896278	-0.93352985	0.0	-1.9375	-49.0	32.25	-2.6521993	0.0122804055	-0.4038839
1276791234490	3.9090397	8.19945	-0.9125633	-0.6773386	0.0	-3.625	-50.75	28.5625	-2.476707	-0.10012693	-0.44487044
1276791234530	3.1054392	7.43671	-1.525479	-1.6044865	0.0	-5.125	-52.0	25.125	-2.3590205	-0.1870742	-0.39557114
1276791234570	2.9147544	6.851035	-0.9942854	-2.2952538	0.0	-5.375	-53.25	22.1875	-2.334571	-0.13275988	-0.40224946
1276791234600	5.366417	7.6273947	-1.56634	-0.34995937	0.0	-4.625	-53.9375	18.75	-1.9462932	-0.16639984	-0.6131188
1276791234640	8.771504	8.771504	-2.5333846	2.8541803	0.0	-3.1875	-54.4375	17.0	-1.8012592	-0.20145614	-0.7853982
1276791234670	9.112013	9.043911	-2.9556155	3.367444	0.0	-1.1875	-55.1875	16.25	-1.7495131	-0.22627655	-0.7891491
1276791234710	9.847511	10.460427	-0.46309182	4.567231	0.0	0.3125	-55.4375	16.0	-1.9378631	-0.032223165	-0.75522625
1276791234750	2.6423476	13.824653	-0.7627395	4.288909	0.0	0.5625	-55.1875	17.25	-2.4896326	-0.054138485	-0.18885528
1276791234790	-1.607201	18.891422	1.0351465	9.181253	0.0	0.0625	-54.9375	19.9375	2.9435134	0.054543138	0.08487133
1276791234830	3.7864566	16.208214	-1.0760075	6.872717	0.0	-1.4375	-53.0	23.875	-2.6616807	-0.06455612	-0.22949755
1276791234870	4.3312707	12.340035	-0.6946377	3.2898722	0.0	-4.375	-50.75	28.0625	-2.678688	-0.05306476	-0.3375595
1276791234910	2.070293	6.1291566	-1.0351465	-3.254994	0.0	-6.875	-48.75	32.5	-2.7857046	-0.15866253	-0.32574522
1276791234950	0.95342433	5.2165933	0.3405087	-4.4927244	0.0	-7.375	-46.3125	36.1875	-3.1142032	0.06412249	-0.1807724
1276791234990	-1.6889231	2.3426998	0.50395286	-6.874983	0.0	-7.625	-44.3125	38.6875	2.5061362	0.1727578	0.62463546
1276791235030	-1.1441092	0.88532263	-1.3075534	-7.856656	0.0	-6.375	-43.0625	40.125	1.9579589	-0.7349394	0.91223043
1276791235070	1.334794	3.636633	-5.6252036	-2.9765925	0.0	-5.125	-42.8125	39.875	-0.6943063	-0.96772105	-0.3517749
1276791235110	6.1291566	10.419566	-10.923519	6.486206	0.0	-3.625	-43.3125	38.6875	-1.699758	-0.734813	-0.5317241
1276791235150	0.9942854	13.33432	-8.390134	5.9790096	0.0	-1.6875	-45.0625	37.1875	-2.9241207	-0.5603746	-0.07442815
1276791235190	-2.7513103	11.032481	-7.9679036	4.0776157	0.0	0.0625	-46.0625	36.6875	1.9476638	-0.611236	0.24439764
1276791235230	7.504812	11.536434	3.445948	4.3808823	0.0	2.0625	-45.5625	37.6875	-2.6135795	0.24533948	-0.57674867
1276791235270	4.6036777	9.00305	2.3699405	0.579175	0.0	2.3125	-44.8125	38.4375	-2.6898153	0.23021814	-0.47268355
1276791235310	4.372132	11.958665	-0.88532263	2.956931	0.0	1.0625	-45.5625	37.9375	-2.6966524	-0.06941892	-0.35050747
1276791235350	1.7978859	8.281172	1.1168685	-1.2592764	0.0	-0.1875	-46.5	35.6875	-2.911444	0.13104275	-0.21378753
1276791235390	0.8036005	9.152874	0.23154591	-0.6156502	0.0	-2.4375	-49.0	31.75	-3.0853236	0.025195343	-0.08757306
1276791235430	3.445948	9.656827	-0.46309182	0.45703983	0.0	-4.375	-51.75	27.5625	-2.6579714	-0.04513475	-0.34275582
1276791235470	4.2086873	7.8180795	-0.19068487	-0.9256716	0.0	-5.625	-52.75	23.875	-2.4205844	-0.021472806	-0.49383745
1276791235510	5.7477865	6.0201936	-1.0351465	-1.4190817	0.0	-6.375	-54.1875	20.9375	-2.009588	-0.123729825	-0.7622542
1276791235550	6.510526	7.1234417	-1.8387469	0.01736927	0.0	-6.375	-54.9375	18.0	-1.850294	-0.1882789	-0.7404734
1276791235590	8.771504	8.921328	-3.214402	3.1108484	0.0	-5.125	-54.6875	15.5	-1.697385	-0.25148335	-0.77693033
1276791235630	6.701211	10.95076	-3.173541	3.4182034	0.0	-4.125	-54.9375	13.8125	-1.6361865	-0.24233285	-0.5491529
1276791235670	7.7363577	11.917805	1.5390993	4.4851	0.0	-3.4375	-54.9375	13.3125	-2.168458	0.1079007	-0.5757724
1276791235700	-1.1441092	16.821129	0.19068487	7.0544205	0.0	-2.6875	-54.6875	15.25	2.7585478	0.011309421	0.0679116
1276791235740	-0.8036005	19.231932	1.2258313	9.481056	0.0	-3.875	-54.4375	18.9375	2.8732586	0.06359792	0.041760407
1276791235780	6.2789803	16.589584	0.42223078	7.936466	0.0	-5.375	-53.25	24.375	-2.6464772	0.023799123	-0.36182624
1276791235820	6.2108784	10.800936	-0.38136974	2.6585274	0.0	-7.375	-51.0	29.5625	-2.546051	-0.030599587	-0.521858
1276791235860	1.56634	5.938472	0.6537767	-3.6303816	0.0	-9.125	-48.25	34.25	-3.0530841	0.106051706	-0.2578881
1276791235900	-0.9125633	4.5219555	1.4165162	-4.9809513	0.0	-8.875	-45.8125	38.1875	2.7949507	0.29792368	0.19913268
1276791235940	-0.46309182	-0.7218784	0.3405087	-8.883878	0.0	-7.875	-44.0625	39.625	2.4695668	0.37793955	2.5712094
1276791235980	-0.53119355	-0.6537767	-0.08172209	-8.960323	0.0	-5.875	-43.5625	40.625	2.662063	-0.0967116	2.4592762
1276791236010	-0.10896278	4.0180025	-5.175732	-3.2534509	0.0	-4.875	-44.0625	39.875	0.53553414	-0.91048664	0.027112002
1276791236040	4.099725	13.988097	-10.882658	8.384195	0.0	-3.625	-45.3125	38.1875	-1.9761596	-0.6413143	-0.28510228
1276791236080	5.434519	12.9529505	-9.112013	6.936758	0.0	-2.1875	-46.3125	37.1875	-2.0113525	-0.5754531	-0.39725253
1276791236120	-0.50395286	2.152015	-8.267551	-1.2487564	0.0	-0.9375	-46.5	37.1875	0.32719976	-1.3095667	0.23003207
1276791236160	11.032481	17.692831	4.7535014	11.579039	0.0	-0.1875	-45.8125	37.9375	-2.6561866	0.22414711	-0.5575607
1276791236200	0.040861044	4.9850473	0.19068487	-4.81779	0.0	-0.9375	-45.3125	38.4375	3.1274917	0.038231444	-0.008196537
1276791236240	0.50395286	9.615966	1.7978859	-0.011081696	0.0	-2.6875	-45.3125	37.6875	3.1347098	0.18458717	-0.052360024
1276791236270	2.9556155	11.985906	0.61291564	2.5534983	0.0	-4.375	-46.5	35.4375	-2.9608793	0.04960839	-0.24176756
1276791236310	3.990762	10.269742	0.84446156	1.2435484	0.0	-5.125	-48.5	32.25	-2.798038	0.07649507	-0.37063527
1276791236340	3.6774938	7.9679036	-0.08172209	-1.030653	0.0	-5.875	-50.25	28.3125	-2.6278358	-0.009312135	-0.43240774
1276791236370	3.5276701	8.240311	-0.7218784	-0.81397057	0.0	-6.125	-51.75	25.375	-2.5359576	-0.08036047	-0.40449274
1276791236400	2.7649305	7.6954966	-0.08172209	-1.6291084	0.0	-6.625	-53.0	22.1875	-2.6469352	-0.009993645	-0.34492868
1276791236430	2.982856	6.851035	-0.61291564	-2.309332	0.0	-6.625	-53.9375	19.6875	-2.3531218	-0.08184265	-0.41063607
1276791236460	4.3312707	6.5922484	-1.8387469	-1.7073517	0.0	-5.875	-55.1875	18.5	-1.8329331	-0.2290223	-0.58129776
1276791236501	8.240311	7.6273947	-1.7978859	1.5649042	0.0	-4.625	-55.6875	17.0	-1.8365542	-0.15877	-0.8240056
1276791236540	10.378705	8.730643	-2.5606253	3.9954681	0.0	-3.4375	-55.4375	16.25	-1.7876483	-0.18660519	-0.871429
1276791236580	10.18802	10.310603	-0.29964766	4.6914206	0.0	-2.4375	-55.6875	15.75	-1.9496824	-0.020669578	-0.7794182
1276791236620	2.2201166	14.246883	0.88532263	4.639333	0.0	-2.1875	-55.1875	16.25	-2.8286607	0.061323468	-0.15458843
1276791236660	-4.0588636	19.15021	-0.42223078	9.773523	0.0	-2.6875	-54.9375	18.5	2.4619167	-0.021565871	0.20885794
1276791236700	1.7978859	17.474907	1.2258313	7.803217	0.0	-4.125	-53.9375	21.9375	-3.086409	0.06966682	-0.10252313
1276791236740	5.325556	14.437569	0.19068487	5.5829983	0.0	-6.375	-52.0	26.375	-2.7229767	0.012390779	-0.35338378
1276791236780	2.5333846	9.152874	-1.525479	-0.18790627	0.0	-8.625	-49.5	30.8125	-2.9274273	-0.15926689	-0.2700256
1276791236810	1.7297841	6.0201936	-0.040861044	-3.5427413	0.0	-9.875	-46.5	35.25	-3.0459974	-0.0065232962	-0.27979308
1276791236850	-0.10896278	3.173541	0.8036005	-6.5311337	0.0	-10.125	-44.0625	38.4375	2.9037726	0.24786574	0.034321282
1276791236890	-1.0760075	-0.14982383	0.46309182	-8.625679	0.0	-9.125	-42.3125	41.125	2.2376785	0.4029436	1.7091473
1276791236930	-0.23154591	0.313268	-1.9885708	-7.780283	0.0	-7.625	-41.8125	42.125	0.9873874	-1.377351	0.6365082
1276791236970	2.6423476	5.9793324	-8.049625	0.5630598	0.0	-5.625	-42.3125	41.125	-1.1136374	-0.8887166	-0.41610885
1276791237010	7.273266	18.155924	-12.789507	13.562334	0.0	-3.4375	-43.3125	40.125	-2.270787	-0.57911754	-0.38102365
1276791237050	-3.1463003	3.405087	-5.434519	-2.6632743	0.0	-1.6875	-44.3125	38.9375	1.6149021	-0.8645101	0.7459177
1276791237090	0.040861044	10.56939	-4.0588636	1.5153666	0.0	0.3125	-44.0625	38.9375	-3.1181054	-0.36665308	-0.00386596
1276791237120	10.61025	17.161638	3.255263	10.630962	0.0	1.0625	-43.5625	39.625	-2.6542704	0.15995933	-0.55373347
1276791237160	2.3699405	6.5513873	0.14982383	-2.8381681	0.0	0.8125	-43.5625	39.4375	-2.7726562	0.021501867	-0.34710073
1276791237200	0.61291564	8.390134	-0.27240697	-1.3897495	0.0	-0.4375	-44.3125	38.4375	-3.066243	-0.032369934	-0.072922416
1276791237240	4.5628166	10.528529	0.84446156	1.6991024	0.0	-2.4375	-46.0625	36.4375	-2.7551033	0.07346079	-0.4089441
1276791237280	2.2609777	8.390134	0.040861044	-1.1171141	0.0	-4.375	-49.0	33.25	-2.8922317	0.004702345	-0.2632276
1276791237320	3.5957718	7.5456724	-0.7218784	-1.4169035	0.0	-6.625	-50.5	30.0625	-2.5934005	-0.086149454	-0.44469947
1276791237360	3.568531	9.084772	-0.7218784	-0.01948452	0.0	-7.625	-51.75	26.875	-2.667535	-0.073824696	-0.37428722
1276791237400	4.0588636	7.3958488	-1.4165162	-1.2521505	0.0	-8.125	-53.25	23.125	-2.233267	-0.16635346	-0.50192374
1276791237440	6.851035	6.8237944	-1.9477097	0.05714321	0.0	-7.625	-53.6875	20.4375	-1.9090264	-0.19876675	-0.7873902
1276791237470	8.962189	8.62168	-2.3699405	2.8531618	0.0	-5.875	-54.6875	18.25	-1.8475399	-0.18831289	-0.8047605
1276791237510	8.008764	10.18802	-2.7921712	3.4497547	0.0	-4.125	-55.1875	16.75	-1.7845281	-0.21221742	-0.66620535
1276791237550	9.275456	11.413852	1.1441092	4.9452686	0.0	-2.9375	-55.1875	16.75	-2.125778	0.077634595	-0.68240637
1276791237590	-0.46309182	14.859799	0.040861044	5.060419	0.0	-2.9375	-54.6875	17.75	2.8879807	0.0027484298	0.031153986
1276791237621	-1.7570249	19.082108	1.3756552	9.405491	0.0	-2.9375	-53.9375	20.1875	2.8242354	0.07166475	0.09181818
1276791237660	3.0645783	16.507862	1.1441092	7.0221977	0.0	-4.875	-53.0	23.875	-2.9654574	0.06803748	-0.18355396
1276791237700	4.8216033	14.7916975	0.42223078	5.7567835	0.0	-7.375	-51.25	28.0625	-2.8488724	0.027132995	-0.31510612
1276791237740	2.982856	7.014479	-1.4982382	-2.0384417	0.0	-8.625	-48.75	32.25	-2.6790326	-0.19408411	-0.4020762
1276791237780	1.3075534	5.284695	1.1168685	-4.249214	0.0	-9.875	-46.3125	36.4375	-3.1075966	0.20234628	-0.24255148
1276791237820	-1.2258313	2.5606253	0.9942854	-6.79865	0.0	-9.875	-44.3125	39.1875	2.619936	0.33688304	0.4464819
1276791237860	-1.4165162	-0.5720546	-0.08172209	-8.276799	0.0	-8.375	-42.5625	40.625	2.4264905	-0.05344378	1.9546139
1276791237900	-0.46309182	1.1849703	-3.214402	-6.34963	0.0	-7.125	-42.5625	41.375	0.85556936	-1.1939199	0.37255427
1276791237930	4.630918	10.841797	-9.275456	5.194152	0.0	-5.875	-43.8125	40.375	-1.9991482	-0.6666169	-0.40367818
1276791237960	9.997335	18.768839	-12.5579605	14.889875	0.0	-3.875	-44.5625	39.4375	-2.2100956	-0.5334314	-0.4894299
1276791238000	3.0237172	15.894946	-9.152874	8.782789	0.0	-2.4375	-45.5625	38.6875	-2.649277	-0.5148101	-0.18798524
1276791238040	7.082581	10.528529	1.879608	3.0208912	0.0	-1.4375	-45.3125	38.9375	-2.6418872	0.14705859	-0.5921705
1276791238080	-7.43671	1.4573772	2.070293	-1.950779	0.0	-1.6875	-44.5625	39.4375	2.3063107	0.26668438	1.3772781
1276791238121	11.876944	15.050485	3.173541	9.626574	0.0	-2.1875	-44.3125	39.1875	-2.6179109	0.16403963	-0.66808397
1276791238160	-0.0	4.7126403	-2.7921712	-4.32895	0.0	-3.1875	-45.8125	37.4375	2.7961202	-0.5348758	0.0
1276791238200	-1.920469	4.630918	-0.84446156	-4.7226834	0.0	-4.875	-48.25	33.5	2.4165237	-0.16687633	0.39311925
1276791238240	8.008764	12.176591	1.334794	4.8286276	0.0	-5.375	-50.5	29.8125	-2.5389383	0.09133079	-0.5817818
1276791238280	2.3018389	8.076866	-1.4573772	-1.2826738	0.0	-6.125	-52.75	25.875	-2.6635134	-0.171818	-0.27763137
1276791238320	2.8738933	7.3549876	-0.8036005	-1.8693409	0.0	-6.375	-53.6875	22.4375	-2.4675045	-0.1014172	-0.37249887
1276791238360	5.6252036	7.5865335	-1.3075534	-0.27207565	0.0	-5.375	-54.4375	20.1875	-2.020343	-0.13757163	-0.63802093
1276791238400	6.701211	9.302697	-3.718355	2.2462568	0.0	-4.375	-55.4375	18.0	-1.6557157	-0.3136186	-0.62425447
1276791238440	9.997335	9.697687	-1.607201	4.213869	0.0	-2.4375	-56.1875	15.5	-1.841292	-0.114884615	-0.80061144
1276791238480	10.310603	11.114203	1.56634	5.43433	0.0	-0.6875	-56.1875	15.0	-2.0417836	0.10295338	-0.7479078
1276791238520	-0.5720546	15.826844	0.313268	6.0336266	0.0	-0.1875	-56.1875	15.25	3.0068827	0.019777963	0.03612885
1276791238560	-3.636633	19.082108	0.7218784	9.632307	0.0	-0.6875	-55.4375	17.25	2.6204712	0.0371442	0.18831989
1276791238600	2.3426998	16.86199	2.0294318	7.337839	0.0	-2.9375	-53.9375	21.6875	-2.9812677	0.11865045	-0.13805005
1276791238640	3.445948	12.367276	0.23154591	3.033821	0.0	-5.875	-52.25	26.625	-2.846877	0.018033486	-0.27174187
1276791238680	2.1792557	6.2789803	-1.334794	-3.0275335	0.0	-8.125	-49.5	32.5	-2.7727544	-0.1981929	-0.33406362
1276791238720	1.607201	3.8681788	0.50395286	-5.587661	0.0	-9.125	-47.0	36.9375	-2.9181426	0.1197346	-0.3937906
