#timestamp	accel_x	accel_y	accel_z	accel_mag	temperature	mag_x	mag_y	mag_z	azimuth	pitch	roll
1276878657486	2.3699405	0.46309182	9.656827	0.14751339	0.0	-25.3125	-13.625	-38.6875	-2.682938	1.3257638	-1.3778255
1276878657525	2.3699405	0.46309182	9.507003	0.0022325516	0.0	-24.5	-12.875	-38.6875	-2.685371	1.322058	-1.3778255
1276878657555	2.3018389	0.46309182	9.656827	0.13152027	0.0	-24.25	-12.0625	-39.6875	-2.727772	1.3322843	-1.3722631
1276878657591	2.1792557	0.42223078	9.656827	0.10202026	0.0	-24.25	-12.3125	-39.6875	-2.718343	1.3448544	-1.3794175
1276878657655	2.3699405	0.50395286	9.724928	0.21556568	0.0	-24.25	-12.625	-39.9375	-2.7111318	1.3266213	-1.3612735
1276878657695	2.2201166	0.50395286	9.80665	0.26078606	0.0	-24.5	-12.0625	-39.9375	-2.7815878	1.3426889	-1.347585
1276878657725	2.3426998	0.53119355	9.888372	0.36931705	0.0	-24.75	-11.5625	-39.9375	-2.8036184	1.3324845	-1.3478223
1276878657755	2.2609777	0.50395286	9.915613	0.3759508	0.0	-24.75	-11.5625	-39.6875	-2.8064709	1.3412954	-1.3514897
1276878657795	2.2201166	0.42223078	9.80665	0.25702667	0.0	-25.5625	-11.8125	-40.4375	-2.7703524	1.3443035	-1.3828567
1276878657835	2.2609777	0.38136974	9.656827	0.11865997	0.0	-25.5625	-12.0625	-40.4375	-2.722039	1.3376731	-1.4036945
1276878657875	2.3699405	0.42223078	9.724928	0.21178913	0.0	-25.5625	-12.875	-40.4375	-2.69035	1.328139	-1.3944854
1276878657905	2.4108016	0.42223078	9.656827	0.15550613	0.0	-25.3125	-12.875	-40.4375	-2.672028	1.3225757	-1.3974136
1276878657935	2.3018389	0.3405087	9.656827	0.12656307	0.0	-25.3125	-12.625	-39.9375	-2.6593885	1.3343457	-1.4239324
1276878657975	2.4108016	0.313268	9.534244	0.03265381	0.0	-25.0625	-12.625	-39.4375	-2.6132243	1.3211334	-1.4415768
1276878658015	2.4516625	0.3405087	9.575105	0.08320427	0.0	-25.0625	-12.3125	-38.6875	-2.6410425	1.3178307	-1.4327903
1276878658045	2.4108016	0.3405087	9.466142	-0.03241062	0.0	-25.5625	-12.3125	-38.1875	-2.6644983	1.3190486	-1.4304816
1276878658075	2.6014864	0.46309182	9.466142	0.021372795	0.0	-25.5625	-12.3125	-38.6875	-2.6939793	1.2985847	-1.3946311
1276878658115	2.6423476	0.5720546	9.507003	0.07729435	0.0	-26.0625	-12.625	-38.6875	-2.7491598	1.2937343	-1.3575917
1276878658155	2.9147544	0.8036005	9.615966	0.27344704	0.0	-26.5625	-13.125	-38.9375	-2.806792	1.2661585	-1.3017786
1276878658195	3.0645783	0.88532263	9.534244	0.24706745	0.0	-26.5625	-13.125	-38.9375	-2.806792	1.2661585	-1.3017786
1276878658235	3.0237172	0.95342433	9.697687	0.3961439	0.0	-26.5625	-13.125	-38.1875	-2.8651175	1.2548195	-1.2653487
1276878658276	2.982856	1.0351465	10.038197	0.7163887	0.0	-26.5625	-12.875	-38.1875	-2.935274	1.2660586	-1.236768
1276878658315	2.7921712	0.92618364	9.956474	0.575325	0.0	-27.0625	-12.3125	-37.9375	-2.963621	1.2835069	-1.2505099
1276878658345	2.6832085	0.61291564	9.724928	0.3002529	0.0	-26.8125	-12.3125	-37.375	-2.8115911	1.2949922	-1.346223
1276878658375	2.6014864	0.313268	9.534244	0.081103325	0.0	-27.3125	-12.625	-37.9375	-2.6556532	1.3025898	-1.4509546
1276878658405	2.6014864	0.10896278	9.615966	0.15559864	0.0	-27.3125	-12.875	-38.4375	-2.532826	1.3063622	-1.528936
1276878658455	2.7921712	-0.08172209	9.507003	0.10223484	0.0	-25.8125	-12.0625	-39.1875	-2.3774562	1.285017	-1.6000563
1276878658496	2.9556155	-0.23154591	9.466142	0.11288166	0.0	-25.8125	-12.0625	-39.9375	-2.2664092	1.2672857	-1.6489776
1276878658535	3.0237172	-0.23154591	9.343558	0.01671791	0.0	-25.8125	-11.3125	-39.6875	-2.2815568	1.2569602	-1.6472237
1276878658575	3.173541	-0.14982383	9.343558	0.062285423	0.0	-26.0625	-10.5625	-39.4375	-2.343307	1.2430325	-1.6179717
1276878658615	3.1054392	-0.08172209	9.084772	-0.20542622	0.0	-27.0625	-10.8125	-39.4375	-2.3996701	1.2413135	-1.5971061
1276878658656	3.214402	0.10896278	9.343558	0.07496548	0.0	-27.5625	-10.3125	-39.1875	-2.538938	1.2392793	-1.536911
1276878658695	3.3778462	0.3405087	9.575105	0.35250473	0.0	-27.8125	-10.8125	-38.4375	-2.6319773	1.2300633	-1.4703293
1276878658735	3.173541	0.50395286	9.765789	0.47420406	0.0	-28.3125	-11.0625	-38.4375	-2.7607117	1.2529174	-1.413313
1276878658775	3.1463003	0.10896278	9.466142	0.1692667	0.0	-29.3125	-10.8125	-37.9375	-2.59741	1.24973	-1.5361781
1276878658805	3.214402	0.08172209	9.384419	0.11334896	0.0	-29.8125	-10.5625	-37.9375	-2.5961397	1.2406969	-1.5453781
1276878658845	3.173541	-0.040861044	9.234595	-0.041877747	0.0	-29.8125	-10.0625	-38.9375	-2.5459948	1.2397572	-1.5836711
1276878658885	3.336985	-0.08172209	9.384419	0.15374565	0.0	-29.8125	-10.0625	-38.4375	-2.5169802	1.2290576	-1.5952812
1276878658915	3.1463003	-0.14982383	9.275456	-0.010949135	0.0	-28.8125	-9.8125	-38.1875	-2.4861171	1.2434239	-1.6183795
1276878658945	3.214402	0.10896278	9.656827	0.3716879	0.0	-28.5625	-9.8125	-38.4375	-2.6163795	1.2492967	-1.536911
1276878658985	3.405087	0.23154591	9.615966	0.39702702	0.0	-28.5625	-10.0625	-37.9375	-2.6410103	1.2297404	-1.5029008
1276878659015	2.9556155	-0.040861044	9.656827	0.29244137	0.0	-28.0625	-9.8125	-37.6875	-2.564607	1.2737577	-1.5846204
1276878659046	3.0237172	-0.14982383	9.466142	0.13181782	0.0	-28.0625	-9.8125	-37.6875	-2.564607	1.2737577	-1.5846204
1276878659085	3.0237172	-0.08172209	9.80665	0.4559002	0.0	-28.0625	-10.0625	-37.375	-2.5332117	1.2716088	-1.5978168
1276878659125	3.0645783	0.08172209	9.724928	0.3900423	0.0	-27.8125	-10.0625	-38.1875	-2.5943267	1.265419	-1.5441359
1276878659166	2.7240696	-0.19068487	9.112013	-0.29425335	0.0	-28.0625	-10.3125	-38.6875	-2.4575427	1.2796285	-1.6406823
1276878659205	2.8330324	-0.29964766	9.043911	-0.32465744	0.0	-28.0625	-11.0625	-38.9375	-2.351015	1.2656354	-1.6761738
1276878659245	2.9147544	-0.10896278	9.152874	-0.20025826	0.0	-28.0625	-11.8125	-38.6875	-2.4181225	1.2622961	-1.6081622
1276878659285	3.255263	1.0760075	9.80665	0.58204174	0.0	-28.5625	-12.875	-38.4375	-2.9491153	1.2344701	-1.2515583
1276878659325	3.8273177	1.5390993	8.499097	-0.35933113	0.0	-28.3125	-14.375	-38.1875	-2.9103847	1.1189227	-1.1884506
1276878659365	2.0294318	1.1849703	10.228881	0.68871784	0.0	-28.3125	-15.625	-37.9375	3.1075904	1.3449684	-1.0423046
1276878659405	2.3018389	1.1441092	8.962189	-0.4831171	0.0	-28.3125	-16.625	-37.9375	-3.0332994	1.291479	-1.1095184
1276878659445	0.5720546	1.2666923	9.847511	0.13846111	0.0	-27.5625	-17.875	-36.625	2.467778	1.4305826	-0.42419443
1276878659485	5.284695	2.8330324	8.539958	0.6281452	0.0	-27.3125	-19.625	-36.125	-2.5495446	0.9586414	-1.0787011
1276878659516	1.7570249	2.7240696	9.384419	0.121845245	0.0	-27.0625	-21.875	-35.625	2.634833	1.2382084	-0.57285225
1276878659547	2.1792557	3.214402	9.112013	0.09841442	0.0	-26.0625	-23.875	-34.875	2.7144651	1.1679139	-0.5957846
1276878659585	3.990762	4.2086873	9.888372	1.6571684	0.0	-25.5625	-25.875	-34.875	3.0873237	1.040332	-0.7588263
1276878659625	4.2495484	4.944186	9.888372	2.0374851	0.0	-23.5	-27.625	-34.375	-3.1253152	0.9879056	-0.7099859
1276878659665	1.9885708	3.3778462	8.962189	-0.024774551	0.0	-21.0	-28.875	-34.125	2.9610066	1.1585013	-0.5320765
1276878659705	2.0294318	3.568531	8.430995	-0.42930126	0.0	-18.75	-30.625	-34.375	3.0743775	1.1176654	-0.51708853
1276878659746	1.879608	3.6774938	9.00305	0.09848976	0.0	-16.25	-31.375	-34.875	3.1307557	1.1407036	-0.47249696
1276878659785	-0.14982383	2.9147544	8.962189	-0.3812027	0.0	-14.6875	-31.375	-36.125	2.40333	1.2559702	0.051356677
1276878659815	0.61291564	3.173541	9.847511	0.5577364	0.0	-14.1875	-31.625	-36.375	2.7758615	1.2536515	-0.19078407
1276878659855	1.3756552	3.405087	9.193735	0.09344101	0.0	-13.4375	-32.375	-36.125	3.124261	1.190761	-0.3839499
1276878659895	0.38136974	3.5276701	9.656827	0.48141098	0.0	-12.6875	-33.625	-35.625	2.7256043	1.2186773	-0.10768987
1276878659937	0.88532263	3.9090397	9.615966	0.6111803	0.0	-12.4375	-34.875	-33.875	2.9328527	1.175882	-0.22272348
1276878659975	0.6946377	3.8681788	8.662541	-0.29429245	0.0	-11.1875	-36.875	-33.375	2.9314053	1.1448833	-0.17768362
1276878660015	1.0760075	4.099725	8.008764	-0.7454233	0.0	-10.4375	-37.9375	-32.375	3.1179225	1.0840296	-0.25666946
1276878660055	0.84446156	4.2904096	7.7363577	-0.92003345	0.0	-9.4375	-39.1875	-31.375	3.0555756	1.0563449	-0.1943412
1276878660095	0.8036005	4.944186	8.158588	-0.2330761	0.0	-9.1875	-40.6875	-31.625	3.0081851	1.0201734	-0.16112545
1276878660145	0.92618364	4.372132	8.076866	-0.57577133	0.0	-9.1875	-40.9375	-31.125	3.1182964	1.0654016	-0.2087519
1276878660185	0.84446156	4.372132	8.730643	-0.0059986115	0.0	-9.4375	-40.9375	-31.375	3.076755	1.0991527	-0.19079697
1276878660215	1.1168685	4.2086873	8.580819	-0.18423367	0.0	-10.1875	-39.9375	-32.625	-3.123538	1.1012044	-0.25939345
1276878660245	1.0351465	3.8273177	7.8180795	-1.040679	0.0	-10.1875	-38.9375	-32.875	-3.1258168	1.1014562	-0.264143
1276878660285	1.879608	4.0180025	8.812365	0.059202194	0.0	-11.1875	-38.1875	-33.375	-2.8496723	1.1044538	-0.43755466
1276878660325	1.5390993	3.718355	9.00305	0.054885864	0.0	-12.1875	-37.375	-33.375	-3.0055802	1.1504459	-0.39244798
1276878660355	2.4108016	3.990762	9.112013	0.4289217	0.0	-13.1875	-36.625	-32.875	-2.758878	1.0978497	-0.5434255
1276878660385	2.7649305	4.0180025	9.343558	0.7333336	0.0	-14.1875	-35.875	-32.875	-2.696147	1.0896975	-0.6027188
1276878660425	2.3018389	3.9499009	9.656827	0.8776598	0.0	-14.4375	-35.125	-32.875	-2.8858624	1.1286433	-0.5276455
1276878660465	1.9885708	3.5276701	8.62168	-0.28130245	0.0	-14.6875	-34.375	-33.625	-2.933377	1.1316861	-0.51330554
1276878660505	2.0294318	3.336985	8.662541	-0.30435085	0.0	-15.25	-33.875	-33.375	-2.9156477	1.1472224	-0.5464003
1276878660535	1.9477097	3.1054392	8.471856	-0.57574177	0.0	-16.0	-33.875	-33.375	-2.931934	1.1624296	-0.5601747
1276878660576	2.1792557	2.982856	8.076866	-0.9250765	0.0	-16.0	-33.375	-33.875	-2.7993505	1.1418291	-0.63096493
1276878660617	2.2201166	3.5276701	9.847511	0.88665867	0.0	-15.75	-33.375	-33.875	-2.928319	1.1703935	-0.5617167
1276878660655	1.607201	1.6480621	8.62168	-0.88294125	0.0	-14.9375	-33.625	-34.375	-2.6601672	1.3098816	-0.77284646
1276878660695	1.9477097	2.152015	7.0553403	-2.1775894	0.0	-14.1875	-33.875	-33.875	-2.5737393	1.1805043	-0.7356055
1276878660735	2.5606253	3.486809	8.008764	-0.7041807	0.0	-14.4375	-34.875	-32.375	-2.651087	1.0755365	-0.6334259
1276878660780	2.1111538	4.399372	8.471856	-0.029953957	0.0	-14.6875	-36.375	-31.125	-3.0067084	1.0482191	-0.44741932
1276878660825	2.6014864	4.944186	9.152874	0.9165869	0.0	-14.4375	-38.6875	-29.125	-2.88282	1.0227712	-0.4843644
1276878660865	2.4925237	4.903325	9.084772	0.8135357	0.0	-13.1875	-40.1875	-28.375	-2.8441906	1.0263708	-0.47029203
1276878660915	1.56634	6.3198414	8.281172	0.72765636	0.0	-11.4375	-41.4375	-28.125	3.0725973	0.9044973	-0.24294923
1276878660946	1.7570249	4.140586	7.246025	-1.2780828	0.0	-9.1875	-41.4375	-29.125	-2.7744515	1.0152608	-0.40131328
1276878660985	1.0760075	4.7943625	8.853226	0.3187294	0.0	-7.6875	-40.6875	-30.625	-3.0756068	1.0641152	-0.22077358
1276878661015	-0.46309182	4.9850473	10.378705	1.716486	0.0	-6.1875	-39.9375	-31.875	2.7109556	1.1213416	0.09263032
1276878661045	-0.9125633	4.099725	9.956474	0.9994545	0.0	-4.125	-39.6875	-33.625	2.6157904	1.1716034	0.2190207
1276878661075	-0.46309182	4.140586	9.084772	0.18794727	0.0	-2.125	-38.9375	-33.875	2.8418615	1.1408024	0.111379236
1276878661119	0.10896278	4.099725	8.962189	0.049334526	0.0	0.125	-39.1875	-34.875	-3.086399	1.1416334	-0.026571816
1276878661156	-0.040861044	4.5628166	9.697687	0.9109106	0.0	2.375	-39.4375	-34.875	-3.044949	1.1310059	0.008954984
1276878661195	-0.3405087	5.9793324	10.378705	2.1760826	0.0	3.875	-39.1875	-33.625	-3.0468833	1.0474236	0.05688617
1276878661225	-1.3756552	5.5162406	9.275456	1.0724783	0.0	6.4375	-40.9375	-31.375	2.949321	1.0209252	0.24439763
1276878661277	-3.255263	5.012288	7.3141265	-0.36121655	0.0	10.1875	-41.6875	-27.375	2.3521397	0.8856964	0.57599306
1276878661325	-5.597963	6.66035	3.255263	-0.5171833	0.0	14.9375	-43.1875	-22.375	1.2189723	0.35802504	0.6989475
1276878661355	-7.6954966	5.325556	5.597963	1.0983667	0.0	21.5	-44.1875	-16.375	1.8887045	0.5390702	0.9654358
1276878661386	-6.4015636	4.399372	4.440233	-0.8595743	0.0	27.5625	-43.4375	-10.0625	2.2016838	0.51930577	0.9686896
1276878661425	-6.2789803	3.255263	2.5333846	-2.2939696	0.0	32.3125	-42.6875	-4.5625	2.0513606	0.3439565	1.0925072
1276878661456	-6.6331096	4.903325	0.9942854	-1.4982605	0.0	35.625	-41.6875	-0.3125	2.0286415	0.119959965	0.9342304
1276878661486	-6.66035	5.053149	2.152015	-1.1738205	0.0	36.875	-40.1875	2.4375	2.5879848	0.25193948	0.92175597
1276878661535	-6.5922484	4.7535014	2.1792557	-1.3922186	0.0	36.875	-39.6875	3.9375	2.5975318	0.26197666	0.9460661
1276878661565	-6.5513873	5.325556	1.6889231	-1.1964998	0.0	36.875	-39.9375	5.9375	2.7005603	0.19743508	0.888245
1276878661605	-6.2108784	5.6252036	2.1111538	-1.1651859	0.0	36.875	-39.1875	6.6875	2.925931	0.24680302	0.83484
1276878661639	-7.205164	6.3198414	3.9499009	0.5594721	0.0	37.125	-39.4375	7.1875	2.9537616	0.39092025	0.85076314
1276878661675	-7.6273947	6.6331096	2.7649305	0.67286015	0.0	38.125	-39.1875	7.1875	2.9311314	0.26700273	0.8550085
1276878661705	-6.8237944	5.8567495	2.2201166	-0.5441122	0.0	38.625	-38.4375	6.1875	2.933869	0.24204418	0.8615129
1276878661748	-6.5922484	6.0474343	2.3426998	-0.55908585	0.0	38.625	-38.1875	5.9375	3.037837	0.2561226	0.828475
1276878661785	-6.742072	7.205164	2.6832085	0.41927433	0.0	38.375	-37.9375	5.9375	-3.0363445	0.265501	0.7522072
1276878661816	-7.082581	6.0201936	1.8387469	-0.3310671	0.0	37.875	-38.4375	5.9375	2.8568795	0.19529003	0.8663023
1276878661855	-7.6546354	5.09401	2.1792557	-0.3572302	0.0	37.375	-38.6875	6.1875	2.5765197	0.23271812	0.98361546
1276878661885	-7.8861814	5.134871	2.3018389	-0.11865711	0.0	37.375	-39.1875	6.1875	2.5501978	0.23989134	0.9936323
1276878661915	-7.4639506	5.012288	2.6832085	-0.42404938	0.0	37.875	-39.6875	5.4375	2.6187305	0.2900259	0.97943234
1276878661945	-6.851035	5.938472	2.8330324	-0.30779743	0.0	37.125	-39.6875	4.6875	2.8727891	0.30285865	0.8566299
1276878661985	-6.742072	7.205164	3.3778462	0.62310314	0.0	36.125	-39.9375	3.9375	3.0986426	0.32981327	0.7522072
1276878662025	-6.8237944	7.205164	3.3778462	0.67611694	0.0	34.8125	-40.6875	3.1875	3.0089467	0.3280826	0.75822043
1276878662065	-6.932757	6.5922484	2.6014864	0.10741043	0.0	33.5625	-41.1875	3.1875	2.763225	0.26551238	0.8105691
1276878662105	-6.3607025	6.0474343	2.7649305	-0.60475636	0.0	33.3125	-41.6875	3.4375	2.7795212	0.30518967	0.8106398
1276878662145	-5.5571017	5.597963	2.4108016	-1.558588	0.0	33.0625	-42.1875	3.9375	2.8284464	0.29661745	0.7817352
1276878662185	-5.012288	8.390134	2.9556155	0.4037876	0.0	32.3125	-42.6875	4.6875	-2.8557057	0.2936731	0.53850746
1276878662225	-4.8216033	7.9270425	2.6832085	-0.14820957	0.0	31.0625	-43.6875	4.9375	-2.948299	0.2815133	0.54646176
1276878662265	-5.284695	6.5513873	1.5390993	-1.2499275	0.0	29.3125	-44.6875	5.6875	2.808713	0.18085448	0.6787844
1276878662305	-6.0201936	5.938472	1.7978859	-1.1613874	0.0	27.8125	-45.6875	5.4375	2.4627976	0.20949093	0.79223174
1276878662345	-5.8976107	5.8567495	2.5333846	-1.1174984	0.0	26.8125	-46.4375	4.4375	2.5128856	0.29585436	0.78887445
1276878662385	-5.175732	7.43671	3.990762	0.09380627	0.0	25.5625	-46.6875	2.6875	2.9069037	0.41488937	0.6080166
1276878662425	-4.4810944	8.076866	4.4810944	0.4596138	0.0	24.25	-47.4375	1.1875	3.0673196	0.45169076	0.50652564
1276878662465	-4.5628166	9.112013	3.486809	0.963954	0.0	22.75	-48.1875	0.6875	3.0727663	0.3296732	0.46424532
1276878662505	-4.1814466	8.689782	2.4516625	0.14359951	0.0	20.5	-48.9375	1.6875	2.9567528	0.24895577	0.44848764
1276878662545	-3.8273177	8.962189	1.4982382	0.053061485	0.0	19.0	-49.9375	4.1875	2.968741	0.15254654	0.40360713
1276878662585	-4.630918	8.430995	1.4165162	-0.08381176	0.0	18.0	-49.9375	6.1875	2.6007345	0.14620996	0.5022849
1276878662625	-4.399372	7.9270425	0.19068487	-0.7386389	0.0	17.5	-49.9375	8.4375	2.388743	0.02102985	0.50666076
1276878662668	-3.636633	8.962189	0.313268	-0.12966442	0.0	17.5	-49.4375	10.1875	2.944441	0.032378137	0.38547498
1276878662705	-3.445948	8.158588	0.6946377	-0.92297745	0.0	16.75	-49.4375	11.4375	2.9004405	0.07827253	0.39964142
1276878662735	-2.8738933	9.043911	0.3405087	-0.3109913	0.0	16.5	-49.9375	13.0	-3.1011736	0.035867095	0.30767974
1276878662765	-4.1814466	9.00305	0.10896278	0.12064934	0.0	16.5	-49.6875	14.25	2.7589223	0.010976295	0.43480355
1276878662805	-4.7126403	9.507003	-0.38136974	0.81114197	0.0	16.5	-49.9375	15.5	2.6441476	-0.035925716	0.46020332
1276878662845	-5.09401	9.656827	-0.27240697	1.1147718	0.0	16.0	-49.4375	16.75	2.6187787	-0.024945032	0.48540753
1276878662885	-2.982856	4.440233	-0.9125633	-4.380245	0.0	15.25	-49.1875	17.5	2.1158006	-0.16897383	0.59153366
1276878662925	-2.5333846	7.273266	1.6480621	-1.930449	0.0	13.9375	-49.4375	17.0	3.028749	0.21080364	0.33517256
1276878662965	-4.3312707	9.956474	0.27240697	1.0545416	0.0	12.4375	-49.6875	16.75	2.7045012	0.025083393	0.41032743
1276878662995	-4.1814466	7.7772183	0.42223078	-0.9665203	0.0	12.6875	-49.4375	16.75	2.5717664	0.04778114	0.49331456
1276878663035	-3.3642259	6.8237944	0.46309182	-2.184535	0.0	13.1875	-49.1875	16.5	2.6709895	0.060793784	0.45804316
1276878663075	-3.718355	9.425281	0.10896278	0.3261652	0.0	14.1875	-48.9375	16.0	2.861361	0.010753664	0.37576354
1276878663115	-4.1814466	9.112013	0.6537767	0.24027443	0.0	16.0	-48.6875	14.75	2.83219	0.065118335	0.4302254
1276878663155	-4.399372	9.534244	1.1441092	0.7557955	0.0	17.25	-49.4375	12.75	2.8726113	0.108531535	0.43231717
1276878663195	-4.903325	9.043911	1.4573772	0.5836754	0.0	18.25	-49.6875	10.4375	2.7337933	0.14072694	0.4968108
1276878663235	-4.903325	8.240311	1.9885708	-0.013809204	0.0	19.25	-50.4375	8.9375	2.6997428	0.20448583	0.5367654
1276878663275	-5.284695	8.430995	2.3699405	0.42204952	0.0	20.5	-50.1875	7.4375	2.6993854	0.23381993	0.55990523
1276878663315	-5.407278	8.853226	2.7240696	0.91896534	0.0	21.75	-49.6875	6.6875	2.7918584	0.25679082	0.54830045
1276878663355	-6.1291566	8.730643	2.3699405	1.1207151	0.0	23.0	-49.6875	6.4375	2.645559	0.21861851	0.6120858
1276878663395	-5.053149	6.2789803	1.6889231	-1.5718231	0.0	24.25	-49.1875	6.9375	2.549641	0.20656091	0.67764413
1276878663435	-5.5162406	7.504812	1.56634	-0.36183453	0.0	24.75	-49.1875	7.6875	2.6356387	0.166611	0.63384944
1276878663475	-5.5571017	8.812365	2.152015	0.83150387	0.0	24.75	-48.9375	7.9375	2.8735507	0.20369789	0.56261814
1276878663515	-5.366417	8.62168	1.0351465	0.40135288	0.0	24.25	-48.4375	8.1875	2.7891054	0.10157999	0.55675113
1276878663556	-5.284695	7.6954966	1.0760075	-0.4094982	0.0	23.25	-48.4375	8.4375	2.6229227	0.114755265	0.60176134
1276878663595	-4.4810944	6.851035	0.50395286	-1.6047688	0.0	23.25	-48.1875	9.6875	2.650186	0.061482295	0.57923496
1276878663635	-5.7886477	6.3607025	-0.38136974	-1.197793	0.0	23.25	-48.1875	10.9375	2.0873287	-0.0443142	0.7383477
1276878663675	-5.8567495	7.273266	0.84446156	-0.43034935	0.0	23.5	-47.9375	13.25	2.559893	0.090185605	0.67793
1276878663715	-4.8216033	6.973618	0.7218784	-1.2978125	0.0	24.0	-47.1875	14.75	2.7867367	0.08494076	0.60493505
1276878663755	-5.366417	7.3141265	-0.040861044	-0.7349062	0.0	23.5	-46.9375	15.5	2.6177547	-0.004504226	0.63299096
1276878663805	-5.012288	8.076866	-0.8036005	-0.26701832	0.0	23.75	-46.4375	16.75	2.8051357	-0.084338054	0.5554098
1276878663835	-5.012288	7.7772183	-0.27240697	-0.55017376	0.0	23.75	-45.9375	17.0	2.833684	-0.029433047	0.57248735
1276878663865	-5.325556	7.273266	-0.0	-0.7921095	0.0	24.0	-46.4375	17.75	2.7148814	-0.0	0.63201773
1276878663895	-5.434519	7.6273947	0.3405087	-0.43503952	0.0	24.25	-46.1875	18.0	2.8005035	0.036342062	0.61906606
1276878663935	-5.47538	8.430995	0.42223078	0.25514603	0.0	23.75	-46.1875	17.25	2.877918	0.041976087	0.5759776
1276878663975	-5.597963	8.499097	0.23154591	0.37300873	0.0	23.5	-46.4375	16.5	2.8184533	0.0227479	0.5824347
1276878664015	-5.597963	7.6273947	0.27240697	-0.34152794	0.0	23.25	-45.9375	15.5	2.6798887	0.028784053	0.6331358
1276878664055	-5.325556	7.205164	0.46309182	-0.8350067	0.0	23.5	-45.9375	14.75	2.6905775	0.051640224	0.6365082
1276878664095	-5.407278	7.1234417	0.6946377	-0.8364439	0.0	23.75	-45.9375	14.5	2.6929872	0.07751592	0.6492884
1276878664135	-5.134871	7.5865335	0.6946377	-0.6194353	0.0	23.75	-46.6875	13.75	2.7885149	0.0756814	0.5950128
1276878664165	-5.175732	8.117727	0.7627395	-0.14914131	0.0	23.75	-46.9375	12.75	2.8417282	0.07906124	0.56759727
1276878664205	-5.134871	8.308413	1.1441092	0.02725029	0.0	23.25	-47.1875	11.9375	2.868343	0.11660746	0.5535735
1276878664245	-5.175732	8.008764	1.1441092	-0.20261478	0.0	23.25	-47.9375	10.6875	2.7750359	0.11941156	0.57374054
1276878664285	-4.8216033	8.430995	1.1441092	-0.027155876	0.0	23.25	-47.9375	10.1875	2.9237854	0.11725917	0.519494
1276878664325	-4.944186	8.049625	1.56634	-0.23090649	0.0	22.5	-48.4375	9.6875	2.8148959	0.16431208	0.55080485
1276878664365	-4.7943625	8.499097	1.56634	0.07636452	0.0	22.0	-48.9375	9.1875	2.8700988	0.15915917	0.513606
1276878664405	-4.372132	8.19945	1.879608	-0.32617378	0.0	20.75	-48.9375	9.1875	2.9043262	0.1995833	0.48987108
1276878664445	-4.1814466	8.430995	2.4108016	-0.09180927	0.0	19.75	-49.1875	8.4375	2.9485319	0.25077686	0.4604114
1276878664485	-4.2086873	9.507003	1.9885708	0.77874374	0.0	19.0	-49.6875	7.6875	2.986559	0.18898277	0.41676116
1276878664525	-4.0180025	8.349273	2.4516625	-0.2220087	0.0	18.5	-50.1875	6.1875	2.8873785	0.25866556	0.44852716
1276878664565	-4.0588636	7.8180795	2.9556155	-0.5151272	0.0	18.25	-50.6875	5.1875	2.8257308	0.3237227	0.47886083
1276878664605	-3.214402	8.117727	3.2961242	-0.47421646	0.0	18.5	-50.9375	3.9375	3.07365	0.3609789	0.37703013
1276878664645	-3.1463003	7.8589406	3.0645783	-0.8036623	0.0	18.5	-51.1875	2.9375	3.0548685	0.3473377	0.38080516
1276878664675	-2.9147544	8.894087	3.173541	0.07626152	0.0	18.5	-51.4375	2.1875	-3.0621738	0.32690552	0.31668848
1276878664715	-2.6832085	7.273266	3.445948	-1.3228683	0.0	18.75	-51.1875	1.4375	3.136242	0.4182705	0.35342422
1276878664755	-2.5333846	8.19945	3.8273177	-0.40998173	0.0	18.25	-51.1875	0.9375	-3.0406716	0.41950214	0.29966575
1276878664795	-2.7921712	9.112013	3.2961242	0.27746773	0.0	18.5	-51.1875	0.1875	-2.992739	0.33298224	0.2973431
1276878664825	-2.7921712	8.662541	3.5276701	-0.045487404	0.0	18.25	-51.1875	-0.8125	-3.053522	0.3697674	0.3118124
1276878664855	-2.5333846	8.049625	4.0588636	-0.4424162	0.0	18.5	-51.4375	-2.0625	-3.0408628	0.44831005	0.30490682
1276878664895	-2.6014864	7.7772183	3.8681788	-0.7393646	0.0	19.25	-51.4375	-3.0625	-3.0479712	0.44073933	0.32280096
1276878664935	-3.1463003	8.19945	3.759216	-0.253541	0.0	19.5	-51.1875	-3.0625	3.1345322	0.40444332	0.3663944
1276878664975	-3.0645783	8.076866	3.7864566	-0.37454224	0.0	20.0	-51.1875	-2.5625	-3.114182	0.41309217	0.36264592
1276878665015	-3.214402	8.580819	3.336985	-0.05481434	0.0	20.0	-51.1875	-1.3125	-3.0976505	0.3492471	0.3584227
1276878665055	-3.0645783	8.308413	3.3778462	-0.3287182	0.0	20.25	-50.9375	-0.3125	-3.0704317	0.364402	0.35337016
1276878665095	-3.336985	8.158588	3.7864566	-0.21314812	0.0	20.5	-50.6875	-0.0625	3.131618	0.40573013	0.3882537
1276878665135	-3.405087	8.499097	3.6774938	0.060124397	0.0	20.75	-50.1875	0.1875	-3.1123703	0.381933	0.38105887
1276878665175	-3.336985	8.539958	3.5957718	0.04200077	0.0	21.0	-50.1875	0.1875	-3.0770867	0.3737434	0.37250653
1276878665215	-3.1463003	7.7363577	3.7864566	-0.6367159	0.0	20.75	-50.1875	-0.0625	-3.1275444	0.42565867	0.3862604
1276878665255	-2.9147544	7.9679036	3.1463003	-0.7577553	0.0	20.5	-50.1875	-0.3125	-3.033595	0.35511687	0.35069117
1276878665295	-3.1054392	8.158588	2.982856	-0.581481	0.0	20.25	-50.1875	-0.0625	-3.080195	0.3292558	0.36370122
1276878665335	-3.1054392	8.349273	3.486809	-0.2404623	0.0	19.75	-49.6875	-0.8125	-3.0781593	0.37308833	0.35608637
1276878665375	-3.3642259	8.62168	3.486809	0.08320427	0.0	19.75	-49.4375	-0.3125	-3.1184423	0.3603099	0.3720343
1276878665415	-3.445948	8.308413	3.486809	-0.15977955	0.0	20.0	-49.1875	-0.3125	3.1220112	0.36981678	0.39316034
1276878665455	-3.3642259	8.471856	3.1463003	-0.16353989	0.0	20.0	-48.9375	-0.5625	-3.1101003	0.3323596	0.37800917
1276878665495	-3.2961242	8.281172	3.0237172	-0.39468384	0.0	20.75	-48.6875	-0.0625	-3.0665276	0.32706296	0.37880376
1276878665535	-3.3642259	7.9679036	3.255263	-0.56531715	0.0	21.0	-49.1875	-0.3125	-3.130072	0.35997453	0.39951548
1276878665575	-3.405087	8.049625	3.2961242	-0.4655838	0.0	21.25	-48.9375	0.6875	-3.115634	0.36063004	0.40018547
1276878665615	-3.636633	8.499097	3.336985	0.02163601	0.0	22.5	-48.9375	1.1875	-3.0677724	0.34641576	0.40431142
1276878665645	-3.636633	8.349273	3.255263	-0.1354456	0.0	22.75	-49.1875	1.1875	-3.0788765	0.34329683	0.41078335
1276878665685	-3.486809	8.471856	3.1463003	-0.120093346	0.0	23.0	-48.4375	1.6875	-2.9934525	0.3308119	0.39044532
1276878665725	-3.5957718	8.499097	3.1463003	-0.056602478	0.0	23.25	-48.6875	1.4375	-3.0121112	0.32857636	0.40024063
1276878665755	-3.5276701	8.471856	2.9147544	-0.17791176	0.0	22.75	-48.6875	1.4375	-3.0125818	0.30753902	0.3945628
1276878665795	-3.6774938	8.430995	2.982856	-0.13695145	0.0	22.75	-48.9375	1.6875	-3.071182	0.31358898	0.4113082
1276878665835	-3.759216	8.281172	3.214402	-0.16082764	0.0	22.75	-48.6875	1.6875	-3.1113203	0.339741	0.4261317
1276878665875	-3.568531	8.281172	2.982856	-0.308774	0.0	22.25	-48.4375	1.9375	-3.0736046	0.3194612	0.40687507
1276878665915	-3.2961242	8.281172	2.6423476	-0.5101862	0.0	21.75	-48.1875	2.4375	-3.0048094	0.28820473	0.37880376
1276878665955	-3.486809	8.158588	3.0645783	-0.41984844	0.0	21.25	-48.1875	2.9375	-3.1114094	0.33257434	0.4038839
1276878665995	-3.445948	7.9270425	2.9556155	-0.6716509	0.0	20.75	-48.9375	2.6875	3.117276	0.32947734	0.41006452
1276878666035	-3.336985	8.117727	3.2961242	-0.43128872	0.0	20.75	-49.1875	2.4375	-3.118296	0.3592509	0.39001617
1276878666075	-3.173541	8.689782	2.8738933	-0.11939335	0.0	20.5	-49.9375	2.4375	-3.0261588	0.30120105	0.35015464
1276878666115	-3.0645783	8.539958	2.6423476	-0.3565426	0.0	20.25	-49.9375	2.1875	-3.0144534	0.28338823	0.34453863
1276878666145	-2.982856	8.390134	2.6832085	-0.5065756	0.0	20.5	-49.6875	2.1875	-2.9908197	0.29267526	0.34158346
1276878666175	-3.405087	8.049625	3.214402	-0.4941063	0.0	20.75	-49.6875	1.9375	3.1294785	0.35241893	0.40018547
1276878666205	-3.5957718	8.471856	3.405087	0.0064296722	0.0	21.25	-49.4375	1.1875	-3.1291769	0.35436484	0.40139395
1276878666245	-3.405087	8.471856	3.2961242	-0.09936428	0.0	21.75	-49.4375	0.9375	-3.0510612	0.3464401	0.38216847
1276878666285	-3.173541	8.117727	2.9147544	-0.61618423	0.0	21.5	-49.6875	0.9375	-3.034913	0.3227226	0.3726714
1276878666325	-3.214402	8.008764	2.9556155	-0.6847887	0.0	21.25	-50.1875	1.4375	-3.0876336	0.32996985	0.38167867
1276878666355	-3.0645783	7.9679036	2.8330324	-0.81191826	0.0	20.75	-49.6875	1.6875	-3.059311	0.32042053	0.36717385
1276878666395	-2.7513103	8.539958	2.6423476	-0.45343685	0.0	20.75	-49.1875	1.6875	-2.8681867	0.28640652	0.3116693
1276878666435	-3.1463003	8.499097	2.4108016	-0.42870712	0.0	20.5	-49.1875	2.1875	-3.0064456	0.2599906	0.35454908
1276878666475	-3.5957718	8.62168	2.4925237	-0.13837051	0.0	20.5	-48.6875	2.4375	-3.130366	0.26074892	0.3951276
1276878666515	-3.759216	8.076866	2.8738933	-0.44573498	0.0	21.0	-49.1875	3.1875	3.0535443	0.31204957	0.4356112
1276878666555	-3.6774938	8.281172	2.6423476	-0.36822987	0.0	21.5	-49.6875	3.9375	3.114322	0.28374884	0.41791907
1276878666595	-3.759216	8.158588	2.4925237	-0.48426056	0.0	22.75	-49.4375	4.6875	3.140201	0.27066222	0.43177238
1276878666635	-3.718355	7.8861814	2.1792557	-0.8195944	0.0	23.25	-49.6875	5.4375	3.132937	0.24492987	0.44059092
1276878666665	-3.568531	9.084772	2.3018389	0.22160816	0.0	24.0	-49.6875	5.9375	-2.918711	0.23160018	0.37428722
1276878666705	-4.3312707	9.915613	2.7240696	1.3512993	0.0	23.75	-49.1875	6.9375	-3.0384872	0.24662977	0.41183385
1276878666735	-4.440233	9.656827	2.7921712	1.1827173	0.0	23.25	-49.1875	7.1875	-3.1138952	0.2568957	0.43097574
1276878666765	-3.718355	8.19945	1.9885708	-0.5864792	0.0	23.0	-48.9375	7.9375	-3.10373	0.2173842	0.42575106
1276878666805	-2.9556155	7.4639506	1.2666923	-1.6794901	0.0	22.75	-48.6875	8.4375	-2.9506764	0.15649717	0.37704074
1276878666835	-3.2961242	8.19945	1.3075534	-0.8732805	0.0	22.5	-48.4375	8.9375	-2.9743817	0.14689505	0.3822236
1276878666875	-3.9771416	9.956474	1.5390993	1.0246868	0.0	22.0	-48.4375	9.6875	-2.9989142	0.14257948	0.38003457
1276878666905	-4.0180025	9.656827	3.0645783	1.0924454	0.0	21.75	-48.6875	8.9375	-3.0831985	0.2850207	0.39429024
1276878666935	-3.486809	9.275456	3.255263	0.6235304	0.0	21.0	-48.9375	8.9375	-3.0447803	0.31740305	0.35957506
1276878666975	-2.4925237	8.049625	2.2201166	-1.0924053	0.0	20.0	-49.9375	8.6875	-2.9476054	0.25760847	0.30028147
1276878667015	-1.607201	7.164303	0.50395286	-2.4470105	0.0	19.5	-50.4375	8.1875	-2.5477839	0.06852883	0.22068101
1276878667055	-1.0760075	7.9679036	1.56634	-1.6152706	0.0	18.5	-50.6875	8.4375	-2.5800643	0.19240299	0.13423069
1276878667095	-2.9147544	10.228881	2.9147544	1.2215681	0.0	17.75	-51.1875	7.6875	-3.0023465	0.2674777	0.27759606
1276878667135	-2.8738933	9.956474	3.445948	1.1142101	0.0	18.25	-51.1875	6.1875	-2.9973571	0.3210237	0.2810077
1276878667165	-2.1792557	9.043911	2.8738933	-0.070082664	0.0	17.75	-51.6875	5.6875	-2.9065113	0.2996281	0.23645614
1276878667195	-1.7978859	8.281172	2.3426998	-1.0146971	0.0	17.75	-51.6875	4.9375	-2.821127	0.26971787	0.21378753
1276878667235	-1.334794	8.076866	2.070293	-1.3625069	0.0	17.75	-51.6875	4.4375	-2.6630952	0.2477002	0.16378106
1276878667275	-1.7297841	8.730643	2.2201166	-0.63358116	0.0	17.5	-51.4375	5.1875	-2.7638502	0.24445288	0.19559482
1276878667315	-2.7240696	9.697687	2.2201166	0.50812626	0.0	18.25	-50.6875	5.1875	-2.9134007	0.21693403	0.27384207
1276878667345	-2.1383946	9.697687	2.3699405	0.40287876	0.0	19.0	-50.6875	4.6875	-2.7192314	0.23426718	0.21703254
1276878667385	-1.6889231	9.084772	2.6832085	-0.18453217	0.0	19.0	-50.1875	5.1875	-2.6921651	0.28260517	0.18380865
1276878667425	-1.7570249	8.894087	2.982856	-0.2625761	0.0	19.0	-50.1875	4.6875	-2.7400515	0.31786045	0.19503847
1276878667465	-1.7978859	8.771504	2.9147544	-0.39030933	0.0	18.75	-50.4375	4.9375	-2.7701416	0.31471148	0.20216879
1276878667505	-1.6480621	9.00305	2.4925237	-0.3206768	0.0	18.25	-50.6875	5.1875	-2.706168	0.26588044	0.18105143
1276878667545	-1.6889231	9.152874	2.3699405	-0.2022667	0.0	18.25	-50.9375	4.4375	-2.679552	0.24933143	0.18247129
1276878667585	-1.6480621	9.084772	2.5606253	-0.22510624	0.0	18.0	-51.9375	3.9375	-2.7096584	0.27053353	0.17945768
1276878667655	-1.6480621	8.812365	2.7921712	-0.41675663	0.0	17.5	-51.9375	3.1875	-2.7619057	0.30192554	0.18488133
1276878667695	-1.6480621	8.812365	2.8330324	-0.40452576	0.0	17.25	-51.9375	2.9375	-2.7722805	0.30607492	0.18488131
1276878667725	-1.6480621	8.689782	2.9147544	-0.49406624	0.0	16.75	-51.6875	3.1875	-2.811154	0.31834057	0.1874291
1276878667755	-1.7297841	8.730643	2.9147544	-0.44117737	0.0	16.75	-50.9375	3.1875	-2.8198464	0.31648007	0.19559483
1276878667795	-1.6889231	8.853226	2.8738933	-0.34666443	0.0	17.25	-51.1875	3.4375	-2.7815711	0.30867305	0.18850428
1276878667835	-1.6889231	8.921328	2.982856	-0.2494545	0.0	17.5	-51.1875	3.6875	-2.7788332	0.3174087	0.18709879
1276878667865	-1.7297841	9.112013	2.9147544	-0.08467865	0.0	18.0	-51.4375	3.9375	-2.7556732	0.30449456	0.18760324
1276878667905	-1.6889231	9.234595	2.8330324	-7.1907043E-4	0.0	18.0	-51.4375	4.6875	-2.7424848	0.2930882	0.18089166
1276878667945	-1.7570249	9.152874	2.7240696	-0.096717834	0.0	17.75	-50.9375	4.1875	-2.7505987	0.28436148	0.1896571
1276878667985	-1.7297841	9.00305	2.8738933	-0.19903278	0.0	17.75	-50.9375	4.1875	-2.7505987	0.28436148	0.1896571
1276878668025	-1.6889231	8.771504	3.255263	-0.2993641	0.0	17.25	-50.9375	3.9375	-2.820098	0.3494666	0.19021864
1276878668065	-1.334794	8.962189	2.4108016	-0.4303789	0.0	17.25	-50.6875	3.4375	-2.624353	0.26003805	0.14784937
1276878668105	-1.0760075	8.962189	2.7240696	-0.37801456	0.0	16.75	-51.1875	3.1875	-2.6197793	0.2930928	0.11948885
1276878668135	-0.6946377	9.275456	1.9885708	-0.29502392	0.0	16.5	-50.9375	2.4375	-2.3797715	0.21062118	0.07475033
1276878668177	-0.84446156	9.915613	1.3756552	0.23948956	0.0	16.75	-51.1875	1.9375	-2.20587	0.1373653	0.08495983
1276878668215	-1.1441092	9.847511	2.982856	0.54612255	0.0	16.75	-51.4375	0.4375	-2.5432048	0.29226452	0.115664005
1276878668255	-2.1111538	8.853226	2.070293	-0.4726963	0.0	18.25	-51.1875	-0.5625	-2.6666915	0.22366248	0.2340898
1276878668295	-1.6889231	7.164303	2.5606253	-2.0132875	0.0	19.25	-51.1875	-1.0625	-2.7476087	0.3347837	0.23151448
1276878668335	-2.5333846	7.9679036	4.5628166	-0.2816925	0.0	19.5	-50.6875	-1.5625	-3.0112357	0.49955845	0.30784106
1276878668365	-1.1849703	7.8861814	5.434519	-0.15626144	0.0	20.25	-50.9375	0.1875	-2.7505753	0.5981806	0.14914331
1276878668405	0.10896278	8.308413	3.3778462	-0.83717823	0.0	19.5	-50.9375	2.4375	-2.384531	0.38611647	-0.013114002
1276878668445	-1.3075534	10.760075	-0.10896278	1.0331268	0.0	18.5	-50.4375	5.6875	-1.9686768	-0.010052294	0.12092608
1276878668485	-1.607201	9.302697	1.5390993	-0.2414999	0.0	17.75	-50.4375	8.6875	-2.6605017	0.16160953	0.17107841
1276878668525	-0.27240697	8.539958	1.7978859	-1.075242	0.0	16.75	-49.9375	9.9375	-2.496012	0.20739374	0.031887114
1276878668565	-0.84446156	9.507003	0.84446156	-0.22493172	0.0	16.25	-49.6875	11.1875	-2.49541	0.088247076	0.08859271
1276878668605	-1.0351465	10.147159	1.0760075	0.44976997	0.0	16.25	-50.1875	10.9375	-2.5445514	0.10510403	0.10166174
1276878668635	-0.9942854	10.337844	1.4573772	0.6806545	0.0	16.5	-50.4375	10.6875	-2.563704	0.13941705	0.095884256
1276878668678	-0.95342433	10.119919	1.5390993	0.4739437	0.0	16.5	-50.1875	10.4375	-2.5652554	0.15027413	0.09393538
1276878668715	-0.5720546	9.615966	1.7978859	-0.0073423386	0.0	17.0	-50.4375	9.4375	-2.499813	0.18451594	0.059420053
1276878668745	-0.5720546	9.343558	1.3075534	-0.3547182	0.0	17.5	-50.4375	9.1875	-2.4158165	0.13878222	0.061148167
1276878668775	-0.6946377	9.302697	1.334794	-0.3830433	0.0	17.5	-50.4375	8.6875	-2.4308124	0.1421216	0.074532256
1276878668815	-0.5720546	9.193735	1.6480621	-0.4488659	0.0	17.5	-50.4375	8.6875	-2.4308124	0.1421216	0.074532256
1276878668845	-0.53119355	8.853226	1.56634	-0.8002529	0.0	17.25	-50.1875	8.6875	-2.457995	0.174803	0.059928156
1276878668875	-0.5720546	8.689782	1.4165162	-0.98360825	0.0	17.25	-49.9375	8.1875	-2.433232	0.1612452	0.06573587
1276878668905	-0.8036005	8.853226	1.3075534	-0.8213806	0.0	17.5	-49.4375	7.9375	-2.4371548	0.14604044	0.09052118
1276878668945	-0.9125633	8.771504	1.334794	-0.8873596	0.0	18.25	-49.9375	7.4375	-2.4303772	0.15021679	0.10366433
1276878669005	-0.95342433	8.689782	1.4165162	-0.9506998	0.0	18.25	-49.9375	6.9375	-2.4427245	0.16064079	0.10928075
1276878669045	-1.1441092	9.425281	1.6889231	-0.16313648	0.0	18.5	-50.4375	6.1875	-2.4634123	0.17604356	0.12079629
1276878669085	-1.3075534	9.697687	1.7297841	0.13050175	0.0	19.0	-50.9375	5.4375	-2.4521332	0.17496374	0.13402322
1276878669125	-1.2258313	9.888372	1.8387469	0.32565212	0.0	18.75	-51.1875	5.1875	-2.4457324	0.18248488	0.1233377
1276878669165	-0.88532263	9.765789	2.1792557	0.23842716	0.0	19.25	-51.4375	5.6875	-2.4357042	0.21868655	0.090408385
1276878669195	-0.61291564	9.466142	2.1792557	-0.07357979	0.0	19.25	-50.9375	6.4375	-2.415653	0.22581647	0.06465795
1276878669225	-0.6537767	9.275456	2.3426998	-0.21760654	0.0	19.0	-50.6875	6.4375	-2.4587886	0.24680813	0.07036821
1276878669265	-0.84446156	9.193735	2.2201166	-0.3110304	0.0	19.25	-50.4375	6.1875	-2.4662027	0.23598859	0.09159484
1276878669305	-1.1441092	9.302697	2.3699405	-0.13888073	0.0	19.25	-50.1875	5.6875	-2.5246887	0.24766235	0.12237231
1276878669335	-1.2258313	8.62168	2.2609777	-0.809536	0.0	19.25	-50.4375	4.1875	-2.5363028	0.25402346	0.14123347
1276878669365	-1.0351465	8.281172	1.7570249	-1.2780828	0.0	19.5	-50.4375	3.6875	-2.4042833	0.20750229	0.124354996
1276878669405	-1.0351465	8.62168	2.070293	-0.87966824	0.0	19.5	-50.1875	2.6875	-2.4035559	0.23404495	0.11949122
1276878669445	-0.9125633	8.730643	2.2609777	-0.7419424	0.0	19.5	-50.4375	1.6875	-2.3735905	0.25208792	0.104146
1276878669485	-0.9125633	8.158588	2.2201166	-1.3022833	0.0	19.75	-50.4375	2.6875	-2.4297843	0.26411605	0.11139009
1276878669525	-1.1168685	10.269742	2.3426998	0.78595257	0.0	19.5	-50.4375	2.9375	-2.3734038	0.2230076	0.10832758
1276878669565	-0.95342433	10.691973	1.920469	1.0981884	0.0	19.5	-50.4375	3.4375	-2.2688327	0.17703494	0.088936746
1276878669605	-0.6946377	9.275456	2.1792557	-0.25333786	0.0	19.0	-50.6875	4.1875	-2.3809383	0.2301414	0.07475033
1276878669635	-0.5720546	9.043911	2.4925237	-0.40812588	0.0	18.5	-50.4375	3.6875	-2.4156914	0.2684152	0.06316885
1276878669665	-0.7218784	9.234595	2.4108016	-0.23529625	0.0	18.5	-50.9375	3.1875	-2.4135935	0.25461906	0.07801245
1276878669695	-0.95342433	9.615966	3.0237172	0.31850052	0.0	18.25	-51.1875	2.4375	-2.5140836	0.3032613	0.09882714
1276878669735	-0.8036005	9.043911	3.568531	-0.05101013	0.0	18.5	-50.4375	0.9375	-2.5285285	0.3744832	0.088622674
1276878669775	-0.84446156	8.812365	3.1463003	-0.41143417	0.0	18.75	-50.6875	-0.3125	-2.4644377	0.34148133	0.09553518
1276878669815	-1.0351465	8.281172	2.5606253	-1.0770378	0.0	19.0	-50.1875	-0.8125	-2.425836	0.2977044	0.124354996
1276878669845	-1.2666923	8.62168	2.8738933	-0.6307497	0.0	19.25	-50.1875	-0.5625	-2.5049777	0.31856084	0.14587581
1276878669885	-1.2258313	8.471856	2.7240696	-0.82357883	0.0	18.75	-50.1875	-0.3125	-2.511128	0.30809596	0.14369723
1276878669925	-1.2666923	9.00305	2.7240696	-0.31560326	0.0	18.0	-50.1875	-0.3125	-2.5060372	0.2911089	0.1397784
1276878669965	-1.0351465	8.962189	3.0237172	-0.29165077	0.0	17.75	-50.4375	-0.3125	-2.5123737	0.3233917	0.114991985
1276878670005	-1.0351465	8.921328	3.2961242	-0.23972511	0.0	17.75	-50.4375	-0.3125	-2.5123737	0.3233917	0.114991985
1276878670045	-0.88532263	8.62168	3.1054392	-0.6000805	0.0	18.25	-50.4375	-0.3125	-2.4959252	0.34405464	0.102326974
1276878670085	-0.9125633	8.962189	4.099725	0.09089184	0.0	18.75	-50.1875	-0.0625	-2.5767236	0.42708176	0.10147397
1276878670125	-1.3756552	9.507003	3.759216	0.5087385	0.0	19.0	-50.4375	-0.3125	-2.5916555	0.37301847	0.14370173
1276878670155	-0.84446156	8.430995	3.173541	-0.7586584	0.0	18.25	-50.6875	-0.3125	-2.5131238	0.3583669	0.09982861
1276878670185	-1.2258313	8.471856	3.255263	-0.64849854	0.0	18.25	-50.6875	0.1875	-2.6231205	0.36339524	0.14369723
1276878670225	-1.1849703	8.894087	3.2961242	-0.24770832	0.0	17.5	-51.1875	0.1875	-2.6210988	0.35204813	0.13245122
1276878670255	-0.50395286	9.302697	3.173541	0.035377502	0.0	17.5	-50.6875	0.4375	-2.4286785	0.32831436	0.05411987
1276878670295	-0.50395286	9.234595	3.1054392	-0.050858498	0.0	17.5	-50.4375	-0.0625	-2.4061503	0.3239541	0.054518197
1276878670335	-1.0351465	9.112013	2.7649305	-0.22828102	0.0	16.25	-51.1875	-1.3125	-2.5025792	0.29283115	0.11311745
1276878670365	-1.0760075	8.662541	2.9147544	-0.6037588	0.0	16.75	-50.9375	-1.0625	-2.5577598	0.32227114	0.12358085
1276878670405	-1.2258313	8.62168	3.445948	-0.44125652	0.0	16.5	-51.4375	-1.0625	-2.686887	0.3767978	0.14123349
1276878670445	-1.4982382	8.921328	3.405087	-0.14076042	0.0	16.5	-51.4375	-0.5625	-2.7409775	0.36000478	0.1663863
1276878670485	-1.525479	8.812365	3.759216	-0.105280876	0.0	18.0	-51.4375	0.1875	-2.7382462	0.39791095	0.171408
1276878670515	-1.525479	8.539958	3.445948	-0.47216988	0.0	18.25	-51.4375	0.1875	-2.7230086	0.3781086	0.17676406
1276878670545	-1.4573772	8.281172	2.9147544	-0.9073496	0.0	18.5	-50.9375	-0.0625	-2.6471949	0.3336842	0.17420302
1276878670585	-1.4165162	8.008764	2.8330324	-1.1942816	0.0	19.5	-50.9375	-0.0625	-2.6097794	0.3351907	0.17506026
1276878670625	-1.6889231	8.471856	2.6423476	-0.7730017	0.0	19.75	-50.6875	0.4375	-2.6100743	0.2968408	0.19677714
1276878670655	-2.3426998	9.466142	3.336985	0.50021935	0.0	20.0	-50.6875	1.4375	-2.7749264	0.32970423	0.24260738
1276878670685	-2.1792557	9.575105	3.173541	0.5133858	0.0	20.25	-50.9375	3.6875	-2.7451434	0.31257787	0.223784
1276878670725	-2.1792557	9.425281	3.0645783	0.34109402	0.0	20.5	-50.4375	5.1875	-2.755448	0.30678573	0.22722098
1276878670755	-2.4516625	9.575105	2.8738933	0.48667526	0.0	20.5	-49.9375	6.9375	-2.8083546	0.28296056	0.25066042
1276878670785	-2.3426998	8.894087	2.6832085	-0.22580338	0.0	21.0	-49.4375	7.6875	-2.8080542	0.28385624	0.25754982
1276878670825	-2.4516625	8.430995	2.2201166	-0.7500925	0.0	21.75	-48.9375	7.9375	-2.8060324	0.2476632	0.28298745
1276878670855	-2.7513103	8.499097	1.879608	-0.6777239	0.0	21.75	-48.6875	8.1875	-2.8492007	0.20737909	0.3130719
1276878670895	-3.0237172	8.962189	1.7297841	-0.19125366	0.0	21.75	-48.6875	7.6875	-2.8549383	0.18088207	0.32539353
1276878670935	-3.255263	8.853226	2.4516625	-0.060523033	0.0	21.75	-48.9375	7.6875	-2.9743533	0.254284	0.3523486
1276878670975	-3.2961242	8.812365	2.1792557	-0.14894104	0.0	21.25	-48.9375	7.4375	-2.9993703	0.22760953	0.35792354
1276878671015	-3.2961242	8.62168	1.879608	-0.3869505	0.0	21.0	-49.1875	6.9375	-3.0246992	0.20088859	0.3651609
1276878671055	-3.1463003	8.812365	2.1111538	-0.2142601	0.0	21.25	-49.4375	7.1875	-2.963495	0.22190297	0.34292606
1276878671095	-2.9556155	8.580819	2.0294318	-0.50693417	0.0	21.25	-48.9375	7.1875	-2.9221015	0.21999542	0.331717
1276878671125	-2.8738933	8.812365	1.9477097	-0.33508205	0.0	22.0	-48.9375	7.1875	-2.8328214	0.2071151	0.31524506
1276878671155	-2.7921712	9.00305	2.1111538	-0.14703846	0.0	21.75	-48.9375	7.6875	-2.8244302	0.22033314	0.30072987
1276878671185	-2.6832085	8.962189	2.3018389	-0.1723938	0.0	21.75	-48.4375	7.9375	-2.8117833	0.24125586	0.29089898
1276878671225	-2.6423476	8.921328	2.0294318	-0.28348446	0.0	21.5	-48.6875	8.9375	-2.8141093	0.2147516	0.2879515
1276878671265	-2.6423476	9.00305	1.9885708	-0.2154398	0.0	21.25	-48.4375	8.9375	-2.8102822	0.20884755	0.28547803
1276878671305	-2.5333846	8.894087	2.070293	-0.3298931	0.0	21.75	-48.1875	9.4375	-2.7837133	0.22023614	0.27749044
1276878671345	-2.5333846	8.812365	1.9477097	-0.43278313	0.0	22.25	-48.1875	9.6875	-2.764487	0.2093057	0.27993196
1276878671385	-2.4516625	8.580819	1.7570249	-0.7111435	0.0	22.75	-48.4375	9.4375	-2.7269256	0.1943971	0.27829966
1276878671425	-2.9147544	8.962189	1.6889231	-0.23225307	0.0	22.5	-48.4375	9.9375	-2.818067	0.17732784	0.31443807
1276878671495	-2.7921712	8.539958	1.9477097	-0.61313725	0.0	22.5	-48.6875	9.6875	-2.848825	0.21347466	0.31599796
1276878671525	-2.6423476	8.390134	1.9885708	-0.7882929	0.0	22.25	-48.4375	9.6875	-2.8354597	0.22232968	0.30510178
1276878671555	-2.6423476	8.390134	1.7297841	-0.8418026	0.0	22.25	-47.9375	9.4375	-2.8029795	0.19416967	0.30510175
1276878671595	-3.0645783	9.152874	1.879608	0.026948929	0.0	22.5	-48.1875	9.4375	-2.839391	0.19232488	0.32308924
1276878671635	-3.5957718	9.915613	2.152015	0.9581127	0.0	22.25	-47.9375	9.4375	-2.9142344	0.20126903	0.34788838
1276878671665	-3.3642259	9.656827	2.1111538	0.63505936	0.0	22.0	-48.4375	9.1875	-2.9007816	0.20358817	0.33522907
1276878671705	-2.6832085	8.580819	1.879608	-0.62171745	0.0	21.75	-48.4375	9.1875	-2.8331518	0.20609629	0.30306563
1276878671745	-2.1792557	7.5865335	1.607201	-1.7513571	0.0	21.5	-48.4375	8.6875	-2.7749202	0.20086917	0.2797218
1276878671775	-2.4516625	8.853226	1.56634	-0.4876547	0.0	21.75	-48.6875	8.4375	-2.7073457	0.16888198	0.2701532
1276878671805	-2.9147544	9.697687	2.070293	0.52906704	0.0	21.5	-48.4375	7.9375	-2.7932875	0.20166895	0.29197213
1276878671835	-3.255263	9.997335	2.7240696	1.0544739	0.0	21.0	-48.6875	7.6875	-2.9092631	0.25351608	0.31478631
1276878671865	-3.0645783	10.378705	2.3426998	1.2657213	0.0	20.25	-48.6875	8.1875	-2.8547163	0.21319196	0.28711686
1276878671895	-2.8738933	9.724928	2.3699405	0.6072874	0.0	19.75	-48.6875	8.6875	-2.894195	0.2295855	0.28734002
1276878671925	-2.8738933	8.308413	2.5333846	-0.65749645	0.0	19.25	-49.1875	8.9375	-3.0507689	0.2805646	0.33301905
1276878671955	-1.8387469	7.4639506	1.3075534	-2.0091348	0.0	19.25	-49.6875	8.4375	-2.7644093	0.16848448	0.24154076
1276878671995	-1.9477097	8.049625	1.4573772	-1.3974895	0.0	19.75	-49.9375	7.4375	-2.718329	0.1741878	0.23740003
1276878672035	-2.7513103	9.302697	2.0294318	0.10437775	0.0	19.75	-50.4375	6.9375	-2.8874478	0.20622364	0.2875569
1276878672075	-2.3426998	9.425281	2.4516625	0.21007633	0.0	19.5	-50.9375	6.6875	-2.817149	0.2472689	0.24361812
1276878672115	-2.3018389	9.084772	2.4925237	-0.1090107	0.0	19.0	-50.9375	6.4375	-2.8559117	0.25994122	0.24815102
1276878672145	-2.1383946	8.539958	2.3699405	-0.68962	0.0	18.5	-51.1875	6.1875	-2.8732884	0.26296684	0.24535389
1276878672175	-1.9477097	8.499097	2.3018389	-0.7885189	0.0	18.0	-50.6875	5.1875	-2.8195913	0.25810176	0.22527678
1276878672215	-2.1111538	8.662541	2.3426998	-0.5879278	0.0	18.25	-50.4375	5.1875	-2.8394022	0.256942	0.2390506
1276878672255	-2.2609777	9.152874	2.6014864	-0.026320457	0.0	18.25	-50.4375	4.6875	-2.849666	0.2692325	0.24217558
1276878672295	-2.1792557	9.275456	3.1054392	0.21467686	0.0	18.0	-50.4375	4.6875	-2.863221	0.31507	0.23076327
1276878672335	-2.070293	9.112013	2.6014864	-0.10703087	0.0	18.0	-50.9375	4.6875	-2.8215318	0.27152926	0.223412
1276878672367	-2.0294318	8.894087	2.3699405	-0.3811531	0.0	17.5	-50.6875	3.9375	-2.8173819	0.25416708	0.22433689
1276878672405	-2.070293	8.853226	2.7649305	-0.30346298	0.0	17.25	-50.4375	4.4375	-2.8779213	0.29521725	0.22971822
1276878672445	-2.1111538	9.084772	2.9147544	-0.03496456	0.0	17.25	-50.4375	4.6875	-2.8821802	0.3028961	0.22833125
1276878672485	-1.6889231	8.962189	2.5333846	-0.34138107	0.0	17.0	-50.1875	4.4375	-2.7571266	0.27095377	0.1862654
1276878672525	-1.525479	8.430995	2.5333846	-0.87206554	0.0	17.25	-50.4375	4.9375	-2.7557218	0.28749204	0.1790004
1276878672565	-1.56634	8.471856	2.5333846	-0.82646084	0.0	17.25	-50.4375	4.6875	-2.7591631	0.2859908	0.18282296
1276878672605	-1.7297841	8.894087	2.4516625	-0.4200859	0.0	17.25	-50.1875	4.6875	-2.758701	0.26425326	0.19208899
1276878672635	-1.8387469	8.812365	2.6423476	-0.42471218	0.0	17.5	-50.1875	4.9375	-2.8037128	0.28550494	0.20570397
1276878672675	-1.7570249	8.894087	2.5606253	-0.38599682	0.0	17.25	-50.1875	4.6875	-2.7760577	0.27527305	0.19503847
1276878672705	-1.7570249	9.00305	2.6423476	-0.2607584	0.0	17.5	-50.6875	4.9375	-2.7749176	0.28046727	0.1927363
1276878672735	-1.8387469	8.962189	2.6423476	-0.28384495	0.0	17.25	-50.9375	4.9375	-2.81325	0.28116572	0.202359
1276878672775	-1.920469	9.043911	2.5333846	-0.22027588	0.0	17.0	-51.1875	5.1875	-2.838399	0.2674462	0.20924129
1276878672805	-1.920469	9.152874	2.5606253	-0.110253334	0.0	17.0	-51.1875	5.1875	-2.838399	0.2674462	0.20924129
1276878672845	-1.879608	9.193735	2.5333846	-0.086787224	0.0	16.75	-50.6875	5.1875	-2.8206832	0.263685	0.20166539
1276878672885	-1.8387469	8.962189	2.4925237	-0.3243246	0.0	16.75	-50.6875	5.1875	-2.8206832	0.263685	0.20166539
1276878672925	-1.8387469	8.62168	2.4925237	-0.64548016	0.0	17.25	-50.4375	5.4375	-2.8287485	0.27554855	0.21012214
1276878672965	-2.070293	8.580819	2.4516625	-0.6454706	0.0	17.5	-50.4375	5.6875	-2.884359	0.27091616	0.23674533
1276878673005	-2.2609777	8.689782	2.7921712	-0.40342999	0.0	18.0	-50.6875	5.9375	-2.9290802	0.30148417	0.25454423
1276878673045	-2.1111538	9.00305	2.6832085	-0.17796993	0.0	18.5	-50.6875	6.4375	-2.8455348	0.28240725	0.23033161
1276878673085	-2.1111538	9.234595	2.4108016	-0.03185177	0.0	18.75	-50.6875	6.6875	-2.8009624	0.24920584	0.22475123
1276878673125	-1.9477097	9.152874	2.5606253	-0.10482216	0.0	19.25	-50.4375	6.9375	-2.7601452	0.26709676	0.20967013
1276878673155	-2.070293	9.00305	2.6014864	-0.20932007	0.0	19.25	-50.1875	6.9375	-2.7995977	0.2744978	0.2260253
1276878673185	-2.2201166	9.084772	2.3699405	-0.1589241	0.0	19.25	-49.6875	7.1875	-2.8083603	0.24818769	0.23968023
1276878673225	-2.1792557	9.043911	2.070293	-0.27629948	0.0	19.0	-49.6875	7.1875	-2.787431	0.2189774	0.23645616
1276878673265	-2.2201166	9.152874	2.1792557	-0.13953209	0.0	18.75	-49.6875	7.4375	-2.8135905	0.22738408	0.23796368
1276878673305	-2.3699405	8.921328	2.3018389	-0.29323006	0.0	18.75	-49.4375	7.1875	-2.8726914	0.24438229	0.25965193
1276878673345	-2.3426998	8.921328	2.1792557	-0.3289137	0.0	18.75	-50.1875	6.1875	-2.8549173	0.23201005	0.2567976
1276878673375	-2.3426998	9.112013	2.2201166	-0.13990593	0.0	18.75	-50.1875	6.1875	-2.8549173	0.23201005	0.2567976
1276878673415	-2.3426998	8.894087	2.2201166	-0.345047	0.0	19.0	-49.6875	5.6875	-2.8330555	0.23685323	0.25754985
1276878673455	-2.1383946	8.921328	2.3699405	-0.3314495	0.0	19.5	-49.9375	5.6875	-2.769979	0.25280455	0.23525625
1276878673495	-2.2201166	8.921328	2.4108016	-0.30238914	0.0	19.75	-49.4375	6.4375	-2.788437	0.2564568	0.24390069
1276878673535	-2.3018389	9.00305	2.4925237	-0.18552494	0.0	20.25	-49.4375	6.4375	-2.787192	0.26205692	0.25031102
1276878673575	-2.2609777	8.921328	2.3018389	-0.31978703	0.0	20.0	-50.1875	7.1875	-2.8018658	0.24508044	0.24820909
1276878673615	-2.3699405	9.043911	2.3018389	-0.17818165	0.0	19.5	-50.1875	7.1875	-2.8403723	0.24140379	0.25628558
1276878673645	-2.2201166	8.894087	2.4108016	-0.32795525	0.0	19.25	-49.9375	6.6875	-2.8232698	0.25716415	0.2446183
1276878673675	-2.1792557	8.771504	2.4516625	-0.4418707	0.0	19.0	-49.9375	6.4375	-2.8333964	0.26488268	0.24351667
1276878673715	-2.2609777	8.730643	2.4516625	-0.46069908	0.0	19.0	-49.9375	6.1875	-2.8545966	0.26542923	0.25340337
1276878673755	-2.2201166	8.662541	2.6423476	-0.48192215	0.0	19.0	-49.6875	6.4375	-2.8621233	0.28730625	0.25088918
1276878673785	-2.2201166	8.812365	2.6423476	-0.34257698	0.0	19.5	-50.1875	6.9375	-2.8427286	0.28295848	0.24679619
1276878673815	-2.1792557	8.962189	2.4516625	-0.2630329	0.0	19.75	-50.4375	6.6875	-2.796783	0.25980315	0.23853177
1276878673845	-2.2201166	8.894087	2.4516625	-0.3174801	0.0	20.0	-50.1875	6.1875	-2.7907531	0.26132858	0.2446183
1276878673875	-2.3018389	8.894087	2.4516625	-0.298028	0.0	20.0	-50.6875	5.9375	-2.8151863	0.26078153	0.2532489
1276878673915	-2.3426998	9.00305	2.4108016	-0.19649315	0.0	19.75	-50.6875	5.1875	-2.8122334	0.25356832	0.25456643
1276878673955	-2.2609777	8.894087	2.4516625	-0.30783653	0.0	19.5	-50.6875	5.4375	-2.8189075	0.26105708	0.24893834
1276878673995	-2.3699405	8.771504	2.3426998	-0.42346573	0.0	19.5	-50.6875	5.6875	-2.8546975	0.25233945	0.2638855
1276878674055	-2.2609777	8.894087	2.5606253	-0.2791319	0.0	19.5	-50.4375	5.6875	-2.827247	0.27210647	0.24893834
1276878674095	-2.2201166	8.894087	2.4516625	-0.3174801	0.0	19.25	-50.4375	5.9375	-2.8228893	0.26132858	0.2446183
1276878674125	-2.1383946	8.853226	2.4516625	-0.37463093	0.0	19.0	-50.4375	6.1875	-2.8198056	0.26294947	0.23699915
1276878674155	-2.1383946	8.853226	2.3426998	-0.40236473	0.0	18.75	-50.6875	6.1875	-2.8258579	0.25176096	0.23699915
1276878674186	-2.1792557	8.894087	2.3018389	-0.3645954	0.0	18.75	-50.6875	6.4375	-2.833675	0.24626754	0.24028896
1276878674225	-2.1111538	8.771504	2.2201166	-0.5155153	0.0	19.0	-50.4375	6.1875	-2.800456	0.24128439	0.23619089
1276878674265	-2.3426998	8.853226	2.3426998	-0.35381508	0.0	19.0	-50.1875	6.1875	-2.8615158	0.25044012	0.25868633
1276878674305	-2.1792557	9.112013	2.3018389	-0.1590395	0.0	18.75	-49.6875	6.1875	-2.7965267	0.2409153	0.23475334
1276878674345	-2.1792557	9.043911	2.1792557	-0.25203705	0.0	19.0	-49.6875	6.4375	-2.7843149	0.23010951	0.23645616
1276878674375	-2.1383946	8.853226	2.1111538	-0.4573555	0.0	18.75	-50.1875	6.9375	-2.8109307	0.2277733	0.23699915
1276878674415	-2.1792557	8.689782	1.9885708	-0.6297293	0.0	18.75	-50.4375	6.6875	-2.8258905	0.21842529	0.24571614
1276878674455	-2.1383946	8.689782	2.1792557	-0.59610176	0.0	19.0	-50.9375	6.6875	-2.8267205	0.23886947	0.24128728
1276878674495	-2.3699405	8.812365	2.152015	-0.43085384	0.0	18.75	-51.4375	6.4375	-2.8940165	0.2315935	0.26271757
1276878674535	-2.8738933	9.00305	2.2609777	-0.089336395	0.0	19.5	-50.6875	6.1875	-2.9734576	0.23482746	0.30898914
1276878674745	-3.0237172	8.62168	2.3426998	-0.37455177	0.0	19.75	-50.1875	6.4375	-3.038625	0.25100258	0.337308
1276878674785	-2.9556155	8.771504	2.4516625	-0.23139	0.0	20.25	-49.9375	6.1875	-2.9788208	0.2589248	0.32500786
1276878674815	-2.7513103	8.580819	2.3426998	-0.49598885	0.0	20.5	-48.9375	5.9375	-2.9056473	0.2543483	0.31027877
1276878674845	-2.7513103	8.662541	2.3426998	-0.420619	0.0	20.0	-48.9375	5.9375	-2.9205365	0.25226125	0.3075335
1276878674875	-2.6832085	8.689782	2.4516625	-0.3873844	0.0	20.0	-48.6875	5.9375	-2.9014251	0.26331395	0.2994899
1276878674915	-2.7240696	8.730643	2.4108016	-0.3484974	0.0	19.75	-48.4375	5.9375	-2.9130154	0.25773534	0.30244064
1276878674955	-2.7513103	8.730643	2.3699405	-0.35093975	0.0	20.0	-48.6875	6.1875	-2.9135127	0.25333706	0.30528146
1276878674995	-2.8330324	8.812365	2.3699405	-0.25152302	0.0	20.0	-48.6875	6.6875	-2.9323628	0.25064427	0.31104833
1276878675035	-2.8330324	8.894087	2.4108016	-0.16596508	0.0	20.25	-49.1875	6.9375	-2.9263842	0.25274777	0.3083688
1276878675075	-2.7240696	8.771504	2.2201166	-0.35737705	0.0	20.75	-49.1875	7.1875	-2.8792477	0.23716821	0.30111557
1276878675115	-2.7921712	8.853226	2.1792557	-0.27119064	0.0	20.75	-49.6875	7.4375	-2.8980675	0.23058008	0.30551067
1276878675155	-2.7513103	9.00305	2.1792557	-0.14363956	0.0	21.0	-49.6875	7.4375	-2.8616633	0.22748244	0.29658425
1276878675195	-2.6832085	8.853226	2.1111538	-0.3179102	0.0	21.0	-49.4375	7.1875	-2.8457088	0.22436818	0.29427725
1276878675228	-2.4516625	8.730643	2.0294318	-0.513999	0.0	20.5	-49.6875	6.9375	-2.8120077	0.22016542	0.27376077
1276878675265	-2.4516625	8.730643	1.920469	-0.5371847	0.0	20.0	-49.1875	6.9375	-2.8172534	0.20869388	0.27376077
1276878675325	-2.1792557	9.084772	2.1111538	-0.22859192	0.0	19.5	-49.6875	6.9375	-2.760893	0.22224058	0.23543157
1276878675355	-2.1792557	9.193735	1.920469	-0.16496372	0.0	19.0	-49.6875	8.4375	-2.7833726	0.2005251	0.2327415
1276878675395	-1.879608	9.575105	1.6889231	0.0962801	0.0	19.5	-49.1875	10.1875	-2.66932	0.1713856	0.19383687
1276878675435	-1.9477097	10.119919	1.0351465	0.5508518	0.0	21.0	-48.9375	11.1875	-2.5332956	0.10010885	0.19013803
1276878675475	-2.4108016	7.9270425	1.0351465	-1.4567108	0.0	23.25	-47.9375	10.9375	-2.6961932	0.1242903	0.29523572
1276878675515	-5.284695	9.084772	0.88532263	0.7406187	0.0	26.0625	-47.1875	8.9375	3.052562	0.08403745	0.5268618
1276878675555	-4.2904096	10.18802	1.920469	1.4134912	0.0	28.3125	-46.4375	5.9375	-2.6495526	0.17200962	0.39858222
1276878675595	-5.434519	9.80665	0.7627395	1.4310608	0.0	30.0625	-45.4375	2.6875	-2.550831	0.06792542	0.5060366
1276878675635	-4.2086873	9.043911	3.405087	0.73374844	0.0	32.0625	-43.9375	-0.3125	-2.5854719	0.32895166	0.43555483
1276878675675	-3.405087	7.7772183	4.7126403	-0.09641266	0.0	34.5625	-41.6875	-2.8125	-2.561531	0.5067371	0.41268605
1276878675715	-4.4810944	5.6660647	3.568531	-1.749423	0.0	37.625	-38.9375	-4.8125	-2.8740933	0.4588286	0.6691462
1276878675745	-3.9090397	3.6774938	5.7886477	-1.9127922	0.0	40.875	-34.875	-7.3125	-3.0659266	0.82317823	0.8159093
1276878675775	-4.399372	4.9850473	3.3778462	-2.349103	0.0	43.125	-30.875	-8.8125	-2.4883156	0.47006398	0.7230697
1276878675805	-5.09401	5.366417	3.718355	-1.5257368	0.0	45.1875	-27.875	-9.8125	-2.381202	0.46567625	0.7593624
1276878675835	-5.8567495	5.09401	4.5219555	-0.82341385	0.0	46.6875	-24.875	-10.3125	-2.533116	0.5275027	0.8549376
1276878675865	-6.0474343	4.944186	3.5276701	-1.2357168	0.0	47.9375	-23.125	-9.3125	-2.370976	0.42419285	0.88543487
1276878675905	-5.5571017	6.5922484	3.6774938	-0.43311882	0.0	48.6875	-22.125	-8.5625	-2.020037	0.4031606	0.7004016
1276878675945	-7.205164	7.9270425	7.43671	3.233942	0.0	48.9375	-20.125	-9.8125	-2.2734323	0.6068393	0.73772955
1276878675985	-13.6748295	12.340035	1.7570249	8.696445	0.0	48.6875	-19.125	-11.3125	-1.2261363	0.095101714	0.8366621
1276878676025	-19.231932	15.363752	-1.3075534	14.843336	0.0	47.6875	-17.625	-14.625	-0.75011766	-0.053069703	0.8967467
1276878676065	-9.915613	14.369467	-0.08172209	7.652092	0.0	47.6875	-12.3125	-17.125	-1.0785401	-0.0046808864	0.6040151
1276878676105	-11.9450445	11.413852	4.099725	7.2159176	0.0	46.6875	-5.5625	-18.375	-1.2693177	0.24323182	0.80813473
1276878676135	-7.4639506	9.343558	5.366417	3.3010216	0.0	44.625	4.1875	-19.125	-1.3762432	0.42180768	0.67402947
1276878676165	2.3018389	5.5162406	2.4516625	-3.3461528	0.0	41.125	15.75	-18.625	-0.83696604	0.3892397	-0.39531702
1276878676196	8.471856	0.8036005	-0.23154591	-1.2936172	0.0	33.5625	25.0	-18.875	0.8816294	-0.027202345	-1.476224
1276878676235	8.689782	0.50395286	-0.61291564	-1.0807152	0.0	25.3125	32.25	-19.375	1.0550721	-0.07029857	-1.5128675
1276878676275	8.812365	3.6774938	0.53119355	-0.24297428	0.0	14.4375	36.25	-21.875	0.87369406	0.055571422	-1.1754565
1276878676315	11.073342	0.7627395	-1.1168685	1.34898	0.0	3.125	36.0	-25.625	0.96107984	-0.10028503	-1.5020243
1276878676345	2.1792557	10.378705	4.862464	1.8599787	0.0	-4.625	31.5	-31.375	0.2622725	0.4299045	-0.20696706
1276878676375	1.56634	16.276316	18.087822	14.576565	0.0	-12.1875	22.5	-37.125	0.3380174	0.835772	-0.095938876
1276878676415	2.5333846	7.8589406	19.313654	11.198069	0.0	-16.5	12.75	-41.4375	0.71062964	1.1667842	-0.31183955
1276878676455	-1.0351465	0.6537767	10.501288	0.7657671	0.0	-16.5	6.6875	-44.4375	0.13908339	1.4547328	1.00748
1276878676495	-0.6537767	-3.5957718	-0.95342433	-6.029612	0.0	-17.0	4.4375	-44.6875	-0.3822793	-0.2551871	2.961739
1276878676535	2.5606253	-1.6889231	9.425281	0.105220795	0.0	-16.75	5.4375	-44.4375	-2.042783	1.2561578	-2.153873
1276878676575	3.3778462	-1.1168685	14.015338	4.6531887	0.0	-16.0	7.1875	-43.9375	2.8544972	1.3222035	-1.8901256
1276878676615	0.14982383	-1.9477097	8.430995	-1.1523046	0.0	-16.5	7.1875	-43.9375	-1.4640734	1.3431137	-3.0648208
1276878676655	-0.6946377	-2.1792557	7.1234417	-2.3249993	0.0	-16.25	6.6875	-43.9375	-0.96757025	1.2601025	2.833024
1276878676695	0.3405087	-1.3756552	8.390134	-1.2976713	0.0	-16.0	5.9375	-44.1875	-1.7195903	1.4034666	-2.898945
1276878676728	0.23154591	-0.7627395	10.310603	0.53471947	0.0	-15.5	5.4375	-44.9375	-2.0091891	1.4936403	-2.8468626
1276878676765	-0.9125633	-0.23154591	10.18802	0.42477798	0.0	-14.9375	4.4375	-45.4375	-0.42734033	1.478648	1.8192837
1276878676795	-0.3405087	0.46309182	11.686258	1.8937359	0.0	-14.9375	2.6875	-45.9375	0.66716963	1.5216494	0.6340228
1276878676825	1.3756552	1.1849703	13.6748295	3.9881878	0.0	-14.6875	0.9375	-46.1875	1.9701937	1.4387954	-0.85972905
1276878676855	1.9885708	0.95342433	14.137921	4.5022373	0.0	-14.6875	-0.0625	-46.1875	2.3318164	1.4160569	-1.1237218
1276878676895	0.14982383	-0.040861044	3.718355	-6.0850534	0.0	-14.9375	-0.5625	-45.9375	-2.7936838	1.5290545	-1.8370484
1276878676935	-1.4573772	-0.08172209	12.217452	2.4976892	0.0	-15.75	-2.0625	-45.9375	0.055540405	1.4518857	1.6268125
1276878676965	0.61291564	-0.50395286	10.501288	0.7245741	0.0	-16.75	-3.0625	-45.6875	-2.095078	1.4953781	-2.2589412
1276878677005	1.2258313	-0.29964766	10.079058	0.35109806	0.0	-17.25	-4.8125	-44.9375	-2.417106	1.4462425	-1.8105395
1276878677045	2.3699405	-0.42223078	10.732834	1.192833	0.0	-18.0	-7.3125	-44.4375	-2.1183434	1.3501583	-1.7471074
1276878677085	0.08172209	0.5720546	10.923519	1.132143	0.0	-17.75	-8.8125	-44.4375	2.0685484	1.517944	-0.14189705
1276878677125	0.53119355	1.1168685	10.991621	1.2543306	0.0	-16.5	-10.8125	-43.9375	2.4274333	1.4587493	-0.44394574
1276878677165	0.9942854	3.1054392	9.656827	0.38583088	0.0	-15.75	-13.875	-43.6875	1.8505375	1.2451563	-0.30986208
1276878677195	-0.6537767	7.668256	10.079058	2.874713	0.0	-13.6875	-19.375	-41.6875	0.9521539	0.9186663	0.08505187
1276878677228	-0.38136974	8.853226	7.3141265	1.6834097	0.0	-11.6875	-25.625	-38.1875	0.7589274	0.6900312	0.043050308
1276878677265	-1.1168685	9.234595	6.2108784	1.3781681	0.0	-10.1875	-31.625	-34.625	0.85732687	0.5887181	0.120359376
1276878677305	-1.2258313	8.771504	5.325556	0.5279274	0.0	-8.6875	-37.125	-31.125	1.0249623	0.5413744	0.13885225
1276878677345	-1.0760075	7.6273947	5.597963	-0.28445816	0.0	-8.1875	-40.1875	-28.875	1.5244344	0.62844294	0.14014663
1276878677375	-1.3075534	6.742072	5.6252036	-0.92925453	0.0	-7.9375	-42.1875	-27.625	1.8133032	0.6862683	0.19156133
1276878677415	0.5720546	4.9850473	6.2108784	-1.8221054	0.0	-8.1875	-43.1875	-27.375	2.9538338	0.8912574	-0.114254326
1276878677455	0.38136974	4.5219555	5.9793324	-2.3002567	0.0	-8.1875	-43.6875	-26.625	2.9111853	0.92159224	-0.08413824
1276878677485	1.0760075	6.3198414	3.255263	-2.6167321	0.0	-10.25	-41.8125	-27.375	0.55599225	0.46985146	-0.1686415
1276878677525	0.38136974	5.8567495	5.47538	-1.7800226	0.0	-12.25	-41.5625	-26.375	2.3575525	0.75070167	-0.06502448
1276878677565	-1.3756552	7.273266	3.5957718	-1.5772886	0.0	-13.5	-41.5625	-24.875	1.3088667	0.4521986	0.1869304
1276878677605	-0.42223078	8.308413	2.1792557	-1.2068157	0.0	-13.75	-41.375	-23.5	0.9048661	0.25620028	0.05077599
1276878677645	-1.7570249	9.466142	0.9942854	-0.1276226	0.0	-12.0625	-42.1875	-20.9375	0.8613714	0.10290729	0.18352298
1276878677685	-2.7240696	10.95076	-1.4982382	1.5768652	0.0	-8.0625	-44.1875	-17.4375	0.68414104	-0.13199769	0.24380772
1276878677729	-3.336985	10.760075	-4.140586	2.1958132	0.0	-4.5	-46.1875	-12.125	0.60250413	-0.35221535	0.30072117
1276878677765	-2.4108016	9.384419	-5.243834	1.2104769	0.0	-3.625	-48.0625	-5.75	0.5237561	-0.49606788	0.2514566
1276878677795	-1.3075534	9.084772	-4.1814466	0.2793436	0.0	-4.125	-48.5625	0.25	0.5146058	-0.42748073	0.14294638
1276878677825	-1.8387469	8.921328	-4.099725	0.18228531	0.0	-5.6875	-48.375	5.1875	0.82228464	-0.4229218	0.2032606
1276878677855	-1.56634	8.430995	-4.140586	-0.28406906	0.0	-6.6875	-47.625	8.1875	0.8866889	-0.4498357	0.18368927
1276878677895	-1.4165162	8.390134	-4.903325	0.013913155	0.0	-6.9375	-47.125	9.6875	0.80114144	-0.522781	0.16725396
1276878677935	-1.3075534	8.281172	-4.5219555	-0.28112793	0.0	-7.4375	-46.625	10.1875	0.8694719	-0.49464583	0.15660188
1276878677975	-0.53119355	8.240311	-3.759216	-0.7338009	0.0	-8.0625	-46.1875	11.75	0.9316114	-0.42721406	0.06437374
1276878678015	-0.61291564	7.504812	-4.2904096	-1.1403084	0.0	-8.5625	-46.1875	12.25	0.8058244	-0.5179106	0.08148883
1276878678055	-0.5720546	8.240311	-3.2961242	-0.913147	0.0	-9.3125	-45.6875	13.0625	1.2225897	-0.3796782	0.069310285
1276878678095	-0.9942854	8.689782	-2.8330324	-0.6127939	0.0	-10.0625	-45.9375	13.3125	1.5021489	-0.31324154	0.11392462
1276878678125	-0.6946377	8.962189	-4.5219555	0.2557268	0.0	-10.0625	-45.9375	12.5625	0.98506904	-0.46608505	0.07735294
1276878678155	0.61291564	9.043911	-4.440233	0.28709412	0.0	-9.8125	-46.6875	12.0	0.58540237	-0.4554868	-0.06766761
1276878678195	0.19068487	8.240311	-5.407278	0.051226616	0.0	-10.0625	-47.1875	11.0	0.4901688	-0.58059746	-0.023136366
1276878678225	-0.6537767	8.158588	-4.399372	-0.5144787	0.0	-10.3125	-46.9375	9.75	0.8168294	-0.49320272	0.07996269
1276878678265	-1.56634	8.158588	-2.982856	-0.9797926	0.0	-11.5625	-47.1875	8.75	1.2518286	-0.34471616	0.18967867
1276878678305	-0.9125633	9.193735	-3.5276701	0.08283901	0.0	-12.9375	-46.9375	7.25	1.0766972	-0.36474282	0.098935194
1276878678345	-0.0	8.308413	-4.5628166	-0.32777786	0.0	-13.6875	-46.6875	6.25	0.67799854	-0.50221366	0.0
1276878678375	1.6889231	8.008764	-4.372132	-0.527194	0.0	-13.6875	-46.6875	4.75	0.1987426	-0.49060827	-0.20783904
1276878678415	3.405087	8.390134	-3.636633	-0.048880577	0.0	-12.6875	-46.6875	3.75	-0.38243958	-0.38190725	-0.38553432
1276878678455	1.0760075	9.302697	-3.8273177	0.3099861	0.0	-11.9375	-46.6875	3.25	0.40720993	-0.38797987	-0.115154475
1276878678495	0.08172209	10.119919	-4.7535014	1.3743696	0.0	-11.4375	-46.9375	2.75	0.5634227	-0.43911684	-0.008075194
1276878678536	0.27240697	8.921328	-4.399372	0.14416695	0.0	-11.1875	-46.9375	3.25	0.4969294	-0.45795155	-0.03052487
1276878678586	0.7218784	8.076866	-3.568531	-0.9471197	0.0	-11.1875	-47.4375	3.5	0.40305805	-0.41456312	-0.0891392
1276878678615	-0.27240697	8.962189	-3.759216	-0.08416462	0.0	-10.9375	-47.1875	4.25	0.7168663	-0.3969982	0.030385785
1276878678645	0.14982383	8.499097	-3.486809	-0.6188898	0.0	-10.6875	-47.1875	4.75	0.6276554	-0.38926217	-0.01762638
1276878678675	0.7218784	8.349273	-3.7864566	-0.6105242	0.0	-10.1875	-47.4375	5.0	0.37811416	-0.42436782	-0.08624555
1276878678705	0.61291564	8.662541	-4.5900574	0.015972137	0.0	-10.1875	-47.4375	6.0	0.37832633	-0.4862281	-0.070636995
1276878678735	0.3405087	9.466142	-4.944186	0.8783283	0.0	-10.1875	-47.6875	6.5	0.4751068	-0.4810645	-0.035955723
1276878678765	0.10896278	8.689782	-4.440233	-0.04755974	0.0	-9.4375	-47.9375	7.0	0.5145327	-0.47235462	-0.012538528
1276878678795	0.46309182	7.8180795	-3.718355	-1.1369915	0.0	-8.9375	-47.6875	7.25	0.40858206	-0.44326687	-0.059164323
1276878678825	0.040861044	8.349273	-3.6774938	-0.68327427	0.0	-7.9375	-47.6875	7.0	0.5407169	-0.4148851	-0.0048939255
1276878678855	-0.61291564	8.499097	-3.759216	-0.49311066	0.0	-6.6875	-47.6875	6.75	0.6669745	-0.41548002	0.07199075
1276878678895	-0.5720546	8.158588	-3.9771416	-0.712286	0.0	-6.125	-48.0	6.5	0.5658237	-0.45261574	0.07000229
1276878678935	-0.42223078	8.62168	-3.9771416	-0.30247688	0.0	-5.625	-48.75	5.75	0.48905098	-0.431752	0.04893405
1276878678975	-0.040861044	8.921328	-3.3642259	-0.27198887	0.0	-5.125	-48.5	4.25	0.38679454	-0.36060637	0.0045801206
1276878679015	-0.46309182	9.275456	-3.5276701	0.12778568	0.0	-5.375	-48.75	3.75	0.5178878	-0.36301586	0.04988516
1276878679055	-0.42223078	9.152874	-3.255263	-0.082962036	0.0	-4.5625	-48.5	2.75	0.46445987	-0.3413681	0.046098266
1276878679095	0.50395286	9.847511	-3.9771416	0.82561684	0.0	-4.3125	-47.625	2.375	0.118941166	-0.3833866	-0.05113105
1276878679165	-0.0	10.337844	-4.7943625	1.5888281	0.0	-4.4375	-47.9375	2.8125	0.24675371	-0.43424436	0.0
1276878679205	0.040861044	9.724928	-4.671779	0.98229885	0.0	-5.125	-47.4375	4.0625	0.28378594	-0.4478352	-0.004201656
1276878679235	0.92618364	12.026767	-4.2495484	2.9823923	0.0	-7.125	-47.1875	6.5625	0.34699398	-0.33872035	-0.07685849
1276878679275	2.070293	17.965239	-3.8273177	8.678053	0.0	-9.625	-46.625	10.125	1.5914024	-0.20856197	-0.11473272
1276878679315	-3.2961242	19.57244	-4.7126403	10.593199	0.0	-12.9375	-44.4375	15.25	1.8239995	-0.23311922	0.16684093
1276878679355	-3.214402	14.750836	-0.7627395	5.3096104	0.0	-16.125	-41.3125	20.5	2.2194088	-0.050479647	0.21455897
1276878679395	2.8738933	2.7649305	-3.9090397	-4.2223244	0.0	-19.875	-36.25	25.5	-0.9195333	-0.7754004	-0.80471945
1276878679435	2.2609777	-5.243834	-3.0645783	-3.325797	0.0	-23.875	-30.75	29.25	-2.3642914	-0.49254113	-2.7345085
1276878679475	1.7297841	-7.9270425	-5.47538	-0.018395424	0.0	-27.1875	-26.25	31.25	-2.4261787	-0.5936408	-2.9267473
1276878679515	-1.1441092	-3.0237172	-12.108489	2.7260017	0.0	-30.4375	-23.5	30.5	-2.6699548	-1.3098855	2.7798634
1276878679555	-0.8036005	-2.070293	-11.604536	2.0084734	0.0	-33.6875	-21.0	29.0	-2.565559	-1.3817102	2.7713366
1276878679595	0.6537767	-1.56634	-5.5571017	-3.9961228	0.0	-35.5	-20.25	28.5	-1.8836362	-1.2743654	-2.746184
1276878679635	3.8681788	1.7978859	-6.932757	-1.666729	0.0	-36.5	-20.25	27.0	-0.13889225	-1.0192176	-1.1357124
1276878679675	5.407278	5.053149	-7.6954966	0.87013054	0.0	-36.25	-20.5	26.5	0.73508906	-0.80491155	-0.8192394
1276878679705	3.990762	6.3607025	-6.0201936	-0.1823349	0.0	-35.25	-22.5	26.25	1.3960729	-0.67579675	-0.56032974
1276878679735	4.2495484	6.1291566	-6.6331096	0.17450047	0.0	-34.4375	-24.25	26.0	1.1286978	-0.7269097	-0.60623765
1276878679775	2.6014864	3.6774938	-8.267551	-0.39155006	0.0	-32.9375	-25.75	26.5	0.4908925	-1.0719105	-0.6156801
1276878679805	1.2666923	2.4516625	-5.6252036	-3.5410237	0.0	-31.4375	-26.75	27.0	0.6098555	-1.1147208	-0.47689188
1276878679835	2.070293	3.8681788	-5.09401	-3.083715	0.0	-29.9375	-27.75	27.0	0.85263294	-0.85979104	-0.49141824
1276878679865	2.6832085	4.862464	-7.4639506	-0.5032244	0.0	-27.9375	-29.5	26.5	0.5755817	-0.93110454	-0.50424004
1276878679905	0.08172209	3.7864566	-7.8861814	-1.058177	0.0	-26.4375	-31.5	25.0	0.958669	-1.1230732	-0.021579387
1276878679945	-0.46309182	4.4810944	-3.5276701	-4.0848393	0.0	-23.875	-34.25	23.5	1.534548	-0.6643282	0.1029779
1276878679985	4.372132	8.771504	-6.2108784	1.79636	0.0	-20.875	-37.5	20.5	0.33383578	-0.56484115	-0.4624046
1276878680025	1.7978859	7.5456724	-8.771504	1.9026985	0.0	-18.125	-40.5625	16.75	0.36389562	-0.84670657	-0.23390587
1276878680065	-1.1168685	8.008764	-5.7477865	0.11427498	0.0	-14.0625	-43.5625	14.25	1.0197654	-0.6179432	0.13856216
1276878680105	0.3405087	9.302697	-4.2904096	0.44340992	0.0	-10.0625	-45.8125	11.1875	0.7411283	-0.4318747	-0.03658689
1276878680135	-1.607201	8.499097	-5.597963	0.49650097	0.0	-6.3125	-47.3125	8.9375	0.7193428	-0.57439303	0.18689564
1276878680175	-4.8216033	9.724928	-4.440233	1.9209986	0.0	-2.5	-48.3125	7.9375	1.2219229	-0.38829663	0.46028066
1276878680205	-4.671779	11.836082	-2.4108016	3.1444244	0.0	0.5	-48.3125	6.1875	1.437278	-0.18723898	0.37593472
1276878680235	-1.56634	11.836082	-0.14982383	2.133564	0.0	2.5	-48.5625	4.1875	2.3142383	-0.0125481635	0.1315715
1276878680275	-2.3426998	9.697687	1.0351465	0.22354984	0.0	4.25	-48.5625	2.6875	2.3813634	0.10338706	0.23703182
1276878680315	-4.3312707	9.084772	0.313268	0.26266575	0.0	6.0625	-48.5625	0.6875	1.7081354	0.031116173	0.4448847
1276878680355	-4.2904096	9.575105	0.5720546	0.70132256	0.0	7.3125	-48.5625	0.1875	1.7773465	0.05446698	0.42125583
1276878680395	-3.6774938	10.038197	-0.29964766	0.88816833	0.0	9.0625	-48.5625	0.1875	1.428099	-0.02802169	0.35116568
1276878680445	-3.255263	10.269742	-3.8273177	1.6263161	0.0	11.5625	-47.8125	1.4375	0.22343747	-0.34135216	0.30695754
1276878680485	-3.718355	9.302697	-2.3426998	0.48191547	0.0	14.0625	-46.5625	3.1875	0.48944777	-0.22971432	0.38025394
1276878680525	-2.982856	8.853226	-1.6889231	-0.312994	0.0	17.625	-45.5625	4.1875	-0.44131702	-0.17885219	0.32497784
1276878680565	-3.759216	9.00305	-2.9556155	0.387578	0.0	19.875	-44.0625	5.6875	-0.15776709	-0.294154	0.39554286
1276878680605	-4.862464	9.724928	-3.405087	1.586874	0.0	20.875	-43.3125	7.1875	0.09279171	-0.30349952	0.4636476
1276878680653	-5.9793324	8.730643	-3.9771416	1.4979601	0.0	21.125	-43.3125	8.6875	0.68404794	-0.35951033	0.6004974
1276878680685	-5.706926	6.5513873	-5.938472	0.71737576	0.0	20.375	-43.3125	9.4375	0.62365377	-0.59955794	0.716618
1276878680715	-4.903325	5.9793324	-6.3198414	0.18011189	0.0	20.125	-43.5625	10.4375	0.51503366	-0.6851922	0.6868449
1276878680745	-4.7126403	5.6660647	-6.2789803	-0.1247673	0.0	19.875	-43.5625	10.9375	0.5264917	-0.7056501	0.69379175
1276878680785	-4.8216033	4.8216033	-5.9793324	-0.7375746	0.0	20.125	-43.5625	10.9375	0.6574261	-0.7199007	0.7853982
1276878680815	-4.630918	4.4810944	-5.202973	-1.5243473	0.0	19.875	-43.3125	11.1875	0.73382384	-0.67924225	0.8018391
1276878680845	-4.8216033	4.7943625	-5.202973	-1.244834	0.0	19.875	-43.3125	10.9375	0.7359798	-0.6531549	0.7882311
1276878680875	-4.903325	5.243834	-6.4015636	-0.18789673	0.0	19.875	-43.3125	10.4375	0.59415543	-0.72820294	0.7518537
1276878680915	-5.134871	6.238119	-6.8237944	0.76903915	0.0	19.625	-43.5625	10.4375	0.52227163	-0.7013295	0.6886947
1276878680955	-5.5162406	7.7363577	-7.04172	2.019844	0.0	19.375	-44.0625	11.4375	0.4792309	-0.6377871	0.61941624
1276878680995	-4.944186	7.8861814	-5.938472	1.2342863	0.0	18.375	-44.0625	12.75	0.49318442	-0.56789595	0.55999535
1276878681035	-3.9771416	6.238119	-4.7535014	-1.0130415	0.0	17.375	-44.5625	14.0	0.6006586	-0.57110643	0.56757647
1276878681075	-3.255263	5.284695	-3.9771416	-2.4349203	0.0	17.125	-44.3125	14.25	0.58050513	-0.56985825	0.55208623
1276878681115	-3.405087	5.243834	-3.5957718	-2.5940232	0.0	16.875	-44.3125	13.5	0.7187723	-0.5219119	0.5759186
1276878681145	-4.4810944	6.2108784	-3.718355	-1.2930508	0.0	16.625	-44.8125	12.4375	0.9592406	-0.451988	0.6250045
1276878681175	-4.7943625	7.4639506	-3.5957718	-0.23450089	0.0	16.875	-45.3125	11.1875	0.94869244	-0.38509735	0.57096845
1276878681205	-4.903325	8.308413	-3.7864566	0.55720806	0.0	16.375	-46.0625	10.6875	0.8870821	-0.37401095	0.5331557
1276878681245	-5.366417	8.390134	-4.0588636	0.94821644	0.0	15.625	-46.5625	10.1875	0.94898784	-0.38698474	0.5690368
1276878681285	-5.325556	7.8861814	-3.9499009	0.4965105	0.0	14.8125	-46.8125	9.1875	0.9688335	-0.39344007	0.59395725
1276878681325	-4.862464	7.6954966	-4.3312707	0.27422905	0.0	13.8125	-47.3125	8.4375	0.81804055	-0.44410744	0.56351596
1276878681355	-4.671779	7.668256	-4.5628166	0.26543808	0.0	12.8125	-47.3125	8.1875	0.77274597	-0.47014543	0.5471832
1276878681385	-4.5900574	7.205164	-4.5219555	-0.14067364	0.0	12.0625	-47.3125	8.1875	0.81176776	-0.48682475	0.56721836
1276878681425	-4.5219555	6.5513873	-4.903325	-0.45724583	0.0	11.8125	-47.3125	7.6875	0.7784411	-0.5520728	0.6041379
1276878681465	-3.9499009	6.3198414	-5.175732	-0.7330446	0.0	11.0625	-47.5625	7.9375	0.67356926	-0.60701257	0.5585993
1276878681505	-4.372132	6.891896	-4.3312707	-0.56686306	0.0	10.8125	-48.0625	7.6875	0.83816004	-0.48788992	0.5653213
1276878681545	-4.630918	6.851035	-3.8273177	-0.69454575	0.0	10.8125	-48.5625	7.1875	0.95444936	-0.4334736	0.5943981
1276878681585	-4.140586	6.851035	-3.336985	-1.1338997	0.0	11.0625	-48.8125	6.9375	0.9258039	-0.39495498	0.5436293
1276878681625	-3.5276701	7.6273947	-2.9556155	-0.8983803	0.0	12.0625	-48.5625	5.9375	0.7226437	-0.3381934	0.43320018
1276878681665	-3.7864566	8.117727	-2.3699405	-0.541049	0.0	12.8125	-48.5625	4.4375	0.8180756	-0.25865278	0.43644342
1276878681695	-3.568531	8.158588	-2.1383946	-0.6486101	0.0	13.8125	-48.0625	3.4375	0.6762196	-0.23567477	0.41232282
1276878681726	-3.0645783	8.281172	-1.9885708	-0.7554703	0.0	14.8125	-47.8125	2.4375	0.30433488	-0.22150996	0.35443777
1276878681765	-3.255263	8.539958	-2.1792557	-0.4110775	0.0	15.625	-47.8125	2.1875	0.24974136	-0.2340767	0.36417788
1276878681805	-4.2495484	9.084772	-2.5333846	0.53790283	0.0	16.125	-47.0625	1.6875	0.47094893	-0.24741691	0.43752962
1276878681835	-4.099725	9.534244	-2.8330324	0.95139885	0.0	16.625	-46.8125	1.4375	0.2692219	-0.26648355	0.40609807
1276878681865	-4.2904096	9.888372	-2.6423476	1.2915268	0.0	16.375	-47.0625	1.6875	0.34914234	-0.2403972	0.4093716
1276878681895	-4.2904096	9.384419	-2.5606253	0.82498837	0.0	16.125	-46.8125	1.6875	0.4386104	-0.24324106	0.42881233
1276878681925	-3.9499009	8.349273	-2.7240696	-0.17687225	0.0	16.375	-47.5625	1.6875	0.41630057	-0.28679523	0.44188324
1276878681955	-3.718355	7.8861814	-2.9147544	-0.61351013	0.0	16.125	-48.0625	1.9375	0.3963863	-0.32262534	0.44059092
1276878681995	-4.099725	8.049625	-2.9556155	-0.3019209	0.0	16.375	-47.8125	1.9375	0.47803137	-0.3162057	0.4710649
1276878682035	-3.9771416	8.158588	-2.6014864	-0.36483097	0.0	16.375	-48.0625	1.6875	0.47738528	-0.279139	0.45358083
1276878682075	-4.5219555	7.8861814	-3.0237172	-0.2263155	0.0	15.875	-47.8125	1.6875	0.6214077	-0.3211069	0.52063286
1276878682115	-4.2495484	7.6273947	-2.7240696	-0.66026497	0.0	15.875	-48.0625	0.9375	0.60035753	-0.30241886	0.5083106
1276878682155	-3.0645783	7.668256	-2.3699405	-1.215352	0.0	15.875	-48.3125	0.4375	0.230559	-0.27947766	0.38020012
1276878682185	-2.4925237	7.246025	-2.7513103	-1.6649513	0.0	16.625	-47.5625	-0.5625	-0.014230829	-0.34471482	0.33130622
1276878682215	-4.099725	6.3607025	-2.4108016	-1.8644686	0.0	17.625	-47.0625	-1.8125	0.57089096	-0.30840993	0.57252705
1276878682255	-5.175732	6.4424243	-2.1383946	-1.2705059	0.0	18.625	-46.5625	-3.3125	0.76598275	-0.25320765	0.67680013
1276878682295	-6.2789803	7.1234417	-1.1849703	-0.23726273	0.0	20.625	-45.3125	-5.0625	0.92491883	-0.12414794	0.7224732
1276878682335	-8.539958	6.4424243	-0.38136974	0.89760876	0.0	23.125	-43.0625	-8.8125	1.1007835	-0.03563539	0.9244941
1276878682375	-8.921328	6.1291566	0.53119355	1.0302687	0.0	24.875	-39.8125	-14.625	0.98236585	0.04903668	0.968833
1276878682415	-6.3198414	5.2165933	5.243834	-0.07777405	0.0	25.1875	-34.75	-21.875	1.9239012	0.56924576	0.88073987
1276878682455	-6.1700177	3.5276701	3.336985	-1.9549594	0.0	24.375	-30.25	-29.875	0.88165975	0.43896422	1.0514125
1276878682495	-6.932757	7.246025	6.742072	2.2773695	0.0	21.375	-27.75	-34.875	0.37461153	0.5918929	0.76330763
1276878682535	-6.932757	8.008764	7.9270425	3.4236717	0.0	17.875	-28.0	-36.875	0.45516014	0.64244795	0.7135077
1276878682575	-4.7943625	7.082581	5.9793324	0.62892723	0.0	15.375	-29.75	-36.625	0.34540606	0.61013216	0.59506965
1276878682615	-4.2495484	7.6954966	5.053149	0.33305645	0.0	11.8125	-32.0	-35.875	0.3444087	0.5216975	0.50454015
1276878682656	-4.2086873	7.3549876	6.0201936	0.5881376	0.0	8.8125	-34.75	-35.125	0.8389817	0.6176918	0.5197442
1276878682685	-3.568531	6.742072	5.175732	-0.58829117	0.0	7.0625	-35.75	-34.375	0.8696141	0.5961481	0.4868064
1276878682725	-3.255263	7.205164	4.440233	-0.7387514	0.0	4.75	-36.75	-34.125	0.7167557	0.5117056	0.42434633
1276878682765	-3.214402	7.205164	4.862464	-0.5389471	0.0	2.5	-37.8125	-32.875	0.9524993	0.5523247	0.41962662
1276878682805	-2.7921712	7.3549876	5.6252036	-0.13530159	0.0	1.25	-38.0625	-31.875	1.1876901	0.6207383	0.36282334
1276878682845	-2.1792557	7.9679036	5.8976107	0.34315014	0.0	-0.25	-38.5625	-31.375	1.2074339	0.62002665	0.2669751
1276878682876	-2.1383946	7.8180795	4.6036777	-0.48522568	0.0	-1.5	-39.3125	-30.625	0.9701376	0.51654786	0.266989
1276878682915	-1.525479	7.8180795	4.0180025	-0.88511467	0.0	-3.0	-39.8125	-30.375	0.8241364	0.46718106	0.19270077
1276878682955	-1.4573772	7.8861814	4.5219555	-0.5999193	0.0	-4.75	-40.0625	-30.125	1.0215124	0.51341814	0.1827397
1276878683005	-1.1168685	7.246025	5.012288	-0.9254732	0.0	-6.5625	-40.0625	-29.625	1.3614982	0.5996724	0.15293182
1276878683045	-0.61291564	7.6273947	4.630918	-0.86247826	0.0	-7.8125	-40.0625	-28.625	1.2109269	0.5442285	0.08018485
1276878683085	-0.6537767	8.662541	3.990762	-0.24666977	0.0	-8.0625	-40.8125	-27.875	0.91240716	0.43063134	0.07532889
1276878683125	-0.9125633	8.008764	3.0645783	-1.1831522	0.0	-8.8125	-41.0625	-27.125	0.8743166	0.36331555	0.11345625
1276878683155	-0.7218784	8.049625	2.7921712	-1.2559891	0.0	-9.5625	-41.0625	-26.875	0.81934035	0.33264533	0.08943925
1276878683185	-0.7218784	8.117727	3.0645783	-1.0997419	0.0	-10.3125	-41.0625	-26.625	0.9084743	0.3596759	0.08869287
1276878683215	-0.88532263	8.158588	3.173541	-1.0079155	0.0	-10.3125	-40.8125	-26.375	0.95514643	0.3689985	0.10809125
1276878683255	-1.0760075	8.812365	3.8273177	-0.1389761	0.0	-10.3125	-40.8125	-26.125	1.0630797	0.40703484	0.12150058
1276878683295	-0.8036005	9.507003	3.8681788	0.48857594	0.0	-10.0625	-41.3125	-25.875	0.9917471	0.38517952	0.08432676
1276878683335	-0.6946377	9.915613	3.759216	0.8203726	0.0	-9.5625	-41.3125	-25.875	0.90003073	0.36156794	0.06994068
1276878683365	-0.23154591	9.956474	3.636633	0.7957125	0.0	-10.3125	-41.3125	-25.875	0.83417606	0.35011104	0.023251623
1276878683405	-0.0	9.302697	3.255263	0.04915619	0.0	-11.0625	-41.0625	-25.625	0.8055948	0.3366096	0.0
1276878683445	0.27240697	9.043911	2.6014864	-0.39207268	0.0	-11.8125	-40.0625	-25.375	0.6757646	0.27996847	-0.030111378
1276878683485	0.08172209	8.689782	3.173541	-0.5551443	0.0	-13.0625	-40.0625	-24.375	0.9478876	0.3501404	-0.009404111
1276878683525	0.5720546	8.076866	3.5957718	-0.9470463	0.0	-14.0625	-40.0625	-23.625	1.153105	0.41792122	-0.07070823
1276878683565	0.6946377	7.8180795	2.8738933	-1.4481726	0.0	-15.125	-40.0625	-23.125	0.9916067	0.35099226	-0.08861747
1276878683605	1.0351465	8.430995	2.7240696	-0.8862381	0.0	-15.375	-41.0625	-21.875	0.919872	0.31033206	-0.12216726
1276878683645	0.92618364	8.730643	3.445948	-0.37497425	0.0	-15.875	-41.3125	-21.875	1.1775426	0.37401843	-0.10568895
1276878683685	1.4165162	8.771504	2.6014864	-0.5484896	0.0	-15.875	-41.0625	-22.125	0.78506315	0.28482956	-0.16010839
1276878683725	1.3075534	8.812365	2.4108016	-0.5773802	0.0	-15.375	-41.0625	-22.625	0.71195483	0.26427823	-0.14730242
1276878683765	1.1849703	9.00305	2.9556155	-0.2570572	0.0	-15.625	-40.5625	-23.625	0.82679063	0.31466895	-0.13086653
1276878683805	1.4982382	8.689782	2.4516625	-0.6541815	0.0	-14.8125	-39.8125	-24.375	0.56702185	0.2711805	-0.1707352
1276878683845	1.3756552	8.853226	2.7921712	-0.42218113	0.0	-14.8125	-39.5625	-24.375	0.6630647	0.30210555	-0.15415189
1276878683875	1.0351465	9.275456	3.173541	0.05118847	0.0	-14.8125	-40.0625	-24.125	0.8250152	0.32776806	-0.11114071
1276878683905	1.2666923	9.302697	2.7649305	-0.01943779	0.0	-14.3125	-40.0625	-24.375	0.6467842	0.28640386	-0.1353317
1276878683945	1.3075534	9.043911	2.4516625	-0.34553623	0.0	-14.3125	-40.8125	-24.625	0.5771599	0.26212177	-0.1435834
1276878683985	0.84446156	8.894087	2.070293	-0.63582706	0.0	-13.8125	-40.8125	-24.625	0.5980094	0.22771056	-0.09466264
1276878684025	0.27240697	8.662541	2.1792557	-0.8700409	0.0	-13.0625	-40.5625	-25.375	0.6782053	0.24634105	-0.031436183
1276878684065	-0.46309182	7.9679036	1.5390993	-1.678257	0.0	-11.3125	-41.3125	-25.125	0.6783947	0.19049864	0.05805435
1276878684105	-0.7218784	6.742072	2.6832085	-2.5144453	0.0	-7.8125	-41.5625	-25.625	0.93881875	0.37680954	0.10666434
1276878684145	-1.2666923	6.5513873	5.284695	-1.2947063	0.0	-1.8125	-40.875	-27.0625	1.9213068	0.6698347	0.19099051
1276878684185	-3.255263	6.742072	5.366417	-0.5952053	0.0	7.5	-38.875	-27.8125	1.5402188	0.6219012	0.4498161
1276878684215	-8.390134	4.5219555	1.1168685	-0.21030521	0.0	18.3125	-34.25	-27.1875	0.74573565	0.116649136	1.0764678
1276878684245	-11.454713	5.2165933	-0.88532263	2.811079	0.0	28.375	-29.4375	-24.9375	0.49951544	-0.07022267	1.1434524
1276878684285	-11.836082	7.5456724	0.95342433	4.262431	0.0	37.4375	-24.6875	-21.1875	0.038208142	0.06781932	1.0032485
1276878684325	-13.211738	9.997335	-0.6946377	6.7758484	0.0	42.4375	-21.1875	-18.4375	-0.40406168	-0.041902073	0.92302036
1276878684365	-11.795221	8.158588	0.53119355	4.5450735	0.0	43.9375	-18.9375	-17.9375	-0.5269718	0.03702098	0.96567214
1276878684405	-8.049625	6.1291566	1.1168685	0.37227058	0.0	43.6875	-15.9375	-18.9375	-0.7794774	0.10994504	0.9200255
1276878684445	-7.3549876	1.7297841	-0.38136974	-2.2413716	0.0	42.4375	-14.1875	-21.1875	0.17320058	-0.05043191	1.339809
1276878684485	-10.079058	3.486809	-1.607201	0.9789114	0.0	41.6875	-13.6875	-21.6875	-0.02478792	-0.14957118	1.2377377
1276878684525	-8.771504	9.084772	-0.7218784	2.8422031	0.0	40.9375	-15.6875	-21.1875	-0.6699889	-0.057101686	0.7678561
1276878684565	-4.5628166	9.847511	4.0180025	1.76647	0.0	39.4375	-20.6875	-18.6875	-1.3792709	0.3545667	0.43389782
1276878684605	-4.3312707	3.1463003	6.891896	-1.079833	0.0	37.9375	-26.6875	-14.4375	-3.116226	0.9103812	0.9425612
1276878684647	-4.7535014	-1.920469	1.607201	-4.4338417	0.0	35.1875	-32.1875	-8.875	1.5170206	0.30378717	1.9547561
1276878684685	-5.053149	-0.27240697	-1.525479	-4.5212355	0.0	32.625	-35.9375	-0.875	1.319038	-0.29278567	1.6246525
1276878684725	-5.706926	2.5333846	-3.336985	-2.726925	0.0	30.375	-37.75	8.375	1.0433645	-0.4908139	1.153015
1276878684755	-6.891896	3.1054392	-5.7477865	-0.3103857	0.0	29.125	-36.6875	16.4375	1.0575083	-0.6501027	1.1474495
1276878684795	-6.3198414	4.944186	-6.782933	0.70018387	0.0	28.875	-35.4375	21.9375	0.6995547	-0.70177394	0.9069245
1276878684835	-6.5513873	5.5162406	-6.932757	1.2120934	0.0	29.625	-34.4375	23.1875	0.61911607	-0.68049586	0.87096745
1276878684865	-9.112013	4.440233	-8.008764	3.1117382	0.0	31.875	-33.6875	20.6875	0.99132156	-0.6686799	1.1173648
1276878684895	-10.337844	4.671779	-7.7772183	3.9476824	0.0	33.375	-34.1875	17.1875	1.0080574	-0.6009639	1.1463549
1276878684925	-9.084772	4.6036777	-6.66035	2.3624582	0.0	35.1875	-34.6875	12.9375	0.78884125	-0.57915413	1.101766
1276878684965	-7.8180795	3.9090397	-4.9850473	0.25583744	0.0	35.6875	-35.1875	9.125	0.77994645	-0.51830566	1.1071488
1276878685005	-6.6331096	5.366417	-3.636633	-0.5318632	0.0	34.375	-36.6875	4.875	0.4301517	-0.40291196	0.8905706
1276878685045	-5.053149	6.0474343	-1.920469	-1.695302	0.0	33.125	-38.75	-0.375	-0.04601267	-0.23903301	0.696066
1276878685085	-5.8158884	3.8681788	-0.38136974	-2.8114514	0.0	31.125	-39.25	-6.625	1.032931	-0.05454583	0.9838754
1276878685125	-6.6331096	2.6832085	-0.14982383	-2.6498218	0.0	29.625	-38.0	-13.6875	1.0277243	-0.02093592	1.1864017
1276878685165	-7.6954966	5.6252036	6.1291566	1.5260525	0.0	27.875	-35.4375	-20.4375	2.0482278	0.5714331	0.93958384
1276878685205	-8.349273	5.8567495	4.6036777	1.3828859	0.0	25.125	-32.6875	-26.4375	1.0004317	0.4240192	0.95908564
1276878685235	-6.742072	6.701211	5.5162406	1.1838312	0.0	21.8125	-30.9375	-30.9375	0.6843621	0.52580655	0.7884377
1276878685275	-6.5513873	7.3141265	5.366417	1.3833256	0.0	18.3125	-30.9375	-33.6875	0.5054835	0.50016874	0.7304437
1276878685315	-5.134871	7.7772183	5.8567495	1.2003269	0.0	15.3125	-31.4375	-34.9375	0.38746858	0.5610721	0.5835438
1276878685355	-4.7126403	7.164303	5.829509	0.5625057	0.0	12.25	-31.4375	-35.6875	0.5709984	0.59704	0.58183527
1276878685385	-3.486809	6.973618	4.8216033	-0.6394787	0.0	9.75	-31.1875	-36.4375	0.3567282	0.5538483	0.4636476
1276878685425	-2.6832085	6.2108784	5.243834	-1.2467194	0.0	6.75	-30.6875	-37.4375	0.5094886	0.65934896	0.40779957
1276878685465	-1.8387469	6.4424243	6.2108784	-0.6709604	0.0	3.1875	-30.1875	-38.5	0.5836331	0.747555	0.2780204
1276878685505	-2.0294318	6.469665	6.6331096	-0.3212242	0.0	0.4375	-30.1875	-38.75	0.8568896	0.7744106	0.30396336
1276878685555	-1.1168685	7.164303	6.851035	0.16888523	0.0	-2.5625	-29.4375	-38.5	0.7065118	0.7570548	0.15464875
1276878685595	-0.7627395	6.742072	6.5922484	-0.34646797	0.0	-5.375	-29.1875	-38.25	0.8454029	0.77098435	0.11265234
1276878685625	-1.0351465	6.5922484	7.3958488	0.1546669	0.0	-6.875	-28.1875	-38.25	1.0958617	0.83673054	0.15575299
1276878685665	-1.0760075	5.829509	7.082581	-0.57063866	0.0	-7.875	-27.4375	-38.75	1.1777102	0.8739096	0.1825251
1276878685705	-1.0351465	5.829509	7.504812	-0.24752331	0.0	-8.625	-27.1875	-39.5	1.2342987	0.90284765	0.1757383
1276878685735	-0.19068487	6.469665	7.273266	-0.070464134	0.0	-8.625	-26.4375	-40.0	0.927977	0.8435898	0.029465154
1276878685775	-0.3405087	5.9793324	6.891896	-0.6761198	0.0	-8.625	-25.9375	-40.25	0.9491742	0.85537785	0.05688617
1276878685815	-1.2666923	5.8567495	7.4639506	-0.23499489	0.0	-8.625	-24.4375	-40.75	1.0223392	0.894342	0.21299839
1276878685845	-1.2666923	6.238119	7.082581	-0.2839613	0.0	-8.625	-23.4375	-41.25	0.8395839	0.83867574	0.20033301
1276878685875	-1.0760075	6.5513873	7.7363577	0.38794136	0.0	-8.875	-22.1875	-42.0	0.80708927	0.8615744	0.16278781
1276878685905	-0.5720546	7.014479	8.008764	0.85498524	0.0	-8.875	-22.1875	-42.5	0.72645956	0.84984183	0.08137332
1276878685935	-0.7627395	6.469665	7.246025	-0.062768936	0.0	-9.125	-22.4375	-42.5	0.746425	0.8385114	0.11735304
1276878685975	-0.7627395	6.1291566	7.082581	-0.40924168	0.0	-9.375	-22.6875	-42.5	0.79656744	0.85363406	0.123807944
1276878686015	-0.84446156	6.0201936	7.504812	-0.1485939	0.0	-9.125	-22.6875	-42.25	0.87782955	0.8899686	0.13936222
1276878686055	-0.9125633	5.053149	7.246025	-0.9256611	0.0	-8.625	-21.9375	-42.25	0.9936263	0.95428914	0.17866725
1276878686095	-1.0351465	4.399372	7.4639506	-1.0810232	0.0	-8.125	-21.4375	-42.75	1.1404599	1.0263335	0.2310907
1276878686135	-0.53119355	4.099725	7.082581	-1.6058664	0.0	-7.125	-21.1875	-43.5	1.1338187	1.0424597	0.12885025
1276878686175	-1.2258313	4.099725	7.6954966	-1.0014772	0.0	-5.625	-21.4375	-43.75	1.1823298	1.0633216	0.29054213
1276878686205	-1.7297841	4.4810944	8.240311	-0.26856422	0.0	-4.3125	-22.4375	-44.0	1.1500369	1.0430368	0.36839533
1276878686235	-2.070293	4.7535014	7.8180795	-0.42559147	0.0	-2.3125	-23.6875	-43.5	1.0454129	0.9852131	0.41075584
1276878686275	-2.5606253	4.944186	7.205164	-0.700819	0.0	-0.0625	-24.9375	-42.25	0.94459325	0.912882	0.47786984
1276878686315	-3.8273177	5.175732	6.932757	-0.34622288	0.0	1.4375	-26.4375	-41.0	0.89424783	0.822452	0.6367302
1276878686355	-4.2086873	6.0201936	6.891896	0.26578808	0.0	3.9375	-27.6875	-39.5	0.8223626	0.7535516	0.6101183
1276878686385	-5.202973	5.938472	6.5922484	0.47897625	0.0	5.75	-28.4375	-38.25	0.8284827	0.6956942	0.71947914
1276878686425	-6.0201936	6.4015636	6.510526	1.1299715	0.0	7.25	-29.4375	-37.1875	0.810443	0.63763386	0.7547061
1276878686465	-5.407278	7.082581	6.469665	1.2050791	0.0	9.0	-30.6875	-36.6875	0.75661504	0.62799674	0.652061
1276878686505	-5.9793324	6.5513873	6.0882955	0.95162296	0.0	9.5	-31.6875	-35.9375	0.84380436	0.60154575	0.7397776
1276878686545	-5.175732	6.469665	5.706926	0.2538557	0.0	10.0	-32.6875	-34.9375	0.8649122	0.60317534	0.67474097
1276878686585	-5.325556	5.7477865	5.8567495	-0.024006844	0.0	10.5	-33.4375	-34.4375	1.0495428	0.6418619	0.74728626
1276878686625	-5.175732	5.6252036	5.6252036	-0.31591606	0.0	10.5	-33.6875	-34.4375	1.0411844	0.63441294	0.74380803
1276878686665	-5.325556	5.7886477	2.9147544	-1.4182186	0.0	10.75	-32.6875	-34.1875	0.5914942	0.35487497	0.7437556
1276878686695	-5.8976107	7.0553403	7.0553403	1.7837534	0.0	11.5	-32.1875	-34.4375	0.9875212	0.65444946	0.69625545
1276878686725	-6.742072	5.7886477	5.012288	0.39565372	0.0	12.5	-31.9375	-33.9375	0.8311875	0.51357	0.8613388
1276878686755	-5.938472	6.932757	5.5162406	0.85906506	0.0	14.25	-32.1875	-32.9375	0.7549507	0.5435688	0.7083026
1276878686795	-4.944186	8.308413	5.243834	1.1920996	0.0	15.3125	-33.9375	-31.9375	0.3823095	0.4969724	0.53679544
1276878686835	-5.134871	8.689782	4.944186	1.4327536	0.0	16.0625	-35.6875	-29.9375	0.4166969	0.4554846	0.53370816
1276878686865	-5.9793324	11.836082	3.173541	3.828475	0.0	15.8125	-37.75	-27.6875	0.16535862	0.2349018	0.4677817
1276878686905	-6.8237944	13.6748295	-1.525479	5.5521326	0.0	14.0	-39.75	-24.4375	0.18138388	-0.09948694	0.46285048
1276878686935	-5.5571017	14.1787815	1.7978859	5.5280037	0.0	13.75	-42.0	-20.1875	0.16808581	0.117513604	0.3735309
1276878686975	2.152015	10.923519	5.5162406	2.6184597	0.0	15.3125	-44.25	-15.9375	-1.7256292	0.46001226	-0.1945165
1276878687015	4.9850473	5.325556	6.5513873	-0.0019102097	0.0	18.3125	-44.75	-11.125	-1.6883589	0.7317676	-0.752385
1276878687055	4.9850473	-0.7627395	4.099725	-3.307403	0.0	22.5625	-44.25	-8.625	-1.0161722	0.6825837	-1.7226243
1276878687095	4.944186	-3.8681788	6.701211	-0.6243839	0.0	26.375	-42.75	-8.375	-0.40967643	0.8180283	-2.234694
1276878687135	3.214402	-3.9499009	7.0553403	-1.1053896	0.0	28.375	-41.0	-9.375	-0.0843243	0.9455879	-2.4584978
1276878687165	1.3756552	-1.3075534	6.1291566	-3.3903675	0.0	28.625	-40.0	-12.9375	-0.18346134	1.2705051	-2.3308191
1276878687205	4.3312707	0.6946377	11.304889	2.3194761	0.0	27.875	-39.5	-15.6875	-1.0396849	1.2006526	-1.4117732
1276878687236	1.2258313	4.7535014	14.709975	5.7008257	0.0	25.375	-40.0	-17.1875	-2.202526	1.2486978	-0.25238094
1276878687275	-3.9499009	8.117727	14.015338	6.8645496	0.0	21.8125	-41.5	-17.6875	-3.0927906	0.9985592	0.4528518
1276878687315	-11.3321295	12.408136	15.431854	13.008282	0.0	18.3125	-43.0	-16.9375	2.4133432	0.742854	0.74010503
1276878687355	-14.47843	13.6748295	12.299174	13.600519	0.0	15.3125	-45.0	-15.4375	1.9540235	0.55323774	0.8139342
1276878687385	-10.501288	12.571581	10.528529	9.66568	0.0	13.5	-45.5	-14.6875	2.108079	0.57125926	0.69590944
1276878687452	-15.28203	9.997335	4.6036777	9.026327	0.0	12.25	-45.0	-14.4375	1.3958249	0.24695006	0.99148196
1276878687485	-13.293459	6.973618	4.440233	5.8478403	0.0	13.5	-44.0	-13.1875	1.465434	0.28758746	1.0876707
1276878687525	-6.2789803	5.134871	-0.8036005	-1.6556826	0.0	15.8125	-42.5	-11.875	0.97029006	-0.09875	0.8853031
1276878687565	-7.7363577	4.671779	-1.1168685	-0.7003803	0.0	17.8125	-41.75	-9.625	1.0832058	-0.12295789	1.0275338
1276878687605	-5.5571017	5.134871	2.8330324	-1.727396	0.0	21.0625	-41.25	-6.625	2.0848582	0.35827062	0.8248681
1276878687645	-4.7126403	5.012288	2.2201166	-2.5774784	0.0	23.3125	-41.0	-3.375	2.3455036	0.3121498	0.7545955
1276878687685	-4.2904096	3.7864566	4.9850473	-2.2174764	0.0	24.5625	-40.75	-0.125	2.6930587	0.7166507	0.847712
1276878687725	-3.8273177	5.5162406	4.372132	-1.7946091	0.0	26.375	-40.0	2.625	3.101659	0.5772184	0.60657114
1276878687755	-1.7978859	6.6331096	-0.46309182	-2.9186177	0.0	27.625	-39.5	4.375	-1.6512176	-0.06728212	0.26468763
1276878687795	-3.636633	10.800936	0.14982383	1.5910587	0.0	27.125	-39.5	4.125	-1.9172649	0.013145463	0.324774
1276878687835	-10.691973	12.598822	0.5720546	6.7274303	0.0	26.125	-40.0	3.125	2.244793	0.03460542	0.703709
1276878687865	-6.782933	9.084772	2.1792557	1.7384968	0.0	24.3125	-42.0	2.625	2.691201	0.18989874	0.6413387
1276878687895	-4.630918	6.701211	3.2961242	-1.0193834	0.0	22.3125	-42.75	1.875	2.8481996	0.38450718	0.6046986
1276878687925	-2.6014864	6.2789803	2.9556155	-2.3952408	0.0	21.3125	-44.25	1.625	-3.0115643	0.4101999	0.39278713
1276878687955	-1.525479	8.158588	1.1168685	-1.4318638	0.0	19.8125	-44.75	1.875	-2.2012246	0.13375933	0.18484393
1276878687995	-3.0237172	7.8589406	1.0351465	-1.3227043	0.0	17.5625	-45.25	1.375	-3.1220477	0.122317165	0.36728996
1276878688035	-1.8387469	7.8861814	0.53119355	-1.6915398	0.0	13.25	-46.5	1.875	-2.705491	0.06550418	0.22906813
1276878688075	-1.0351465	8.308413	3.214402	-0.838171	0.0	7.5	-47.0	2.625	-3.0581088	0.36656532	0.12395144
1276878688125	-0.53119355	5.366417	1.3756552	-4.2413087	0.0	1.9375	-47.5	4.625	2.973522	0.24977146	0.098663375
1276878688155	-0.42223078	12.026767	3.568531	2.7454739	0.0	-3.5625	-45.5	8.625	2.902563	0.28827307	0.035093173
1276878688185	2.7921712	19.504337	4.671779	10.442818	0.0	-8.875	-42.75	13.1875	3.0229812	0.23280855	-0.14219035
1276878688215	-0.6946377	15.213928	1.4573772	5.4926987	0.0	-14.625	-38.5	15.4375	2.4296916	0.09540212	0.045626324
1276878688245	-1.879608	9.275456	-1.6480621	-0.20023918	0.0	-20.4375	-34.1875	16.4375	1.9645303	-0.17241149	0.1999358
1276878688285	2.9147544	9.915613	0.7218784	0.5536728	0.0	-24.9375	-31.1875	15.1875	2.43504	0.06973372	-0.2859027
1276878688325	4.7535014	8.921328	0.84446156	0.3372631	0.0	-28.0	-28.9375	12.9375	2.538265	0.083344564	-0.48956102
1276878688365	5.134871	7.3958488	0.88532263	-0.7595911	0.0	-29.5	-28.1875	12.375	2.6758454	0.09801436	-0.6068841
1276878688395	6.238119	7.3958488	-0.7627395	-0.10126591	0.0	-30.75	-28.4375	10.375	2.5105898	-0.078670435	-0.7006863
1276878688453	6.0474343	8.240311	-0.5720546	0.43060684	0.0	-31.75	-28.6875	7.375	2.09809	-0.0559088	-0.633107
1276878688497	5.243834	8.499097	0.95342433	0.22537136	0.0	-32.75	-28.1875	5.125	2.1746247	0.095181756	-0.55281657
1276878688535	5.243834	8.158588	1.4165162	-0.005279541	0.0	-33.5	-27.4375	3.625	2.1914232	0.14503014	-0.5712531
1276878688576	5.366417	8.390134	1.1168685	0.21533489	0.0	-34.0	-25.9375	3.125	2.0479257	0.11167381	-0.5690367
1276878688615	5.243834	8.19945	0.6537767	-0.051846504	0.0	-34.75	-24.9375	3.625	1.948246	0.06707128	-0.56898314
1276878688658	4.9850473	8.008764	0.95342433	-0.3250885	0.0	-35.8125	-24.9375	3.625	1.9881773	0.10072586	-0.5567628
1276878688695	4.944186	8.240311	1.0760075	-0.13682652	0.0	-36.3125	-24.9375	3.375	1.9741344	0.1115057	-0.54041946
1276878688725	5.407278	8.308413	1.0351465	0.16028976	0.0	-36.3125	-25.6875	3.625	2.0190892	0.10404562	-0.5769512
1276878688755	5.5571017	7.7772183	1.1168685	-0.18303776	0.0	-36.3125	-26.1875	4.375	2.1452036	0.11631713	-0.62041515
1276878688795	5.407278	7.43671	1.1441092	-0.5409994	0.0	-35.5625	-26.6875	4.875	2.2280614	0.12379452	-0.62868744
1276878688835	5.243834	7.6954966	0.88532263	-0.4523859	0.0	-35.0625	-26.9375	5.875	2.1892452	0.094785616	-0.59814423
1276878688865	5.243834	8.076866	0.84446156	-0.13986874	0.0	-34.0	-26.9375	7.375	2.2393043	0.08746855	-0.57584155
1276878688895	5.2165933	8.076866	0.84446156	-0.15461826	0.0	-33.25	-26.9375	8.125	2.2896426	0.087602556	-0.57346535
1276878688925	5.134871	7.8861814	0.88532263	-0.3545313	0.0	-32.5	-26.9375	9.625	2.3878908	0.093801424	-0.57716405
1276878688955	5.012288	7.5456724	0.92618364	-0.700717	0.0	-31.75	-27.1875	10.125	2.463692	0.10188831	-0.5863346
1276878688995	4.9850473	7.668256	0.95342433	-0.61089706	0.0	-31.25	-27.4375	10.625	2.4891648	0.1038676	-0.5764377
1276878689035	4.862464	7.9270425	0.9942854	-0.45410156	0.0	-31.0	-27.1875	11.375	2.4743245	0.106512986	-0.5502157
1276878689075	4.7126403	8.19945	0.9942854	-0.29725742	0.0	-30.5	-26.9375	11.875	2.453617	0.1047497	-0.521647
1276878689115	4.6036777	8.730643	0.9942854	0.1133585	0.0	-29.5	-26.4375	12.6875	2.4417841	0.10039888	-0.48524916
1276878689155	4.399372	8.580819	1.1168685	-0.0993166	0.0	-29.5	-25.6875	12.9375	2.4351935	0.11530946	-0.4737546
1276878689185	3.9499009	8.390134	1.2666923	-0.4471321	0.0	-29.0	-25.4375	13.1875	2.429722	0.13575393	-0.43999895
1276878689215	3.8681788	8.580819	1.4165162	-0.28825855	0.0	-29.0	-24.1875	12.6875	2.3885527	0.14937371	-0.4235137
1276878689245	4.099725	8.499097	1.56634	-0.2413063	0.0	-29.5	-23.4375	12.6875	2.4050333	0.16449235	-0.44944587
1276878689285	4.6036777	8.499097	1.7297841	0.012751579	0.0	-30.25	-22.4375	12.125	2.4162776	0.1770839	-0.49642277
1276878689325	4.8216033	8.390134	1.4165162	-0.026634216	0.0	-30.75	-21.1875	11.625	2.364752	0.14534907	-0.5215903
1276878689395	4.862464	8.117727	1.0760075	-0.28305626	0.0	-31.25	-21.1875	10.625	2.306928	0.11322512	-0.53967893
1276878689425	5.09401	8.349273	0.95342433	0.020267487	0.0	-31.5	-21.6875	8.875	2.2354982	0.09717458	-0.54782325
1276878689455	5.134871	8.240311	0.8036005	-0.06419754	0.0	-31.25	-22.1875	7.625	2.1889231	0.08257823	-0.557261
1276878689495	5.2165933	7.8861814	0.84446156	-0.31361008	0.0	-31.0	-22.9375	6.375	2.198232	0.089073606	-0.584407
1276878689525	5.434519	7.8180795	0.92618364	-0.24034595	0.0	-30.75	-23.1875	5.625	2.2212086	0.09696918	-0.6074446
1276878689555	5.5571017	7.8861814	0.7627395	-0.12909889	0.0	-31.25	-23.4375	5.625	2.1873534	0.07889717	-0.6138488
1276878689595	5.47538	7.7363577	0.6537767	-0.30620575	0.0	-30.75	-23.6875	5.375	2.177065	0.06886981	-0.61590606
1276878689637	5.175732	7.9679036	0.50395286	-0.2919426	0.0	-30.75	-23.9375	5.375	2.0919268	0.052990466	-0.5760747
1276878689675	4.862464	8.349273	0.6537767	-0.12257385	0.0	-30.75	-23.9375	5.375	2.0919268	0.052990466	-0.5760747
1276878689715	4.8216033	8.308413	1.0351465	-0.14491653	0.0	-30.75	-23.4375	5.375	2.1245112	0.107344836	-0.5258291
1276878689745	4.903325	8.049625	1.2258313	-0.30182362	0.0	-31.5	-23.4375	5.625	2.1804469	0.12932959	-0.54711086
1276878689785	5.09401	8.117727	1.3756552	-0.1247673	0.0	-31.5	-23.4375	5.625	2.1804469	0.12932959	-0.54711086
1276878689825	4.9850473	8.076866	1.2258313	-0.23643017	0.0	-31.5	-23.9375	6.125	2.2200296	0.12844096	-0.5529711
1276878689855	4.862464	7.8861814	0.88532263	-0.49970627	0.0	-31.0	-24.1875	6.125	2.1824224	0.095269	-0.55252177
1276878689886	4.862464	8.158588	0.6946377	-0.28359222	0.0	-30.5	-24.1875	6.375	2.148785	0.07300756	-0.5374682
1276878689925	4.5628166	8.308413	0.53119355	-0.31290627	0.0	-30.75	-24.4375	7.375	2.1244886	0.055981193	-0.5022137
1276878689955	4.2495484	8.008764	0.38136974	-0.73226833	0.0	-31.25	-24.1875	7.625	2.0823112	0.04203946	-0.48783645
1276878689985	4.099725	7.5865335	0.3405087	-1.1765184	0.0	-31.75	-24.1875	7.875	2.0859706	0.03946604	-0.49543902
1276878690025	4.5219555	8.049625	0.7218784	-0.5456753	0.0	-32.25	-24.1875	7.875	2.1536229	0.078027576	-0.51182693
1276878690065	5.325556	8.921328	1.1168685	0.6431837	0.0	-32.0	-23.4375	8.125	2.230035	0.107083604	-0.5381713
1276878690105	5.706926	9.00305	1.3756552	0.9412031	0.0	-32.0	-23.9375	8.625	2.3243685	0.12834555	-0.5649652
1276878690135	5.6252036	7.9679036	1.56634	0.07180214	0.0	-31.5	-23.9375	9.625	2.4852319	0.15923332	-0.61473
1276878690165	6.4424243	8.390134	1.9477097	0.9494066	0.0	-31.0	-24.1875	10.625	2.6247485	0.18208477	-0.65483207
1276878690205	7.43671	7.5865335	-1.2666923	0.8921652	0.0	-31.0	-24.6875	10.125	2.4089243	-0.11867393	-0.7754257
1276878690235	7.273266	6.1700177	-3.405087	0.32074547	0.0	-30.25	-24.9375	10.875	0.18574728	-0.342906	-0.86728156
1276878690275	5.2165933	7.3549876	-0.23154591	-0.7865448	0.0	-30.0	-24.9375	11.125	2.3616643	-0.025672797	-0.61691326
1276878690315	3.9090397	7.8180795	0.8036005	-1.0289087	0.0	-30.0	-24.6875	12.125	2.3411438	0.09167818	-0.4636476
1276878690355	4.5219555	8.539958	-0.040861044	-0.1432848	0.0	-30.5	-24.1875	12.9375	2.2562826	-0.004228461	-0.48697254
1276878690386	6.701211	9.343558	-1.1168685	1.7456532	0.0	-30.5	-22.6875	12.9375	2.2521565	-0.09683054	-0.6221773
1276878690425	7.5865335	9.00305	-0.95342433	2.0051832	0.0	-30.5	-22.4375	13.6875	2.4483995	-0.08080564	-0.70021886
1276878690465	6.3198414	6.932757	-0.7627395	-0.3946743	0.0	-30.25	-21.6875	13.9375	2.5256164	-0.08112822	-0.7391824
1276878690505	5.5571017	6.6331096	-0.6946377	-1.1255188	0.0	-29.0	-21.4375	14.9375	2.5306723	-0.08010259	-0.69735813
1276878690545	6.0882955	7.0553403	-0.8036005	-0.45299053	0.0	-28.5	-21.6875	16.1875	2.6274877	-0.08601899	-0.7119553
1276878690585	6.0882955	7.205164	-1.1441092	-0.3045082	0.0	-27.5	-20.9375	16.9375	2.6104128	-0.12069825	-0.7015786
1276878690625	4.7535014	7.9270425	-0.95342433	-0.5145674	0.0	-26.75	-20.4375	17.1875	2.4114606	-0.102786995	-0.5401668
1276878690676	3.336985	9.302697	-0.23154591	0.07916069	0.0	-26.5	-19.4375	18.1875	2.3329184	-0.023424188	-0.3444145
1276878690715	4.2904096	9.084772	-1.9477097	0.4273262	0.0	-26.0	-18.4375	18.1875	2.2478635	-0.19148603	-0.44121352
1276878690745	6.1700177	6.3607025	-3.759216	-0.18067646	0.0	-26.5	-17.9375	18.4375	2.1984937	-0.40120548	-0.77018195
1276878690785	7.1234417	5.5571017	-2.7513103	-0.36236572	0.0	-26.5	-18.1875	18.6875	2.915792	-0.29560655	-0.90829873
1276878690825	6.66035	7.164303	-1.7570249	0.13189316	0.0	-26.75	-18.1875	17.6875	2.5945075	-0.1777231	-0.7489611
1276878690855	7.164303	7.246025	-1.920469	0.56255054	0.0	-27.5	-17.9375	17.4375	2.5863059	-0.18628451	-0.7797271
1276878690885	8.158588	6.469665	-1.9477097	0.78639984	0.0	-27.75	-17.6875	16.9375	2.8334594	-0.18491882	-0.90034544
1276878690925	8.008764	6.0201936	-1.8387469	0.37981224	0.0	-28.0	-16.9375	16.9375	2.8458204	-0.1815038	-0.92620766
1276878690955	6.2108784	6.3198414	-1.2666923	-0.8556776	0.0	-28.0	-17.1875	16.6875	2.5583212	-0.14199114	-0.7767027
1276878690985	5.597963	6.4015636	-1.4573772	-1.1787214	0.0	-27.5	-16.9375	16.6875	2.437051	-0.16972764	-0.7185286
1276878691025	5.407278	6.3607025	-2.070293	-1.2052956	0.0	-27.25	-16.4375	16.9375	2.307599	-0.24308065	-0.7045562
1276878691065	4.2904096	7.3958488	-2.3699405	-0.93406296	0.0	-26.75	-16.4375	16.4375	2.0873237	-0.27039093	-0.5256665
1276878691105	3.5957718	7.5865335	-2.1792557	-1.132884	0.0	-26.75	-15.6875	16.9375	2.0891066	-0.25396815	-0.44260573
1276878691145	5.597963	7.082581	-2.1111538	-0.5353441	0.0	-27.25	-15.4375	16.1875	2.230481	-0.22972356	-0.66885036
1276878691186	7.9679036	7.6273947	0.8036005	1.2527542	0.0	-27.25	-14.9375	14.9375	2.7009895	0.07272627	-0.80722874
1276878691225	7.8861814	8.390134	2.4925237	1.9746437	0.0	-28.25	-14.4375	14.1875	2.654307	0.21317716	-0.75444573
1276878691265	9.847511	8.471856	1.3756552	3.2562075	0.0	-29.0	-14.6875	12.6875	2.6876073	0.10550606	-0.86035043
1276878691305	8.240311	7.164303	0.3405087	1.1179047	0.0	-29.0	-14.9375	11.625	2.5901372	0.031174164	-0.8551346
1276878691345	5.2165933	7.1234417	1.4573772	-0.8578949	0.0	-29.25	-16.1875	11.625	2.4340901	0.16358672	-0.6320854
1276878691375	4.903325	7.0553403	0.84446156	-1.1733694	0.0	-28.75	-16.6875	11.375	2.362568	0.097971335	-0.60734934
1276878691415	5.597963	7.205164	0.7627395	-0.6505947	0.0	-27.25	-17.4375	12.125	2.504547	0.083401024	-0.6605194
1276878691455	5.9793324	7.43671	0.7218784	-0.23700142	0.0	-25.75	-18.4375	12.9375	2.6310122	0.07550589	-0.677193
1276878691495	5.5162406	7.6954966	0.5720546	-0.32103825	0.0	-23.6875	-18.6875	12.6875	2.615717	0.06034423	-0.6219217
1276878691535	4.5628166	8.539958	0.42223078	-0.1149807	0.0	-22.4375	-19.4375	13.6875	2.5213406	0.043580156	-0.4907021
1276878691575	4.372132	8.662541	0.42223078	-0.094109535	0.0	-21.6875	-19.1875	13.4375	2.5082529	0.043486446	-0.46741408
1276878691615	4.3312707	8.580819	0.84446156	-0.15763569	0.0	-21.6875	-18.4375	13.1875	2.5200837	0.08763001	-0.46744987
1276878691655	4.3312707	7.9270425	1.0351465	-0.71437645	0.0	-22.6875	-18.4375	12.375	2.5176198	0.11409641	-0.5000687
1276878691685	4.7126403	8.076866	1.1441092	-0.38573074	0.0	-22.9375	-17.6875	10.375	2.4645169	0.121744	-0.5281793
1276878691715	4.9850473	8.076866	1.3075534	-0.22561932	0.0	-23.1875	-17.6875	9.625	2.4742048	0.13690038	-0.5529711
1276878691745	5.243834	8.281172	0.50395286	0.008112907	0.0	-23.4375	-18.1875	8.375	2.3423734	0.051369	-0.5644911
1276878691785	5.9793324	8.308413	-2.6423476	0.7652054	0.0	-23.1875	-17.9375	8.125	1.671484	-0.25262004	-0.623807
1276878691825	6.4015636	7.8861814	-0.6537767	0.37172413	0.0	-23.4375	-18.4375	8.375	2.3495042	-0.06427618	-0.6818613
1276878691855	4.8216033	8.19945	-1.6889231	-0.14583778	0.0	-23.6875	-18.9375	7.625	1.8026636	-0.17572504	-0.5315789
1276878691885	3.214402	9.234595	-3.9771416	0.7492857	0.0	-23.9375	-19.1875	8.375	1.4466206	-0.38630497	-0.33496568
1276878691915	3.9499009	9.466142	-1.4573772	0.5535383	0.0	-24.1875	-19.9375	8.875	1.8929565	-0.14113903	-0.39530188
1276878691945	6.6331096	8.580819	1.6889231	1.1697369	0.0	-23.9375	-20.6875	10.375	2.7452664	0.15448248	-0.6580693
1276878691975	10.147159	8.962189	3.0237172	4.0652103	0.0	-23.4375	-21.6875	12.375	-3.1027505	0.21973898	-0.84732884
1276878692005	10.378705	6.851035	-0.10896278	2.6298313	0.0	-21.9375	-23.1875	14.1875	-2.6603482	-0.008761656	-0.98735017
1276878692045	7.504812	6.4424243	0.53119355	0.098358154	0.0	-20.1875	-24.4375	16.4375	-2.8518372	0.05365452	-0.86142325
1276878692085	5.366417	8.240311	2.152015	0.2597456	0.0	-18.4375	-25.6875	17.6875	3.082078	0.21544492	-0.5772462
1276878692125	3.8273177	6.742072	1.334794	-1.9399118	0.0	-16.9375	-25.9375	19.1875	3.062074	0.17050055	-0.51631325
1276878692165	3.9090397	7.246025	0.92618364	-1.5215254	0.0	-16.4375	-25.6875	20.6875	3.047105	0.112022884	-0.49472564
1276878692195	3.990762	9.724928	0.6946377	0.7281933	0.0	-17.1875	-25.4375	21.4375	2.8805568	0.06598504	-0.38940895
1276878692225	2.3699405	11.795221	-6.851035	4.038224	0.0	-17.6875	-24.4375	21.6875	1.9687488	-0.51765376	-0.19828366
1276878692265	5.175732	9.302697	-4.440233	1.7278223	0.0	-18.6875	-23.9375	21.9375	2.6468391	-0.39515722	-0.5077199
1276878692305	8.962189	6.5513873	-1.2666923	1.3668013	0.0	-20.1875	-23.1875	21.6875	-2.78282	-0.1136105	-0.9395645
1276878692345	8.117727	5.325556	-1.4165162	0.0048513412	0.0	-21.6875	-22.1875	21.6875	-2.7701406	-0.14487934	-0.99018663
1276878692375	4.903325	6.238119	0.08172209	-1.8717017	0.0	-23.4375	-20.9375	22.1875	2.9024155	0.01029919	-0.6661621
1276878692415	4.440233	7.3958488	-0.38136974	-1.171855	0.0	-25.75	-19.1875	22.6875	2.622497	-0.044180993	-0.5406903
1276878692455	7.43671	6.3198414	-1.879608	0.132061	0.0	-27.0	-17.1875	22.6875	2.8783894	-0.1902658	-0.8664086
1276878692495	8.19945	4.671779	-1.0351465	-0.3130722	0.0	-27.5	-15.4375	23.1875	3.1313539	-0.10925372	-1.0529034
1276878692535	7.164303	4.2086873	-0.29964766	-1.4922009	0.0	-28.0	-14.9375	23.6875	3.0838225	-0.03604719	-1.039654
1276878692575	5.7886477	5.5571017	-0.7218784	-1.749918	0.0	-27.75	-14.4375	23.6875	2.743006	-0.08971973	-0.80580354
1276878692615	3.336985	6.6331096	-1.1849703	-2.28749	0.0	-28.0	-14.1875	23.9375	2.3828478	-0.15825315	-0.46610862
1276878692655	4.7535014	6.0474343	-0.3405087	-2.1070929	0.0	-28.25	-14.9375	23.4375	2.6110325	-0.04423888	-0.66616815
1276878692695	7.246025	7.5456724	0.23154591	0.65736675	0.0	-28.75	-14.9375	22.4375	2.7190769	0.022129629	-0.7651431
1276878692725	11.454713	10.991621	-1.334794	6.1246986	0.0	-29.25	-15.6875	21.1875	2.6903753	-0.08388245	-0.8060263
1276878692756	12.789507	12.067628	-5.175732	8.523308	0.0	-29.5	-16.9375	20.1875	2.472605	-0.28625816	-0.81443113
1276878692795	8.19945	8.240311	-0.23154591	1.8203583	0.0	-29.5	-17.6875	19.4375	2.7192132	-0.019915804	-0.7829127
1276878692835	4.7943625	5.5162406	3.718355	-1.6065903	0.0	-28.75	-19.4375	20.1875	2.8782918	0.47063756	-0.715499
1276878692875	5.938472	7.246025	3.1463003	0.07613945	0.0	-27.25	-21.1875	21.6875	2.901819	0.32400063	-0.6865479
1276878692915	5.5162406	7.6273947	1.1441092	-0.324296	0.0	-25.25	-23.9375	23.1875	2.908917	0.12095135	-0.6261367
1276878692955	4.2086873	6.5922484	0.42223078	-1.9740853	0.0	-22.4375	-26.1875	24.4375	2.9599447	0.053933237	-0.56819844
1276878692995	4.630918	7.9679036	0.6537767	-0.56758595	0.0	-20.9375	-28.1875	23.6875	2.9918175	0.070821404	-0.52647865
1276878693035	4.4810944	8.471856	0.95342433	-0.17536926	0.0	-20.4375	-29.6875	22.6875	2.9827116	0.099154875	-0.48652983
1276878693075	4.8216033	8.580819	0.5720546	0.052638054	0.0	-20.6875	-29.9375	21.4375	2.9991856	0.0580545	-0.5119372
1276878693115	4.630918	8.19945	0.5720546	-0.37247658	0.0	-22.4375	-30.1875	19.6875	2.9306896	0.06067365	-0.5141228
1276878693155	4.4810944	8.117727	0.92618364	-0.48809242	0.0	-23.6875	-29.6875	18.4375	2.8597076	0.099555686	-0.5043877
1276878693225	4.3312707	7.8861814	0.7627395	-0.77705765	0.0	-24.9375	-29.9375	16.9375	2.7869406	0.08457187	-0.5022463
1276878693265	4.630918	8.19945	0.92618364	-0.34439945	0.0	-25.75	-30.4375	15.1875	2.7668507	0.098038934	-0.5141228
1276878693305	4.2904096	7.8180795	0.7218784	-0.8595228	0.0	-25.75	-31.6875	14.4375	2.747622	0.0807705	-0.50190645
1276878693345	4.399372	8.471856	0.6946377	-0.2353735	0.0	-25.5	-33.1875	13.4375	2.7208104	0.0726391	-0.4789623
1276878693375	4.372132	7.8589406	0.7218784	-0.78447723	0.0	-24.6875	-34.1875	12.9375	2.8456702	0.080097206	-0.5076869
1276878693405	5.012288	8.049625	0.88532263	-0.28282166	0.0	-23.4375	-35.1875	12.9375	3.0646234	0.09309309	-0.5569245
1276878693445	5.706926	8.349273	1.2258313	0.3806963	0.0	-22.6875	-35.6875	12.375	-3.0607011	0.12062109	-0.59958225
1276878693485	5.706926	7.6954966	1.4982382	-0.1095171	0.0	-21.4375	-36.4375	12.125	-2.9034066	0.1551246	-0.63809884
1276878693525	6.0882955	9.384419	1.4165162	1.4690399	0.0	-20.6875	-37.4375	11.625	-2.9646492	0.12595849	-0.57550746
1276878693565	6.0201936	10.691973	1.4573772	2.5499249	0.0	-19.9375	-39.0	11.125	-3.0333338	0.11821863	-0.51281273
1276878693605	4.0588636	8.580819	0.84446156	-0.27680588	0.0	-18.6875	-40.25	11.125	-3.1204386	0.08872869	-0.44182822
1276878693645	5.134871	10.56939	0.84446156	1.9743528	0.0	-18.4375	-41.5	11.375	-3.0357566	0.07174146	-0.45224318
1276878693685	4.7535014	11.264028	0.10896278	2.419795	0.0	-17.1875	-42.75	11.375	-3.0749824	0.008912176	-0.39933303
1276878693715	4.9850473	8.894087	0.42223078	0.39794445	0.0	-16.1875	-43.75	12.375	-2.670439	0.04138835	-0.51086134
1276878693745	4.7535014	6.891896	0.7627395	-1.3997622	0.0	-14.125	-44.5	12.9375	-2.463617	0.09085286	-0.60379547
1276878693785	3.9090397	5.597963	0.61291564	-2.9514737	0.0	-12.125	-45.25	12.9375	-2.38235	0.089528725	-0.609582
1276878693825	4.140586	6.973618	1.0351465	-1.6306286	0.0	-10.875	-45.0	14.6875	-2.547577	0.1269483	-0.53581125
1276878693865	4.8216033	8.349273	1.3756552	-0.067521095	0.0	-10.625	-43.75	16.1875	-2.6212947	0.14172429	-0.52370197
1276878693895	5.284695	7.3549876	1.8387469	-0.565176	0.0	-12.625	-42.25	18.6875	-2.6454973	0.20030357	-0.6230467
1276878693935	5.407278	6.6331096	1.6889231	-1.0837345	0.0	-14.875	-39.5	22.1875	-2.7146125	0.19484973	-0.6839378
1276878693975	5.829509	7.504812	0.6946377	-0.2783823	0.0	-18.4375	-37.4375	24.4375	-2.8434649	0.07296756	-0.6604146
1276878694005	4.1814466	8.158588	-2.8738933	-0.19903278	0.0	-21.9375	-35.6875	25.4375	2.8727496	-0.30377716	-0.47361404
1276878694045	3.7864566	7.273266	-4.7943625	-0.30804157	0.0	-24.4375	-33.9375	25.4375	1.7470675	-0.529085	-0.47999084
1276878694085	3.718355	6.742072	1.9885708	-1.8545365	0.0	-28.0	-32.1875	24.9375	2.887649	0.25275072	-0.50400573
1276878694125	7.4639506	8.471856	2.7921712	1.8243055	0.0	-30.5	-30.1875	23.6875	3.0537815	0.24243155	-0.7222344
1276878694165	12.217452	12.258313	0.27240697	7.5024967	0.0	-32.25	-29.1875	22.1875	3.0440373	0.015738396	-0.78372866
1276878694205	5.829509	5.284695	1.920469	-1.7073059	0.0	-32.75	-29.6875	21.4375	3.1415513	0.23939419	-0.83437854
1276878694235	6.1700177	8.430995	2.152015	0.8602123	0.0	-32.0	-30.9375	20.6875	2.8877504	0.20314199	-0.6317677
1276878694275	6.0882955	9.575105	0.61291564	1.5566959	0.0	-31.25	-32.4375	19.6875	2.7552366	0.05396414	-0.56636095
1276878694315	3.255263	6.3198414	0.23154591	-2.693933	0.0	-32.0	-31.6875	18.6875	2.5346303	0.032559544	-0.4756436
1276878694355	3.173541	8.539958	0.84446156	-0.6570406	0.0	-34.5	-29.9375	15.6875	2.2934308	0.09242636	-0.35579607
1276878694385	2.5333846	10.119919	-3.0237172	1.0549183	0.0	-37.3125	-27.9375	11.875	1.6162738	-0.2821141	-0.2452953
1276878694425	3.6774938	9.234595	1.0760075	0.19132519	0.0	-40.0625	-25.6875	8.875	2.0089881	0.10783139	-0.37897968
1276878694465	2.6423476	9.847511	0.08172209	0.38953304	0.0	-41.8125	-24.1875	5.375	1.7348894	0.008015054	-0.2621513
1276878694515	4.2086873	8.853226	1.7297841	0.14748478	0.0	-42.5625	-22.9375	2.875	1.894938	0.17466214	-0.4437621
1276878694555	4.7943625	9.00305	1.9477097	0.57768345	0.0	-43.0625	-22.4375	0.375	1.8502015	0.18867983	-0.48932895
1276878694595	5.597963	8.962189	2.4108016	1.0317068	0.0	-42.5625	-22.9375	-2.625	1.846829	0.22430865	-0.55832607
1276878694635	6.0474343	8.499097	3.5957718	1.2267389	0.0	-41.3125	-24.4375	-4.125	2.0606964	0.33196262	-0.618428
1276878694675	5.7886477	7.504812	3.255263	0.21469593	0.0	-40.5625	-25.9375	-5.625	2.094452	0.33083504	-0.6570099
1276878694705	5.9793324	7.4639506	1.6480621	-0.102059364	0.0	-38.8125	-27.9375	-5.875	1.728098	0.17065	-0.6754082
1276878694735	5.6660647	7.6273947	1.3756552	-0.20592785	0.0	-38.0625	-29.1875	-6.125	1.6124234	0.14378153	-0.63891405
1276878694765	5.6252036	7.668256	1.4573772	-0.1853714	0.0	-37.0625	-30.1875	-6.125	1.6498827	0.15205969	-0.6329028
1276878694805	5.829509	7.8180795	1.3756552	0.04210472	0.0	-35.5625	-31.4375	-5.125	1.7153721	0.1401363	-0.64070785
1276878694845	5.5162406	7.082581	1.4165162	-0.7182846	0.0	-34.75	-32.1875	-4.875	1.8836429	0.15649843	-0.6617085
1276878694875	6.4015636	6.851035	1.920469	-0.23560524	0.0	-33.5	-33.6875	-4.125	2.8785038	0.20202552	-0.7514954
1276878694905	6.5922484	6.1291566	3.405087	-0.1827774	0.0	-32.25	-35.6875	-3.625	-2.842883	0.36164862	-0.8217847
1276878694945	8.008764	6.469665	-2.6832085	0.83273315	0.0	-31.0	-37.1875	-4.625	-0.5213042	-0.2549488	-0.8913033
1276878694975	11.604536	6.1700177	-4.372132	4.044339	0.0	-29.5	-38.75	-4.875	-0.830946	-0.32114667	-1.0821191
1276878695005	10.18802	7.3141265	0.38136974	2.7407656	0.0	-28.25	-39.5	-5.125	-1.3365823	0.030398965	-0.9481482
1276878695035	7.246025	8.921328	2.7921712	2.0209103	0.0	-27.75	-39.75	-5.125	-2.6409183	0.23832294	-0.6821441
1276878695075	2.9556155	13.143636	-3.1463003	4.027728	0.0	-28.5	-39.75	-4.875	0.9050215	-0.22943383	-0.22119114
1276878695115	0.08172209	15.241169	-4.5900574	6.1109037	0.0	-29.25	-39.75	-4.625	1.0688516	-0.29251832	-0.0053618792
1276878695155	3.0645783	10.991621	-0.040861044	1.6042671	0.0	-29.75	-40.0	-4.625	1.3094436	-0.0035808806	-0.27190527
1276878695195	5.7886477	7.164303	-0.6537767	-0.5728483	0.0	-30.25	-39.5	-4.625	-0.15791553	-0.07086184	-0.67959076
1276878695225	5.243834	5.407278	-2.7240696	-1.7968435	0.0	-29.5	-39.25	-4.375	-0.2889343	-0.34701452	-0.7700541
1276878695255	4.8216033	3.5276701	-1.6889231	-3.598206	0.0	-29.0	-38.75	-3.875	-0.71428424	-0.27550867	-0.9391506
1276878695295	5.09401	2.4516625	-0.3405087	-4.1431236	0.0	-29.0	-37.75	-3.625	-1.2904118	-0.060159367	-1.1222337
1276878695335	6.3607025	4.5219555	-0.9942854	-1.9392986	0.0	-29.75	-37.75	-3.875	-0.9501217	-0.12672007	-0.9527785
1276878695375	8.349273	8.689782	0.8036005	2.2709503	0.0	-31.0	-36.9375	-2.375	-1.822191	0.06658563	-0.76541674
1276878695405	8.430995	10.841797	2.2609777	4.112338	0.0	-33.0	-35.9375	-1.125	2.6103144	0.16316134	-0.6609562
1276878695445	6.6331096	10.119919	2.3699405	2.5232944	0.0	-35.0625	-34.6875	1.125	2.3593528	0.19341378	-0.5801976
1276878695485	4.903325	8.962189	1.1849703	0.47768593	0.0	-36.8125	-32.6875	3.375	2.0530324	0.11547735	-0.5006236
1276878695525	3.5276701	8.240311	-0.8036005	-0.8070421	0.0	-38.5625	-30.1875	4.875	1.6141452	-0.089411914	-0.40449274
1276878695565	3.0237172	8.349273	-3.718355	-0.17963696	0.0	-39.5625	-27.9375	6.125	1.2338152	-0.39655373	-0.34746057
1276878695605	3.7864566	8.008764	1.56634	-0.81048584	0.0	-40.8125	-25.6875	6.625	2.054182	0.1750039	-0.4416429
1276878695645	4.903325	9.534244	0.23154591	0.91706276	0.0	-41.5625	-23.4375	7.125	1.866137	0.02159363	-0.47501075
1276878695685	4.6036777	13.33432	-2.1111538	4.4571123	0.0	-41.8125	-22.4375	6.625	1.614038	-0.14855398	-0.33243722
1276878695715	3.3778462	7.6954966	1.8387469	-1.2036562	0.0	-42.3125	-20.9375	6.125	1.9955095	0.21539506	-0.4136168
1276878695745	5.243834	7.8861814	1.9477097	-0.1379776	0.0	-42.0625	-20.4375	6.625	2.123021	0.20283335	-0.58680594
1276878695785	7.9270425	11.876944	1.879608	4.595874	0.0	-41.3125	-20.6875	7.125	2.0641975	0.13087878	-0.5885317
1276878695825	5.7886477	10.528529	0.7218784	2.2299385	0.0	-40.8125	-20.6875	7.375	1.9280202	0.06000968	-0.5026942
1276878695865	2.7240696	7.205164	0.6537767	-2.076038	0.0	-40.0625	-21.1875	7.375	1.8994095	0.08467098	-0.36146107
1276878695895	2.3699405	7.273266	1.1441092	-2.0719233	0.0	-40.0625	-21.1875	5.625	1.8888255	0.1484633	-0.3149939
1276878695935	2.9147544	6.4424243	0.14982383	-2.7339516	0.0	-40.8125	-21.1875	3.375	1.715283	0.021184988	-0.42487395
1276878695975	4.9850473	8.580819	-0.9125633	0.15898705	0.0	-41.0625	-21.4375	1.625	1.4914033	-0.09169946	-0.52629614
1276878696005	5.012288	9.615966	-0.08172209	1.0375423	0.0	-41.3125	-21.4375	0.125	1.5647285	-0.0075360946	-0.48049995
1276878696035	4.630918	8.390134	-0.88532263	-0.18253708	0.0	-41.0625	-21.4375	-0.625	1.409108	-0.09212028	-0.5043376
1276878696065	4.903325	8.158588	-1.4573772	-0.17705536	0.0	-40.3125	-21.6875	-0.875	1.2869366	-0.15192734	-0.5411557
1276878696105	3.990762	7.43671	-0.7218784	-1.3359985	0.0	-40.8125	-21.6875	-1.375	1.3921027	-0.085324615	-0.49252048
1276878696145	3.6774938	7.8589406	0.08172209	-1.1294622	0.0	-40.5625	-22.4375	-2.625	1.4875656	0.009418178	-0.4376703
1276878696175	5.8567495	10.079058	1.5390993	1.9516544	0.0	-39.8125	-23.6875	-3.625	1.6463668	0.13127135	-0.52639234
1276878696205	6.66035	9.275456	2.5606253	1.8959627	0.0	-38.5625	-24.9375	-4.625	1.8516825	0.22059269	-0.6227454
1276878696235	6.701211	8.390134	2.8738933	1.3090973	0.0	-36.5625	-26.9375	-4.875	2.0843668	0.2615131	-0.6739485
1276878696275	6.851035	6.932757	4.0588636	0.75148296	0.0	-35.5625	-28.6875	-3.625	2.7927814	0.39459032	-0.77946943
1276878696315	6.1700177	6.510526	4.903325	0.41580868	0.0	-34.5	-29.9375	-2.875	2.9148872	0.5002695	-0.7585518
1276878696355	5.434519	5.053149	2.2609777	-2.0490518	0.0	-33.75	-31.4375	-1.625	-3.138148	0.2957458	-0.82174575
1276878696385	6.238119	5.5162406	2.5606253	-1.0945988	0.0	-32.5	-32.4375	-0.875	-2.9257338	0.2983229	-0.8467348
1276878696425	8.19945	9.043911	3.8681788	2.9990559	0.0	-30.25	-33.4375	-1.625	-3.1375835	0.30686003	-0.73646414
1276878696465	7.9679036	12.639683	2.7649305	5.388543	0.0	-28.5	-34.6875	-3.625	2.251077	0.18298024	-0.5624644
1276878696505	2.4925237	18.537292	-6.2789803	9.923264	0.0	-28.0	-34.1875	-7.125	0.89161485	-0.32387948	-0.1336583
1276878696545	0.3405087	15.173067	-4.5628166	6.0412903	0.0	-28.5	-33.1875	-9.875	0.9656579	-0.2920461	-0.022437885
1276878696585	4.2904096	11.645397	-1.7978859	2.7334967	0.0	-29.5	-32.4375	-11.625	0.7598528	-0.14386617	-0.35299042
1276878696625	9.084772	4.372132	4.4810944	1.226429	0.0	-30.5	-31.6875	-11.125	-1.9761664	0.41823786	-1.1222533
1276878696665	3.759216	2.5333846	-0.14982383	-5.2709923	0.0	-31.0	-31.6875	-9.875	-0.66986334	-0.033038445	-0.97779375
1276878696705	3.445948	2.5606253	-0.10896278	-5.5120916	0.0	-31.0	-32.1875	-7.875	-0.6850417	-0.025375012	-0.93173677
1276878696735	6.0201936	5.09401	0.313268	-1.9142613	0.0	-31.75	-32.1875	-6.375	-0.72534144	0.03970285	-0.86853945
1276878696765	7.8180795	7.7363577	0.27240697	1.1955223	0.0	-32.0	-31.6875	-5.375	-0.003671293	0.024761908	-0.79065204
1276878696805	8.308413	8.894087	0.42223078	2.3717232	0.0	-32.75	-31.4375	-3.375	0.94104165	0.03467749	-0.7513654
1276878696845	7.6954966	8.580819	2.0294318	1.8967562	0.0	-33.75	-31.1875	-1.125	2.5790823	0.17428623	-0.7310584
1276878696875	7.164303	9.193735	2.5333846	2.1210508	0.0	-34.0	-30.6875	1.625	2.52259	0.21402527	-0.6619656
1276878696905	5.9793324	8.921328	2.3426998	1.1856537	0.0	-35.0625	-29.9375	4.875	2.4222562	0.21476907	-0.5904648
1276878696945	4.6036777	7.8861814	1.920469	-0.47531033	0.0	-35.8125	-29.4375	7.875	2.373513	0.20728983	-0.52839655
1276878696985	5.325556	7.6954966	-0.19068487	-0.4461708	0.0	-36.5625	-28.4375	8.875	2.0921125	-0.020372683	-0.6053605
