#timestamp	accel_x	accel_y	accel_z	accel_mag	temperature	mag_x	mag_y	mag_z	azimuth	pitch	roll
1276792540293	3.214402	3.445948	8.008764	-0.514328	0.0	-20.0625	-3.125	-47.875	0.87297785	1.0389436	-0.75064737
1276792540343	3.2961242	3.3778462	7.7772183	-0.7094307	0.0	-20.3125	-2.125	-48.125	0.84692055	1.0253592	-0.7731539
1276792540373	3.255263	3.486809	7.8589406	-0.6133089	0.0	-19.5625	-1.0625	-48.375	0.8060695	1.0252643	-0.75106823
1276792540413	3.214402	3.336985	7.7363577	-0.7889414	0.0	-20.0625	-1.625	-48.6875	0.83461654	1.0311826	-0.7666893
1276792540443	3.255263	3.445948	7.6954966	-0.76828957	0.0	-20.5625	-1.875	-48.125	0.8476358	1.0186986	-0.75695056
1276792540473	3.173541	3.486809	7.9679036	-0.54831886	0.0	-20.5625	-2.125	-48.6875	0.8739447	1.0364856	-0.738398
1276792540506	3.255263	3.568531	7.7772183	-0.6515274	0.0	-20.8125	-2.625	-48.6875	0.84293646	1.0150248	-0.73952216
1276792540549	3.3778462	3.568531	7.7772183	-0.6072273	0.0	-20.3125	-3.125	-48.125	0.81069714	1.007319	-0.75795406
1276792540583	3.3778462	3.486809	7.9679036	-0.47631454	0.0	-20.0625	-2.875	-47.875	0.8354494	1.0235839	-0.7695265
1276792540623	3.3778462	3.3778462	7.7772183	-0.6795025	0.0	-20.0625	-2.875	-47.125	0.84227157	1.0199796	-0.7853982
1276792540663	3.336985	3.255263	7.7772183	-0.7392731	0.0	-20.5625	-2.625	-46.625	0.90636766	1.0308071	-0.79779416
1276792540703	3.405087	3.336985	7.8861814	-0.59134007	0.0	-20.5625	-2.125	-46.875	0.8908296	1.0270364	-0.79549885
1276792540733	3.445948	3.405087	7.9679036	-0.4815941	0.0	-21.0	-2.125	-46.875	0.90938866	1.0245138	-0.7913623
1276792540773	3.445948	3.3778462	7.9270425	-0.52643394	0.0	-21.0	-1.875	-47.375	0.89545447	1.0239857	-0.79537785
1276792540813	3.3778462	3.214402	7.8861814	-0.6450958	0.0	-21.0	-1.875	-47.125	0.9303105	1.0368212	-0.8101865
1276792540844	3.405087	3.2961242	7.6273947	-0.82688427	0.0	-21.5	-2.125	-46.625	0.91973364	1.0148435	-0.8016569
1276792540883	3.3778462	3.3778462	7.5865335	-0.8414297	0.0	-21.5	-2.625	-46.875	0.902309	1.0088475	-0.7853982
1276792540913	3.445948	3.336985	7.6954966	-0.7385359	0.0	-21.75	-3.125	-47.125	0.9194125	1.0133948	-0.80146104
1276792540953	3.5276701	3.405087	7.8861814	-0.5205889	0.0	-21.75	-3.375	-47.375	0.91601455	1.014562	-0.80307806
1276792540983	3.3778462	3.2961242	7.8180795	-0.67447376	0.0	-21.5	-3.625	-47.375	0.9362703	1.0276804	-0.79764247
1276792541023	3.405087	3.2961242	7.8180795	-0.6643629	0.0	-21.25	-3.125	-46.875	0.9281955	1.0258512	-0.8016569
1276792541063	3.445948	3.445948	7.8589406	-0.5593767	0.0	-21.25	-2.625	-46.375	0.91694725	1.0157305	-0.7853982
1276792541104	3.405087	3.568531	7.9270425	-0.47032166	0.0	-21.25	-2.125	-46.625	0.907295	1.0141912	-0.761965
1276792541147	3.445948	3.3778462	7.8180795	-0.6193342	0.0	-21.5	-1.875	-47.125	0.9141142	1.0178189	-0.79537785
1276792541183	3.405087	3.2961242	7.6954966	-0.7689667	0.0	-21.25	-1.875	-47.625	0.8908169	1.01882	-0.8016569
1276792541221	3.445948	3.336985	7.8180795	-0.63427925	0.0	-21.0	-2.125	-47.875	0.8752976	1.0204644	-0.80146104
1276792541254	3.405087	3.336985	7.8180795	-0.6495514	0.0	-20.8125	-2.625	-47.875	0.8719205	1.0231888	-0.79549885
1276792541284	3.445948	3.336985	7.8589406	-0.59942627	0.0	-20.3125	-2.375	-47.625	0.84853846	1.0227852	-0.80146104
1276792541323	3.5276701	3.255263	7.7363577	-0.7021227	0.0	-20.8125	-2.625	-47.375	0.86106783	1.0154662	-0.82553726
1276792541353	3.486809	3.2961242	7.8861814	-0.5755005	0.0	-20.5625	-2.875	-47.125	0.87549555	1.0242049	-0.8135032
1276792541393	3.486809	3.2961242	7.9270425	-0.54056835	0.0	-20.8125	-2.375	-47.125	0.8955424	1.0264969	-0.81350315
1276792541423	3.445948	3.2961242	7.8861814	-0.59085655	0.0	-21.0	-2.375	-47.125	0.90790415	1.0269496	-0.8076167
1276792541454	3.445948	3.255263	7.8180795	-0.6636934	0.0	-21.25	-2.875	-47.375	0.91268176	1.0257304	-0.81384575
1276792541493	3.445948	3.2961242	7.8180795	-0.649065	0.0	-21.25	-2.625	-47.125	0.9131248	1.0231016	-0.8076167
1276792541534	3.5276701	3.255263	7.8861814	-0.5744753	0.0	-21.0	-2.875	-47.375	0.8920213	1.0240222	-0.82553726
1276792541573	3.445948	3.255263	7.8589406	-0.62872887	0.0	-20.8125	-2.875	-47.625	0.88658607	1.0280387	-0.81384575
1276792541615	3.445948	3.173541	7.8589406	-0.65739536	0.0	-20.8125	-2.375	-47.125	0.91027135	1.0332558	-0.82652724
1276792541653	3.445948	3.173541	7.8861814	-0.6339855	0.0	-21.25	-2.375	-47.375	0.9330464	1.0347764	-0.82652724
1276792541693	3.6774938	3.0645783	8.008764	-0.4762745	0.0	-21.5	-1.875	-47.375	0.93482	1.0320525	-0.87605804
1276792541733	3.7864566	3.0237172	7.7772183	-0.6433954	0.0	-22.25	-1.625	-47.125	0.9353526	1.0135975	-0.8969334
1276792541773	4.1814466	2.6423476	7.8589406	-0.520669	0.0	-22.25	-1.0625	-47.125	0.90091217	1.0090442	-1.0072349
1276792541813	4.5219555	3.336985	7.8589406	-0.145051	0.0	-22.5	-0.3125	-46.875	0.8136167	0.9500082	-0.9350508
1276792541853	4.2904096	3.173541	7.5456724	-0.56456375	0.0	-23.6875	-0.0625	-45.875	0.9100438	0.9552305	-0.9339312
1276792541894	4.099725	2.8330324	7.3549876	-0.9224138	0.0	-24.1875	0.4375	-45.625	0.986856	0.9752986	-0.96611595
1276792541934	4.099725	3.255263	7.6273947	-0.5556164	0.0	-25.1875	0.9375	-45.3125	1.0294658	0.9693022	-0.89971244
1276792541973	4.1814466	2.9556155	7.3141265	-0.87823486	0.0	-26.1875	1.4375	-45.3125	1.0590619	0.96000856	-0.9554942
1276792542013	4.7943625	2.7649305	7.0553403	-0.8395672	0.0	-25.6875	1.75	-45.875	0.89543015	0.9056142	-1.0476819
1276792542043	4.9850473	2.7649305	7.1234417	-0.6831112	0.0	-25.9375	1.75	-45.875	0.8820656	0.89590716	-1.0643941
1276792542073	4.7943625	2.6832085	7.0553403	-0.86442757	0.0	-25.9375	1.75	-45.875	0.8820656	0.89590716	-1.0643941
1276792542113	4.7126403	2.6423476	7.3958488	-0.6475258	0.0	-25.6875	1.4375	-46.125	0.95947546	0.9398748	-1.0597801
1276792542153	4.5219555	2.7649305	7.014479	-1.0148449	0.0	-25.9375	0.9375	-45.625	0.9503276	0.92370856	-1.0220033
1276792542195	4.7535014	2.4516625	6.510526	-1.3808937	0.0	-25.9375	0.4375	-45.0625	0.8426267	0.8830732	-1.094621
1276792542235	4.372132	3.214402	6.6331096	-1.2365828	0.0	-25.6875	-1.0625	-45.3125	0.8670852	0.88511163	-0.9368331
1276792542274	4.4810944	3.990762	7.504812	-0.19787407	0.0	-25.4375	-2.875	-44.8125	0.90277994	0.896325	-0.8432115
1276792542313	4.140586	4.5219555	7.668256	0.011428833	0.0	-24.6875	-4.375	-45.875	0.8609318	0.8963202	-0.74140143
1276792542353	4.0180025	5.175732	7.4639506	0.1252737	0.0	-23.6875	-6.4375	-46.125	0.75492007	0.85034955	-0.6601316
1276792542395	4.0180025	4.862464	7.7363577	0.17529011	0.0	-23.25	-6.6875	-46.375	0.7792675	0.8867712	-0.6905912
1276792542433	3.9090397	4.2086873	7.164303	-0.6240101	0.0	-22.75	-6.6875	-47.375	0.72303706	0.89498675	-0.7485022
1276792542473	3.8273177	3.636633	7.246025	-0.8412533	0.0	-23.0	-5.9375	-47.625	0.797437	0.9411254	-0.81094
1276792542513	3.9499009	3.2961242	7.504812	-0.70783997	0.0	-22.75	-4.9375	-47.625	0.8276037	0.96987045	-0.8753801
1276792542561	4.1814466	3.5957718	6.891896	-0.9798565	0.0	-22.25	-4.375	-47.125	0.67278224	0.8959335	-0.86056274
1276792542593	4.0180025	3.990762	7.4639506	-0.43749428	0.0	-22.25	-3.875	-46.625	0.7664325	0.92173475	-0.7887995
1276792542623	4.099725	3.636633	8.008764	-0.102365494	0.0	-22.0	-3.625	-46.125	0.848227	0.9707001	-0.845186
1276792542664	4.2086873	2.982856	7.6954966	-0.54214	0.0	-22.25	-2.625	-46.875	0.83239186	0.9802607	-0.95423007
1276792542713	4.1814466	2.5333846	7.504812	-0.84982395	0.0	-22.25	-1.875	-46.875	0.8438999	0.9934013	-1.0260768
1276792542743	4.2495484	2.6423476	7.8180795	-0.52424526	0.0	-22.5	-1.0625	-47.125	0.89294887	1.0014383	-1.0145051
1276792542784	4.5219555	2.6832085	7.6954966	-0.48633003	0.0	-22.75	-0.8125	-47.125	0.8244849	0.9713865	-1.0352635
1276792542823	4.372132	2.8738933	7.6273947	-0.55722046	0.0	-22.5	-1.3125	-46.375	0.83808976	0.9695549	-0.9892919
1276792542863	4.372132	3.0237172	7.4639506	-0.6431923	0.0	-23.0	-1.0625	-46.875	0.8243764	0.951926	-0.9657378
1276792542893	4.5219555	3.1463003	7.3141265	-0.6500273	0.0	-23.0	-0.5625	-46.625	0.78386384	0.9252646	-0.96290606
1276792542924	4.372132	3.0645783	7.273266	-0.7840357	0.0	-23.0	-0.5625	-46.375	0.81532747	0.9375574	-0.95944345
1276792542963	4.2086873	2.8738933	7.43671	-0.79127693	0.0	-23.0	-0.0625	-46.625	0.88091594	0.9700113	-0.97167486
1276792542993	4.2086873	2.9147544	7.6273947	-0.6204653	0.0	-23.0	-0.0625	-46.625	0.88091594	0.9700113	-0.97167486
1276792543023	4.099725	3.0237172	7.43671	-0.7924795	0.0	-22.5	-0.5625	-46.625	0.85880476	0.97020596	-0.93531644
1276792543053	4.2495484	3.0237172	7.164303	-0.94500446	0.0	-23.0	-0.5625	-46.375	0.82562935	0.9415339	-0.9523683
1276792543083	4.2086873	2.9147544	7.3958488	-0.8117943	0.0	-24.4375	-0.5625	-46.625	0.94334775	0.96531975	-0.9650834
1276792543113	3.636633	2.6423476	6.66035	-1.7712688	0.0	-25.1875	-1.0625	-46.125	1.0288644	0.9770988	-0.9424456
1276792543153	4.5219555	3.568531	6.2789803	-1.2856121	0.0	-26.625	-1.875	-45.625	0.8001131	0.828443	-0.9027023
1276792543193	4.903325	4.099725	6.0474343	-1.0076847	0.0	-26.875	-2.875	-45.875	0.6989769	0.7577506	-0.8744209
1276792543233	4.0588636	4.630918	7.504812	-0.09881973	0.0	-26.375	-4.625	-45.3125	0.9263508	0.88366336	-0.7196623
1276792543263	4.8216033	3.9499009	8.308413	0.5798454	0.0	-26.1875	-5.4375	-45.3125	0.9843852	0.9271694	-0.8844518
1276792543303	4.440233	3.445948	7.6273947	-0.3320856	0.0	-26.1875	-5.6875	-44.8125	1.0187411	0.9357413	-0.91081583
1276792543333	4.5219555	3.6774938	6.851035	-0.81172276	0.0	-25.6875	-4.9375	-44.8125	0.82271516	0.865864	-0.88802636
1276792543373	5.053149	3.9499009	7.0553403	-0.2717743	0.0	-25.9375	-3.875	-44.8125	0.7725599	0.83299744	-0.9073319
1276792543413	4.862464	3.9499009	7.205164	-0.258893	0.0	-25.9375	-3.625	-44.8125	0.8259008	0.85511243	-0.88858515
1276792543443	5.012288	3.718355	7.5456724	-0.014492035	0.0	-25.1875	-3.625	-45.625	0.7966473	0.8797556	-0.9325331
1276792543486	4.6036777	3.718355	7.6273947	-0.15278244	0.0	-24.9375	-3.375	-45.3125	0.88043773	0.9109508	-0.8913825
1276792543523	4.140586	3.3778462	7.8589406	-0.30311203	0.0	-23.25	-2.875	-45.875	0.92515844	0.9736596	-0.88650155
1276792543563	3.759216	3.173541	7.205164	-1.082118	0.0	-22.0	-2.375	-46.375	0.84413785	0.97170985	-0.8696774
1276792543603	3.990762	3.0645783	7.4639506	-0.80507374	0.0	-21.5	-1.0625	-46.875	0.8159178	0.97764385	-0.9159259
1276792543633	4.2495484	3.336985	7.8589406	-0.26950836	0.0	-21.25	-0.8125	-47.625	0.77310216	0.96849716	-0.9051103
1276792543663	4.2495484	2.982856	7.273266	-0.87040424	0.0	-22.25	-0.0625	-47.375	0.78771293	0.95084405	-0.9587809
1276792543693	4.2495484	2.982856	7.504812	-0.6809559	0.0	-22.75	0.4375	-47.625	0.8419716	0.9655862	-0.9587809
1276792543723	4.2495484	3.0237172	7.7363577	-0.4764433	0.0	-23.0	0.1875	-47.125	0.89136916	0.9776271	-0.9523683
1276792543763	4.140586	3.0645783	7.5456724	-0.6702795	0.0	-23.25	0.4375	-46.625	0.90811193	0.97178566	-0.933641
1276792543814	3.990762	2.982856	7.5865335	-0.7303562	0.0	-23.0	0.1875	-46.875	0.9279126	0.98970217	-0.92893547
1276792543853	3.990762	3.255263	7.5865335	-0.6372223	0.0	-22.75	-0.3125	-47.125	0.8786813	0.97441345	-0.8865555
1276792543896	4.0180025	3.173541	7.4639506	-0.75533676	0.0	-22.25	-0.8125	-47.375	0.8318308	0.9695412	-0.9022871
1276792543942	3.990762	3.3778462	7.504812	-0.6601629	0.0	-22.5	-1.0625	-47.875	0.8237096	0.9623079	-0.86838645
1276792543993	3.718355	3.568531	7.4639506	-0.7363062	0.0	-22.25	-1.625	-48.125	0.8227601	0.9664894	-0.805956
1276792544034	3.990762	3.8273177	7.7363577	-0.29740334	0.0	-22.25	-1.875	-47.375	0.807979	0.95025116	-0.80630106
1276792544064	3.636633	3.9499009	7.6954966	-0.42328835	0.0	-21.75	-1.625	-47.625	0.80987865	0.96162325	-0.74412894
1276792544093	3.5276701	4.3312707	7.8589406	-0.16469383	0.0	-20.8125	-1.875	-47.625	0.76123744	0.9528628	-0.6834993
1276792544123	2.6423476	3.759216	7.1234417	-1.329792	0.0	-19.8125	-1.625	-48.125	0.7814595	0.99790996	-0.6126687
1276792544191	2.7649305	4.862464	6.851035	-0.96215534	0.0	-18.8125	-1.875	-48.6875	0.6046394	0.8860984	-0.5170319
1276792544233	1.0760075	5.7886477	6.891896	-0.74218845	0.0	-18.3125	-2.875	-48.9375	0.57293814	0.86380637	-0.18378478
1276792544272	0.95342433	6.3198414	6.238119	-0.8756056	0.0	-16.125	-4.125	-49.6875	0.4588605	0.77326554	-0.14973295
1276792544303	0.6946377	6.5513873	6.1700177	-0.78044796	0.0	-15.1875	-5.4375	-50.1875	0.42809987	0.7526391	-0.10563443
1276792544333	0.6946377	5.938472	6.0882955	-1.2734613	0.0	-13.9375	-5.6875	-50.6875	0.41000542	0.7944583	-0.11644331
1276792544392	0.3405087	5.47538	5.7477865	-1.8610363	0.0	-12.0	-5.6875	-51.1875	0.3619826	0.8087013	-0.062109068
1276792544428	-1.3075534	5.6660647	7.164303	-0.5794506	0.0	-10.5	-6.4375	-50.9375	0.38208228	0.8889859	0.22679885
1276792544493	-0.88532263	5.829509	7.014479	-0.64314175	0.0	-8.3125	-7.6875	-50.4375	0.3274541	0.87178636	0.15071748
1276792544523	-0.6537767	4.944186	6.8237944	-1.3546343	0.0	-5.875	-9.75	-50.9375	0.30105978	0.9396591	0.1314687
1276792544554	-0.23154591	4.944186	6.932757	-1.2883339	0.0	-4.1875	-11.0625	-50.9375	0.22262828	0.95077264	0.046797764
1276792544618	0.040861044	5.2165933	7.082581	-1.0102043	0.0	-3.1875	-10.5	-50.9375	0.1419072	0.9359518	-0.007832739
1276792544653	-0.27240697	3.9499009	7.3141265	-1.4896574	0.0	-2.4375	-10.5	-51.1875	0.20326461	1.0746416	0.068856485
1276792544683	1.0351465	4.399372	8.008764	-0.6106558	0.0	-1.9375	-10.25	-50.6875	-0.02914547	1.0570246	-0.23109068
1276792544713	2.3018389	4.4810944	7.8589406	-0.47168255	0.0	-1.4375	-11.3125	-50.4375	-0.21063994	1.000761	-0.47452992
1276792544743	2.7921712	4.372132	8.730643	0.34893417	0.0	-1.0	-12.5625	-49.9375	-0.35545057	1.0346603	-0.5683401
1276792544773	1.6480621	3.990762	9.575105	0.6969166	0.0	-0.5	-13.0625	-49.1875	-0.46402484	1.147172	-0.39163655
1276792544803	0.42223078	3.990762	9.765789	0.75152683	0.0	-0.25	-13.8125	-48.375	-0.20980069	1.1809049	-0.10540989
1276792544833	0.61291564	4.099725	10.147159	1.1545649	0.0	0.25	-14.125	-47.625	-0.42853972	1.1829693	-0.14840254
1276792544863	0.95342433	4.140586	9.997335	1.056139	0.0	0.5	-14.375	-47.375	-0.57403696	1.1689198	-0.2263183
1276792544893	0.6537767	3.3778462	9.152874	-0.028491974	0.0	1.25	-14.625	-47.375	-0.8596792	1.2112398	-0.19118445
1276792544923	1.1168685	2.7649305	8.812365	-0.50342464	0.0	2.1875	-13.8125	-47.875	-1.064833	1.2445048	-0.38389906
1276792544981	0.313268	2.1792557	8.689782	-0.8422985	0.0	2.9375	-13.0625	-48.375	-1.6226652	1.3226563	-0.14277193
1276792545022	1.607201	2.2609777	8.580819	-0.7885809	0.0	3.9375	-11.3125	-49.1875	-0.85285634	1.2581209	-0.61796635
1276792545053	0.3405087	1.5390993	7.5865335	-2.058085	0.0	3.9375	-9.5	-49.4375	-1.2732416	1.3659332	-0.21773173
1276792545104	1.6480621	2.5606253	7.9270425	-1.3148355	0.0	3.6875	-8.25	-49.6875	-0.5202937	1.2040309	-0.57187504
1276792545133	-0.27240697	2.4108016	9.193735	-0.29818344	0.0	4.375	-6.6875	-49.6875	-0.55676883	1.3127872	0.11251711
1276792545163	-0.84446156	2.1111538	9.615966	0.074487686	0.0	4.625	-6.4375	-49.4375	-0.45525628	1.3386022	0.38050637
1276792545198	-0.040861044	1.7978859	9.384419	-0.25147438	0.0	5.125	-5.1875	-48.9375	-0.8963135	1.3814605	0.022723362
1276792545248	0.88532263	1.3756552	9.152874	-0.50872993	0.0	5.875	-3.625	-48.6875	-0.67092884	1.3939315	-0.5718377
1276792545283	1.1168685	0.92618364	9.765789	0.06633568	0.0	5.125	-1.875	-48.375	-0.44731936	1.4233016	-0.8784619
1276792545324	1.1441092	0.3405087	8.580819	-1.143199	0.0	5.125	0.4375	-48.6875	-0.08889696	1.4325705	-1.2815254
1276792545353	0.6946377	0.88532263	9.343558	-0.3955717	0.0	5.375	1.4375	-49.1875	-0.3137385	1.4509368	-0.6652894
1276792545383	0.08172209	1.1168685	9.466142	-0.27449894	0.0	6.125	2.5	-49.1875	-0.5980559	1.4530429	-0.07304057
1276792545413	-1.0351465	1.0351465	10.228881	0.5264549	0.0	7.5625	3.25	-49.1875	-1.0939397	1.4286451	0.7853982
1276792545453	-1.334794	1.3756552	10.841797	1.2032843	0.0	8.8125	3.0	-48.6875	-1.0747348	1.395808	0.7703239
1276792545493	-0.9125633	1.8387469	10.991621	1.3750086	0.0	10.5	3.0	-47.875	-1.0035319	1.3861681	0.46068028
1276792545533	-0.42223078	1.5390993	10.528529	0.8421545	0.0	12.0	2.0	-46.875	-1.1243101	1.4203563	0.26774904
1276792545573	-0.46309182	1.607201	9.724928	0.061063766	0.0	13.4375	0.9375	-46.125	-1.2053853	1.4004726	0.2805368
1276792545613	-1.8387469	1.9477097	10.528529	1.0572577	0.0	14.9375	-0.0625	-45.3125	-1.4612197	1.3216736	0.7566291
1276792545653	-1.7570249	1.7978859	10.419566	0.91187954	0.0	16.375	-1.625	-44.8125	-1.7343717	1.3340565	0.7739044
1276792545693	-1.3075534	1.334794	9.00305	-0.6117449	0.0	17.125	-2.625	-44.3125	-1.9845327	1.3661584	0.77508926
1276792545733	-2.0294318	1.9885708	9.466142	0.076711655	0.0	18.0625	-4.125	-44.0625	-1.8187615	1.279198	0.79556733
1276792545773	-1.4573772	2.3426998	9.575105	0.1580286	0.0	18.0625	-5.6875	-43.3125	-1.7170072	1.2902505	0.55650616
1276792545813	-1.6480621	2.070293	8.894087	-0.5272646	0.0	17.375	-6.6875	-43.8125	-1.868508	1.2816161	0.67232937
1276792545853	-1.879608	2.4516625	8.117727	-1.1209679	0.0	17.375	-6.9375	-44.5625	-1.4849035	1.2071615	0.6540827
1276792545883	-3.1054392	3.6774938	8.19945	-0.29882812	0.0	17.125	-7.4375	-44.8125	-0.78710276	1.0399717	0.7012599
1276792545923	-4.0588636	4.140586	7.8180795	-0.0731411	0.0	17.125	-7.4375	-45.875	-0.48174235	0.9326693	0.7754317
1276792545963	-2.5333846	4.2495484	7.5865335	-0.7494879	0.0	16.875	-7.6875	-45.875	-0.7097566	0.99292636	0.5375866
1276792546003	-2.3426998	3.336985	7.668256	-1.1218443	0.0	16.375	-8.0	-45.875	-0.8687159	1.0821108	0.61209434
1276792546043	-2.9147544	2.8330324	7.668256	-1.1277094	0.0	15.1875	-8.0	-46.125	-0.6022528	1.0833833	0.7996152
1276792546083	-2.982856	3.5957718	7.3549876	-1.0932779	0.0	14.4375	-8.5	-46.375	-0.45696458	1.0048909	0.6924986
1276792546124	-2.6423476	3.759216	6.973618	-1.4552994	0.0	13.9375	-9.0	-46.625	-0.45239654	0.98818505	0.6126687
1276792546163	-2.1383946	3.445948	7.1234417	-1.6096563	0.0	12.9375	-10.25	-47.125	-0.5174321	1.0532403	0.55539536
1276792546203	-2.4108016	3.990762	7.4639506	-1.006155	0.0	12.25	-11.0625	-47.125	-0.39088735	1.0124426	0.5434255
1276792546243	-2.6832085	4.440233	7.5865335	-0.61585236	0.0	11.5	-12.0625	-47.125	-0.26710692	0.97099686	0.54357123
1276792546283	-2.3426998	4.2086873	7.0553403	-1.2638683	0.0	10.75	-12.8125	-47.625	-0.23354983	0.97176695	0.5079225
1276792546323	-2.1111538	4.8216033	7.164303	-0.9166517	0.0	10.5	-13.3125	-47.125	-0.28361988	0.9371661	0.41270676
1276792546363	-2.6014864	4.2086873	7.5456724	-0.7834606	0.0	10.5	-14.125	-47.125	-0.13383207	0.9904145	0.55363876
1276792546403	-2.982856	4.440233	7.3958488	-0.67912674	0.0	9.75	-14.375	-47.375	-0.005649695	0.94462955	0.59153366
1276792546443	-2.2609777	4.944186	6.701211	-1.1774426	0.0	9.0625	-14.625	-46.875	-0.13189523	0.88920826	0.42890823
1276792546485	-1.7978859	4.862464	7.5456724	-0.65169907	0.0	8.0625	-15.375	-47.125	-0.17661507	0.96881926	0.35415816
1276792546524	-2.0294318	5.5162406	7.6954966	-0.12325382	0.0	7.0625	-16.125	-46.875	-0.07307426	0.9185305	0.35253263
1276792546563	-2.9556155	4.399372	5.7886477	-1.9581738	0.0	7.3125	-17.125	-46.125	0.19461082	0.8294357	0.5915664
1276792546604	-4.099725	4.630918	6.510526	-0.8266678	0.0	8.5625	-18.1875	-46.375	0.30463085	0.81104064	0.7246307
1276792546643	-3.5276701	4.5628166	6.1700177	-1.3607712	0.0	9.75	-18.4375	-46.375	0.21078788	0.81910634	0.6581434
1276792546683	-5.012288	6.973618	4.2086873	-0.24278927	0.0	11.5	-18.4375	-46.625	0.043980308	0.4556672	0.6231994
1276792546723	-4.3312707	7.0553403	5.5162406	0.14154816	0.0	12.5	-18.4375	-47.125	-0.03743604	0.58775777	0.55057716
1276792546763	-4.2495484	7.082581	5.2165933	-0.03759384	0.0	12.25	-18.1875	-46.875	-0.041027196	0.5633145	0.54041946
1276792546803	-3.5957718	5.8567495	5.9793324	-0.6971216	0.0	11.5	-18.1875	-46.875	-0.013388384	0.7160133	0.55061626
1276792546843	-3.2961242	4.2495484	6.66035	-1.2460804	0.0	10.25	-17.4375	-47.125	0.18282318	0.89151824	0.65971047
1276792546883	-3.636633	3.3778462	6.66035	-1.5003147	0.0	9.75	-16.625	-47.625	0.38571408	0.9303678	0.8222746
1276792546924	-4.0588636	3.6774938	7.014479	-0.9071417	0.0	9.5625	-16.125	-47.375	0.3523487	0.90785795	0.8346541
1276792546963	-4.5628166	5.407278	5.5571017	-0.8100214	0.0	10.5	-15.875	-47.625	0.085648336	0.66579825	0.70090044
1276792547003	-4.0180025	5.9793324	5.134871	-0.95997524	0.0	11.75	-16.875	-47.375	-0.012780935	0.619256	0.59167325
1276792547043	-4.099725	6.238119	4.5628166	-1.057869	0.0	12.5	-18.1875	-46.625	-0.01616806	0.5486519	0.58142376
1276792547083	-4.0180025	4.630918	5.407278	-1.6317863	0.0	13.6875	-19.6875	-46.125	0.13536656	0.7227528	0.7146503
1276792547123	-5.9793324	7.164303	4.5628166	0.5807915	0.0	14.4375	-21.25	-45.0625	0.08633643	0.4547779	0.6954858
1276792547163	-6.2789803	9.384419	2.8330324	1.8346128	0.0	15.375	-22.25	-44.8125	-0.010992295	0.2458298	0.5896754
1276792547203	-5.09401	8.962189	4.7943625	1.5624161	0.0	16.125	-22.25	-44.3125	-0.10511584	0.43532202	0.5168518
1276792547233	-5.366417	7.205164	5.706926	0.8367424	0.0	16.875	-21.75	-44.5625	-0.023699487	0.56592196	0.64016575
1276792547284	-5.09401	5.597963	6.3607025	0.07993984	0.0	17.375	-21.25	-44.8125	0.08682292	0.6988878	0.73829925
1276792547323	-3.405087	2.7921712	5.706926	-2.5983324	0.0	16.875	-21.25	-44.8125	0.7321773	0.91360956	0.8839787
1276792547353	-3.3642259	3.990762	5.434519	-2.2715197	0.0	16.625	-21.5	-44.5625	0.10125425	0.80556804	0.7004181
1276792547383	-2.982856	5.47538	4.7126403	-1.9908843	0.0	16.375	-22.25	-44.5625	-0.19366841	0.64721364	0.4988237
1276792547413	-3.9090397	6.8237944	4.2086873	-0.8871317	0.0	15.375	-23.0	-44.5625	-0.07252705	0.49138948	0.5202202
1276792547453	-4.5900574	7.8180795	4.2904096	0.22323608	0.0	15.1875	-23.25	-44.3125	-0.046994492	0.44201595	0.5308862
1276792547493	-4.7943625	7.205164	4.7126403	0.047753334	0.0	14.9375	-23.8125	-44.3125	0.029644068	0.4986346	0.58712965
1276792547533	-3.2961242	5.175732	6.0201936	-1.2104082	0.0	14.1875	-24.3125	-44.0625	0.09271711	0.7758576	0.5670697
1276792547573	-3.9090397	5.5162406	5.8976107	-0.8349552	0.0	13.9375	-24.5625	-43.8125	0.19216654	0.7173068	0.61650246
1276792547613	-4.9850473	5.829509	5.7477865	-0.22171879	0.0	13.6875	-24.8125	-44.5625	0.2923203	0.64308745	0.70747066
1276792547653	-4.5900574	6.891896	5.325556	0.038571358	0.0	13.1875	-24.8125	-44.5625	0.12363773	0.57154006	0.5875464
1276792547693	-4.140586	7.1234417	5.134871	-0.09816074	0.0	13.4375	-24.8125	-44.3125	0.03751695	0.5573101	0.5265276
1276792547733	-3.9771416	5.8976107	4.9850473	-1.1204443	0.0	13.9375	-24.8125	-44.0625	0.11648255	0.611265	0.5933132
1276792547773	-4.4810944	3.7864566	4.7943625	-2.2301488	0.0	14.6875	-25.5625	-42.8125	0.57178473	0.68515587	0.86922103
1276792547813	-3.636633	4.6036777	4.2086873	-2.586401	0.0	15.625	-26.625	-41.75	0.25768903	0.6222939	0.66857713
1276792547853	-3.636633	3.336985	2.4925237	-4.277343	0.0	15.625	-28.875	-40.25	0.45420095	0.46764353	0.82834053
1276792547883	-4.099725	3.8681788	2.2201166	-3.7486415	0.0	14.9375	-31.6875	-38.1875	0.49722368	0.375219	0.81444985
1276792547923	-4.399372	0.8036005	-0.38136974	-5.318255	0.0	14.4375	-34.75	-34.875	0.71360135	-0.08507052	1.3901256
1276792547963	-2.1383946	10.337844	-2.8738933	1.1342373	0.0	13.6875	-38.8125	-30.3125	-0.13780388	-0.26579309	0.20397441
1276792548003	-4.8216033	6.891896	0.23154591	-1.3923941	0.0	13.4375	-42.125	-26.1875	0.48357835	0.02752176	0.61046064
1276792548043	-5.012288	10.882658	1.4982382	2.268116	0.0	13.6875	-44.4375	-23.125	0.3432749	0.12440071	0.4316138
1276792548083	-3.2961242	9.425281	1.3075534	0.26360512	0.0	14.4375	-46.0	-20.625	0.109243535	0.13021077	0.33641732
1276792548123	-3.3642259	7.8180795	0.53119355	-1.2788982	0.0	16.125	-46.0	-19.8125	0.19863582	0.06233034	0.40636268
1276792548163	-4.7126403	10.760075	2.3018389	2.1635904	0.0	17.125	-45.75	-18.5625	0.29319862	0.19350208	0.4128088
1276792548205	-3.7864566	11.073342	0.7627395	1.9210062	0.0	18.3125	-46.5	-15.0	-0.19231431	0.065083615	0.32947952
1276792548243	-3.5957718	13.102775	-0.08172209	3.7808065	0.0	17.125	-47.0	-11.6875	-0.32777852	-0.0060145603	0.2678346
1276792548283	-4.0180025	13.211738	-1.4165162	4.0750246	0.0	14.4375	-48.0	-7.875	0.01185365	-0.102220096	0.2952357
1276792548323	-2.1111538	11.223166	-4.4810944	2.4610567	0.0	11.25	-49.3125	-4.0	-0.08722099	-0.37392887	0.18593407
1276792548363	0.3405087	9.193735	-6.932757	1.7130642	0.0	5.875	-50.3125	-0.9375	-0.24540903	-0.64577395	-0.037020117
1276792548403	2.1792557	6.701211	-2.070293	-2.4621625	0.0	0.25	-50.5625	0.5625	-0.88491094	-0.28575706	-0.31441575
1276792548443	4.3312707	1.9885708	-1.9885708	-4.6424723	0.0	-5.375	-50.5625	0.0625	-1.3470278	-0.39528382	-1.1403846
1276792548483	3.173541	3.6774938	0.08172209	-4.948461	0.0	-9.5625	-50.0625	-2.5	-1.501916	0.016822305	-0.71197176
1276792548524	3.214402	4.630918	0.8036005	-4.1124816	0.0	-10.0	-49.3125	-6.3125	-1.5844842	0.14159963	-0.6067671
1276792548563	0.88532263	2.5333846	-0.29964766	-7.10635	0.0	-7.8125	-49.8125	-7.5625	-0.60783166	-0.111197285	-0.3361958
1276792548603	-2.3018389	2.152015	-6.0882955	-2.9512167	0.0	-3.4375	-50.5625	-4.5	0.9105127	-1.0931902	0.8190246
1276792548643	-6.742072	6.782933	-16.317177	9.106678	0.0	1.9375	-50.0625	1.0625	0.8259428	-1.0406523	0.782377
1276792548683	-6.3607025	8.62168	-17.393185	10.621634	0.0	6.875	-49.8125	6.4375	0.6123079	-1.0186994	0.6356192
1276792548724	-3.0237172	8.240311	-10.269742	3.7030935	0.0	10.0	-49.3125	10.0	0.23808703	-0.8635793	0.3516876
1276792548763	-1.1168685	8.19945	-6.238119	0.55638504	0.0	11.5	-48.25	10.5	-0.22504807	-0.64595175	0.13537945
1276792548803	-1.7978859	8.008764	-7.4639506	1.2876387	0.0	11.5	-48.8125	9.5	-0.019801175	-0.73795205	0.22082877
1276792548843	-2.6423476	8.158588	-10.7192135	3.9209175	0.0	10.5	-49.3125	8.75	0.1532689	-0.8960301	0.31321234
1276792548883	-2.5333846	7.0553403	-9.80665	2.5370226	0.0	10.25	-49.0625	7.6875	0.19683896	-0.91813064	0.344735
1276792548923	-0.84446156	6.5513873	-7.5865335	0.25263882	0.0	10.0	-49.0625	6.9375	-0.10967909	-0.8544073	0.12819129
1276792548963	-0.61291564	7.246025	-6.6331096	0.03604698	0.0	10.5	-49.0625	6.4375	-0.2163635	-0.73949075	0.08438559
1276792549003	-0.38136974	7.6273947	-5.9793324	-0.10742283	0.0	10.75	-49.0625	5.6875	-0.30785912	-0.66425806	0.049958393
1276792549043	-0.46309182	8.921328	-4.5628166	0.22449303	0.0	11.0	-49.3125	5.4375	-0.4418759	-0.4722207	0.051861852
1276792549083	-0.7627395	9.234595	-3.255263	0.014564514	0.0	11.5	-50.0625	5.1875	-0.5505741	-0.33784235	0.082408816
1276792549123	-0.7627395	8.281172	-3.9499009	-0.60006046	0.0	11.75	-50.3125	5.1875	-0.38933533	-0.44341835	0.09184612
1276792549163	0.88532263	7.4639506	-4.5900574	-0.99966526	0.0	11.5	-50.0625	5.9375	-0.71024257	-0.5482374	-0.118061535
1276792549204	0.88532263	7.205164	-4.9850473	-1.0004663	0.0	11.75	-50.0625	5.4375	-0.6612492	-0.6017487	-0.12226051
1276792549243	-0.040861044	8.962189	-4.2086873	0.09463978	0.0	13.6875	-49.5625	4.125	-0.6595824	-0.43903318	0.004559239
1276792549283	-1.920469	7.6273947	-2.2609777	-1.6226797	0.0	17.125	-47.75	2.125	-0.39387473	-0.27990988	0.24665862
1276792549323	-1.8387469	7.205164	-1.4573772	-2.2290964	0.0	21.5	-46.5	-0.9375	-0.7216048	-0.19353408	0.24986534
1276792549364	-2.070293	9.575105	-0.42223078	-0.0011911392	0.0	25.1875	-44.9375	-4.0	-1.1864138	-0.043074105	0.21293835
1276792549403	-2.3018389	9.343558	0.040861044	-0.1836462	0.0	26.625	-44.1875	-6.8125	-1.1629406	0.0042461962	0.24154581
1276792549443	-2.7921712	9.697687	-0.29964766	0.28944492	0.0	26.1875	-45.1875	-8.625	-0.89629996	-0.02968392	0.28033897
1276792549483	-2.7240696	9.425281	0.10896278	0.0049934387	0.0	24.6875	-45.5	-9.125	-0.913004	0.011105685	0.28135076
1276792549524	-1.879608	9.275456	-1.6480621	-0.20023918	0.0	22.5	-46.75	-6.8125	-0.694148	-0.17241149	0.1999358
1276792549563	-0.61291564	9.00305	-1.6480621	-0.6335001	0.0	20.5625	-48.0	-2.5	-0.99041975	-0.18064235	0.067973785
1276792549593	-0.0	9.112013	-4.9850473	0.579854	0.0	18.5625	-48.25	2.375	-0.7221142	-0.5006026	0.0
1276792549633	-0.040861044	8.62168	-7.7363577	1.7772303	0.0	16.875	-48.5625	8.25	-0.5634648	-0.7313237	0.004739301
1276792549673	0.5720546	7.246025	-8.499097	1.3766756	0.0	15.875	-48.0	12.5625	-0.6235997	-0.86328137	-0.07878397
1276792549713	1.0351465	6.66035	-8.19945	0.80762196	0.0	14.9375	-47.5	14.625	-0.7189694	-0.8827575	-0.15418568
1276792549753	0.6946377	6.6331096	-7.3141265	0.09168911	0.0	14.1875	-47.25	14.875	-0.678442	-0.83147293	-0.10434246
1276792549793	0.23154591	7.164303	-7.014479	0.22249603	0.0	14.4375	-48.0	12.8125	-0.58608556	-0.7745709	-0.032308146
1276792549833	0.61291564	7.3549876	-6.0882955	-0.23905659	0.0	14.1875	-48.5625	10.75	-0.6959178	-0.6897515	-0.08314123
1276792549873	-0.23154591	7.43671	-5.053149	-0.81262016	0.0	13.6875	-48.5625	8.5	-0.5361888	-0.59660083	0.031125477
1276792549914	-0.040861044	7.6273947	-5.6660647	-0.3049078	0.0	12.9375	-48.8125	7.6875	-0.5041171	-0.63890713	0.005357092
1276792549953	0.7218784	7.6954966	-6.4015636	0.22937489	0.0	12.0	-48.8125	8.25	-0.60381883	-0.69171435	-0.09353161
1276792549994	-0.040861044	7.9679036	-6.742072	0.6310072	0.0	11.0	-49.0625	9.0	-0.40812767	-0.7022505	0.00512816
1276792550034	-1.4982382	8.390134	-6.742072	1.0604839	0.0	10.5	-49.3125	10.5	-0.072299995	-0.66926455	0.17670886
1276792550073	-0.6537767	8.008764	-6.701211	0.6563301	0.0	10.25	-49.8125	10.75	-0.25060797	-0.69510835	0.08145205
1276792550113	0.46309182	8.117727	-6.1700177	0.40026283	0.0	10.25	-49.5625	10.75	-0.55634207	-0.6491306	-0.056985214
1276792550153	0.08172209	7.9679036	-6.2789803	0.33828735	0.0	10.25	-49.5625	10.25	-0.44499108	-0.6673764	-0.01025605
1276792550193	1.3075534	8.308413	-4.9850473	-0.029630661	0.0	10.25	-49.5625	10.0	-0.85366267	-0.53503823	-0.15609674
1276792550224	1.0760075	9.193735	-4.0180025	0.28428173	0.0	9.0625	-49.0625	10.25	-0.9932933	-0.4095314	-0.116507
1276792550263	-0.14982383	10.228881	-3.636633	1.0504923	0.0	6.875	-49.5625	10.25	-0.7224833	-0.34155542	0.014646091
1276792550293	0.3405087	9.656827	-2.4925237	0.17247486	0.0	5.375	-49.8125	10.5	-1.2688787	-0.2524466	-0.035246328
1276792550323	1.1849703	7.3549876	-8.853226	1.7639856	0.0	4.375	-50.0625	11.3125	-0.3885744	-0.8712681	-0.15973847
1276792550363	0.5720546	5.5571017	-5.284695	-2.1166158	0.0	5.375	-50.0625	13.0625	-0.4061122	-0.7576462	-0.10257986
1276792550403	0.42223078	5.597963	-6.973618	-0.8541746	0.0	7.8125	-49.0625	15.125	-0.3870255	-0.89300513	-0.075283244
1276792550443	1.3756552	7.8589406	-10.310603	3.2303705	0.0	9.3125	-48.0	17.125	-0.59749424	-0.91223115	-0.1732877
1276792550483	1.920469	5.8567495	-8.267551	0.50558186	0.0	9.3125	-47.0	18.6875	-0.8112402	-0.9301721	-0.31685892
1276792550524	2.152015	5.407278	-7.504812	-0.30970192	0.0	8.0625	-45.75	20.5	-0.9177664	-0.9111908	-0.378768
1276792550563	2.4925237	4.944186	-7.9679036	-0.1038084	0.0	5.625	-44.9375	22.0	-0.94321865	-0.9634981	-0.46694794
1276792550603	2.2609777	5.243834	-8.730643	0.62570095	0.0	4.1875	-44.4375	22.75	-0.81246465	-0.9915613	-0.40708408
1276792550643	2.8330324	5.2165933	-8.499097	0.56029606	0.0	3.6875	-44.1875	22.75	-0.95089746	-0.9611079	-0.49751553
1276792550683	2.3699405	5.2165933	-8.158588	0.16290474	0.0	3.4375	-44.6875	21.75	-0.8334178	-0.9585347	-0.42643073
1276792550713	1.9885708	4.630918	-7.6546354	-0.6418667	0.0	3.9375	-45.75	21.0	-0.77184004	-0.98853767	-0.40560153
1276792550753	2.4925237	4.7535014	-8.076866	-0.1090107	0.0	3.6875	-46.25	20.5	-0.8590665	-0.9842718	-0.48294148
1276792550793	3.1054392	5.8567495	-7.014479	-0.15531921	0.0	2.4375	-46.5	20.1875	-1.0061578	-0.8136352	-0.48754013
1276792550833	5.284695	6.8237944	-6.973618	1.2894535	0.0	1.25	-47.0	19.4375	-1.3159764	-0.6795904	-0.6589671
1276792550873	4.671779	8.689782	-5.8158884	1.6459646	0.0	-1.6875	-47.0	19.1875	-1.3391697	-0.53265446	-0.49328682
1276792550914	4.0588636	9.275456	-3.6774938	0.96518517	0.0	-4.375	-46.75	18.9375	-1.7440956	-0.3484049	-0.41248748
1276792550953	3.990762	6.3198414	-6.238119	-0.07111168	0.0	-5.375	-46.75	19.4375	-1.0305789	-0.6954845	-0.56323516
1276792550993	3.5276701	5.6660647	-5.8976107	-0.89987946	0.0	-5.625	-46.5	20.1875	-0.9906097	-0.7236831	-0.55686885
1276792551033	4.140586	5.829509	-4.4810944	-1.3681765	0.0	-4.1875	-46.75	19.4375	-1.3602062	-0.55981725	-0.6175923
1276792551073	5.053149	5.597963	-5.284695	-0.59798527	0.0	-2.4375	-47.5	17.4375	-1.3451188	-0.6112394	-0.73429185
1276792551113	2.3018389	2.1792557	-3.445948	-5.124538	0.0	-1.6875	-48.5625	14.125	-1.1342688	-0.82711524	-0.81274694
1276792551153	4.2495484	6.851035	-3.2961242	-1.0968981	0.0	-3.4375	-48.8125	10.75	-1.2958832	-0.38811105	-0.55519676
1276792551193	2.5606253	9.888372	-6.428804	2.262576	0.0	-5.375	-48.8125	9.25	-0.37137422	-0.56174135	-0.25338724
1276792551233	2.070293	8.19945	-10.147159	3.4025097	0.0	-5.375	-48.5625	10.75	-0.21690886	-0.8760109	-0.24732241
1276792551273	0.27240697	7.3958488	-7.8861814	1.0083694	0.0	-2.6875	-47.25	14.125	0.038091123	-0.8171344	-0.03681577
1276792551303	-0.6537767	6.6331096	-7.8861814	0.5189209	0.0	2.9375	-47.0	16.375	0.066380955	-0.86910665	0.098245315
1276792551333	-5.012288	7.5456724	-9.275456	3.1584682	0.0	8.3125	-46.75	16.625	0.770044	-0.7972197	0.5863346
1276792551373	-3.214402	8.308413	-8.349273	2.402873	0.0	13.1875	-47.25	13.8125	0.20101051	-0.7530028	0.36914966
1276792551403	-2.9147544	7.8180795	-4.903325	-0.12880135	0.0	17.125	-47.25	7.1875	0.023868632	-0.5312998	0.3568601
1276792551443	-5.09401	9.575105	-2.2609777	1.2723207	0.0	20.0625	-46.75	-0.4375	0.37535098	-0.20552213	0.4889231
1276792551483	-3.718355	8.049625	-4.2086873	0.008423805	0.0	22.5	-45.5	-9.125	-0.044821538	-0.4431622	0.43272963
1276792551524	-1.2258313	9.275456	-1.879608	-0.26360607	0.0	21.5	-43.1875	-18.0625	-0.53040075	-0.19825728	0.13139713
1276792551563	0.53119355	9.615966	0.42223078	-0.16677284	0.0	17.875	-40.875	-25.9375	-0.69381386	0.04381445	-0.055184703
1276792551603	2.4516625	7.8861814	2.4516625	-1.1919441	0.0	12.5	-37.0625	-33.375	-0.7845323	0.28857914	-0.30140907
1276792551664	1.6889231	7.082581	3.990762	-1.5035429	0.0	7.0625	-32.1875	-39.75	-0.6080643	0.5013784	-0.2340898
1276792551706	0.8036005	3.8681788	6.1700177	-2.4801435	0.0	2.9375	-25.3125	-44.8125	-1.1288764	1.001258	-0.20483288
1276792551743	-1.2258313	4.671779	7.3958488	-0.97337437	0.0	0.25	-17.6875	-49.1875	0.3271123	0.99227375	0.25660604
1276792551783	-1.4573772	4.4810944	9.656827	0.93850994	0.0	0.25	-11.0625	-50.9375	0.24352656	1.1168284	0.31443807
1276792551823	-2.8738933	4.440233	10.337844	1.8056688	0.0	1.4375	-5.4375	-51.75	0.09264021	1.0978894	0.574432
1276792551863	-2.3699405	3.636633	11.182305	2.1885853	0.0	4.375	-2.125	-52.25	-0.16525373	1.2005241	0.5775591
1276792551903	-1.9885708	3.1054392	11.563675	2.330761	0.0	7.5625	0.1875	-50.9375	-0.50365	1.2620983	0.56956214
1276792551933	-1.1168685	3.568531	11.073342	1.8809814	0.0	10.25	1.75	-49.9375	-0.6127407	1.2451403	0.30331945
1276792551973	-0.7218784	2.1111538	9.507003	-0.041344643	0.0	12.9375	2.0	-49.1875	-0.96093446	1.3402817	0.32947242
1276792552013	-0.19068487	2.8330324	8.62168	-0.7294369	0.0	15.625	1.75	-47.625	-0.79012847	1.2526463	0.06720632
1276792552053	-0.61291564	2.4925237	9.343558	-0.11694336	0.0	17.875	0.9375	-47.125	-1.0866873	1.3026991	0.24111767
1276792552093	-0.7218784	3.0237172	9.425281	0.118061066	0.0	19.5625	-0.5625	-47.125	-1.0870925	1.2522064	0.23435207
1276792552133	-0.19068487	3.5957718	10.528529	1.3206072	0.0	20.5625	-1.625	-46.625	-1.0213016	1.2412604	0.05298068
1276792552173	0.14982383	5.175732	11.073342	2.417488	0.0	20.3125	-2.625	-46.375	-0.8528954	1.1334026	-0.028939288
1276792552215	0.23154591	5.8976107	10.882658	2.5734816	0.0	20.0625	-4.9375	-45.625	-0.8410001	1.0738493	-0.039240815
1276792552253	-0.10896278	5.325556	9.615966	1.1860838	0.0	19.3125	-7.4375	-45.625	-0.8981947	1.0649332	0.020457504
1276792552293	0.38136974	5.134871	8.499097	0.13050175	0.0	17.875	-10.75	-45.3125	-0.87847507	1.0261006	-0.07413445
1276792552333	0.19068487	5.053149	7.3958488	-0.8473387	0.0	16.375	-14.375	-45.625	-0.865156	0.97107506	-0.037717953
1276792552384	0.6537767	5.012288	6.701211	-1.4128027	0.0	14.1875	-18.1875	-45.3125	-0.85245264	0.92454684	-0.12970254
1276792552424	1.4982382	5.706926	5.6252036	-1.6545563	0.0	11.75	-21.5	-44.3125	-0.70477915	0.76153296	-0.25673622
1276792552463	1.6889231	6.0201936	5.134871	-1.715786	0.0	9.75	-24.5625	-43.5625	-0.6675118	0.6875562	-0.27351215
1276792552504	2.070293	5.938472	4.2495484	-2.2165103	0.0	7.8125	-27.625	-42.3125	-0.6449657	0.594238	-0.33544835
1276792552543	2.6014864	5.6660647	3.568531	-2.6228886	0.0	5.875	-29.125	-41.25	-0.63239336	0.51984966	-0.43042424
1276792552584	3.2961242	5.5571017	2.9556155	-2.7016182	0.0	3.3125	-30.125	-39.5625	-0.6129551	0.42903018	-0.5353581
1276792552623	3.6774938	5.597963	2.4925237	-2.6600552	0.0	1.375	-31.25	-37.5625	-0.60706764	0.35625923	-0.5812345
1276792552663	3.9090397	5.706926	2.2201166	-2.541768	0.0	-0.0625	-32.5	-36.0625	-0.6112813	0.31056395	-0.60056335
1276792552703	4.2495484	6.1291566	1.9477097	-2.0982914	0.0	-1.0625	-34.3125	-35.0	-0.61241317	0.255444	-0.60623765
1276792552733	4.0588636	6.701211	2.0294318	-1.7134933	0.0	-1.3125	-35.3125	-33.75	-0.6032205	0.25346422	-0.54459363
1276792552773	3.6774938	7.3958488	2.2201166	-1.253788	0.0	-3.0	-35.0625	-32.4375	-0.51515424	0.262583	-0.46143523
1276792552813	3.1463003	7.8180795	2.5333846	-1.0066719	0.0	-3.75	-35.8125	-31.6875	-0.4518862	0.29201794	-0.38260722
1276792552853	3.0237172	7.9679036	3.336985	-0.6542835	0.0	-3.75	-36.375	-30.9375	-0.5332731	0.37320697	-0.3626988
1276792552893	2.5333846	8.499097	3.5276701	-0.26216793	0.0	-3.5	-36.375	-30.6875	-0.4320361	0.37858182	-0.28969157
1276792552933	2.152015	8.812365	3.5276701	-0.07354164	0.0	-1.75	-36.875	-30.4375	-0.4333175	0.3708848	-0.23951624
1276792552973	1.5390993	9.084772	3.990762	0.23466873	0.0	-0.3125	-36.875	-30.1875	-0.41639125	0.40871888	-0.16782181
1276792553013	0.9942854	9.466142	4.4810944	0.7136469	0.0	0.9375	-36.875	-29.625	-0.40294078	0.4400089	-0.10465223
1276792553053	0.92618364	8.812365	4.4810944	0.122891426	0.0	2.375	-37.125	-29.625	-0.5632033	0.46820948	-0.104716025
1276792553093	0.7218784	7.3549876	4.630918	-1.0852766	0.0	3.375	-36.375	-29.375	-0.8688681	0.5597625	-0.0978348
1276792553133	0.50395286	7.082581	4.7126403	-1.2845669	0.0	4.8125	-36.125	-29.625	-0.9794117	0.5859505	-0.071034126
1276792553173	0.3405087	7.6954966	4.630918	-0.8187685	0.0	6.3125	-35.8125	-29.9375	-0.81958735	0.5412879	-0.044218946
1276792553215	0.38136974	7.6954966	4.862464	-0.69568634	0.0	7.5	-35.5625	-29.25	-0.99710006	0.5629623	-0.04951701
1276792553253	0.10896278	8.008764	4.5628166	-0.5886526	0.0	8.0	-35.3125	-28.5	-0.8573303	0.51782334	-0.013604603
1276792553294	-0.040861044	8.19945	4.0180025	-0.67555046	0.0	8.75	-35.0625	-28.0	-0.72414356	0.45563754	0.0049833474
1276792553334	-0.19068487	8.008764	3.5957718	-1.0256348	0.0	9.6875	-34.8125	-27.5	-0.6894334	0.42189917	0.023805028
1276792553373	-0.53119355	8.049625	3.0237172	-1.1914597	0.0	10.9375	-35.0625	-27.0	-0.59367365	0.3586122	0.06589431
1276792553413	-0.9942854	7.8861814	2.982856	-1.3167801	0.0	12.875	-35.3125	-26.75	-0.60174	0.35900515	0.1254177
1276792553453	-1.2666923	7.9270425	3.214402	-1.1594019	0.0	14.625	-35.3125	-25.4375	-0.7358784	0.38086691	0.15845421
1276792553494	-1.6480621	8.158588	3.5276701	-0.7665653	0.0	16.3125	-35.3125	-24.1875	-0.8757594	0.4008763	0.1993211
1276792553534	-2.1383946	8.349273	3.718355	-0.41999722	0.0	17.8125	-34.8125	-22.625	-0.98934525	0.40730053	0.25072792
1276792553573	-2.6423476	8.499097	3.8681788	-0.10204029	0.0	19.25	-34.8125	-20.625	-1.1723508	0.40998098	0.30142424
1276792553614	-3.1054392	8.281172	3.7864566	-0.18590164	0.0	20.75	-34.5625	-19.3125	-1.2841635	0.40451387	0.35877064
1276792553653	-3.173541	7.7772183	3.636633	-0.65342236	0.0	21.9375	-34.0625	-17.5625	-1.5313524	0.40857938	0.3874319
1276792553694	-3.445948	7.4639506	3.990762	-0.6681986	0.0	24.3125	-34.0625	-16.1875	-1.9813275	0.45192716	0.4325235
1276792553734	-4.0180025	8.240311	3.9090397	0.1596756	0.0	25.5625	-33.5625	-14.6875	-1.8882319	0.4030489	0.4536811
1276792553774	-4.5628166	8.499097	3.2961242	0.38738632	0.0	27.25	-32.75	-13.625	-1.6416287	0.32925537	0.49269822
1276792553813	-4.7126403	8.049625	2.9556155	-0.021911621	0.0	29.0	-32.0	-12.625	-1.6532514	0.30685687	0.52965105
1276792553853	-5.243834	7.8861814	2.7649305	0.059174538	0.0	29.9375	-31.5	-11.375	-1.7137371	0.28405803	0.58680594
1276792553893	-5.175732	7.9679036	3.0237172	0.16423512	0.0	31.1875	-30.5	-10.8125	-1.837384	0.30810627	0.5760747
1276792553933	-5.243834	8.240311	3.1054392	0.44246006	0.0	31.6875	-29.4375	-9.8125	-1.8664135	0.30783486	0.56672925
1276792553973	-5.6660647	8.689782	2.9147544	0.96889687	0.0	32.125	-28.9375	-9.8125	-1.7364327	0.27390936	0.5778063
1276792554013	-5.938472	8.390134	2.4108016	0.7513685	0.0	32.875	-27.9375	-9.5625	-1.5926559	0.2303707	0.6159365
1276792554053	-5.8158884	7.9679036	1.920469	0.2432375	0.0	33.625	-27.4375	-8.8125	-1.5137855	0.19227614	0.630522
1276792554093	-5.6252036	7.8589406	1.2666923	-0.059324265	0.0	34.375	-27.9375	-7.25	-1.4317499	0.13032137	0.62123245
1276792554133	-6.1291566	7.9270425	0.61291564	0.2322855	0.0	34.8125	-27.4375	-5.5	-1.3105603	0.06109184	0.65818197
1276792554173	-6.1291566	7.4639506	0.46309182	-0.13754654	0.0	35.5625	-27.1875	-4.1875	-1.3687518	0.047912303	0.68751556
1276792554213	-6.238119	7.4639506	0.27240697	-0.07531452	0.0	36.5625	-26.6875	-2.9375	-1.4160334	0.027996417	0.6961725
1276792554253	-6.66035	7.164303	-0.040861044	-0.024565697	0.0	37.75	-25.375	-2.9375	-1.2783433	-0.004177143	0.7489611
1276792554293	-6.3607025	6.66035	0.10896278	-0.59629345	0.0	38.75	-24.125	-2.1875	-1.4253433	0.011830739	0.76238966
1276792554334	-6.3607025	6.238119	0.10896278	-0.8968506	0.0	39.75	-23.0625	-0.875	-1.5417402	0.012229848	0.7951276
1276792554374	-5.9793324	6.0882955	0.14982383	-1.2718859	0.0	40.0	-21.8125	-0.625	-1.581381	0.017555438	0.77636904
1276792554413	-6.2108784	6.4424243	0.313268	-0.8524351	0.0	40.0	-21.3125	0.125	-1.6868722	0.034992676	0.76710093
1276792554453	-5.134871	6.973618	1.879608	-0.9448681	0.0	40.0	-21.5625	0.625	-2.0183177	0.21372613	0.63469356
1276792554494	-4.2495484	6.932757	2.8330324	-1.1957359	0.0	39.75	-21.8125	-0.375	-2.0814228	0.33524954	0.5498993
1276792554534	-3.718355	6.1700177	3.1054392	-1.961968	0.0	39.5	-22.3125	-0.625	-2.1645467	0.4070102	0.542365
1276792554575	-2.7921712	5.2165933	3.3778462	-2.9935079	0.0	39.0	-22.3125	-1.6875	-2.201313	0.51873726	0.4914468
1276792554613	-4.5219555	4.7943625	1.607201	-3.0230603	0.0	38.75	-22.8125	-4.1875	-2.0276842	0.23919936	0.75616676
1276792554654	-5.8158884	5.5162406	0.46309182	-1.7774582	0.0	38.0	-23.0625	-6.5	-1.1706146	0.057708047	0.81183434
1276792554693	-8.008764	6.742072	0.10896278	0.6627197	0.0	37.75	-22.5625	-8.8125	-0.7006487	0.010407957	0.8710606
1276792554733	-8.853226	7.5865335	-0.38136974	1.8587065	0.0	37.75	-21.8125	-10.5625	-0.5896599	-0.032698333	0.86229676
1276792554773	-8.308413	8.008764	-0.3405087	1.7383041	0.0	38.0	-20.5625	-11.875	-0.72345215	-0.029498436	0.80376005
1276792554813	-8.267551	7.273266	-0.3405087	1.2100983	0.0	38.25	-19.75	-12.875	-0.6351532	-0.030913198	0.8492901
1276792554853	-8.853226	6.8237944	1.0351465	1.4190035	0.0	38.25	-19.0	-13.875	-0.6952205	0.09234376	0.91413486
1276792554893	-8.962189	7.0553403	1.4165162	1.6870508	0.0	38.25	-18.5	-14.6875	-0.76724213	0.123556964	0.9038881
1276792554933	-7.7363577	7.082581	3.5276701	1.2594528	0.0	37.75	-17.75	-14.9375	-1.4534832	0.32444376	0.8294872
1276792554963	-7.8861814	7.7772183	3.9090397	1.9388847	0.0	37.5	-16.6875	-15.4375	-1.4488004	0.33928263	0.7923545
1276792555003	-7.6273947	6.0201936	3.173541	0.41544533	0.0	37.3125	-16.6875	-16.1875	-1.2720759	0.31567582	0.9026227
1276792555044	-6.510526	5.7477865	3.990762	-0.2489214	0.0	37.5	-16.9375	-15.9375	-1.7292423	0.43073958	0.84754026
1276792555083	-4.9850473	4.903325	4.372132	-1.5599031	0.0	38.25	-16.9375	-15.6875	-2.038732	0.5587945	0.7936624
1276792555123	-6.0201936	5.47538	1.9885708	-1.4294825	0.0	38.0	-17.25	-15.6875	-1.144843	0.23966771	0.83275604
1276792555163	-7.273266	4.903325	1.607201	-0.8889103	0.0	37.75	-16.9375	-15.4375	-0.7331316	0.18121535	0.97762585
1276792555193	-8.880466	5.9793324	0.23154591	0.90169716	0.0	37.75	-16.4375	-15.6875	-0.46606594	0.021624623	0.9782066
1276792555223	-7.504812	7.5456724	4.7126403	1.8324375	0.0	37.5	-16.1875	-16.1875	-1.6072388	0.41686696	0.7826833
1276792555263	-8.349273	8.158588	1.1441092	1.9228811	0.0	38.0	-15.9375	-16.1875	-0.8862528	0.09769626	0.7969488
1276792555304	-7.164303	5.5162406	3.568531	-0.086024284	0.0	38.5	-15.6875	-15.6875	-1.58165	0.37589929	0.9146415
1276792555362	-8.19945	6.2108784	0.95342433	0.5236454	0.0	39.0	-15.1875	-15.1875	-0.7869287	0.09242554	0.9225283
1276792555394	-9.112013	6.8237944	1.2666923	1.6474962	0.0	39.5	-14.6875	-13.875	-0.907253	0.110814765	0.9280131
1276792555423	-8.499097	5.829509	1.5390993	0.61384106	0.0	40.25	-13.875	-12.875	-1.0383745	0.14824167	0.969598
1276792555464	-8.430995	5.2165933	1.3075534	0.1935606	0.0	40.6875	-14.1875	-12.375	-0.943868	0.13112806	1.0167112
1276792555503	-7.8861814	4.671779	1.8387469	-0.45794106	0.0	40.4375	-14.4375	-11.875	-1.1821665	0.19797528	1.0359833
1276792555543	-7.164303	4.9850473	2.0294318	-0.84581757	0.0	40.4375	-14.4375	-12.125	-1.3584051	0.22846024	0.96288294
1276792555583	-6.701211	5.434519	2.0294318	-0.94330883	0.0	40.6875	-14.6875	-11.125	-1.4674176	0.23101857	0.8893987
1276792555623	-6.6331096	5.6660647	1.920469	-0.8740902	0.0	41.1875	-13.625	-10.0625	-1.4982355	0.21668823	0.8638636
1276792555663	-6.742072	6.1700177	2.6014864	-0.30441952	0.0	41.6875	-13.125	-9.5625	-1.6598428	0.27731726	0.829673
1276792555693	-6.701211	5.434519	2.2609777	-0.88744354	0.0	42.1875	-13.625	-9.0625	-1.6776543	0.256292	0.88939863
1276792555733	-6.469665	5.243834	2.2201166	-1.1878757	0.0	41.9375	-13.875	-9.3125	-1.6756384	0.26052797	0.8896698
1276792555773	-6.66035	4.903325	1.9477097	-1.309802	0.0	41.4375	-14.4375	-9.8125	-1.5754411	0.23128377	0.9361883
1276792555813	-7.164303	4.440233	1.4573772	-1.2528877	0.0	41.6875	-14.4375	-10.3125	-1.2867484	0.17121376	1.0159655
1276792555853	-7.6273947	5.175732	1.1849703	-0.5131302	0.0	41.4375	-13.875	-9.5625	-1.2345732	0.12785304	0.9745972
1276792555893	-8.076866	5.175732	1.1441092	-0.14575195	0.0	41.4375	-13.125	-9.3125	-1.2091831	0.118705384	1.0009091
1276792555923	-8.267551	5.5162406	1.1441092	0.19786358	0.0	42.6875	-12.875	-8.5625	-1.2982677	0.114610046	0.9824137
1276792555953	-8.049625	5.09401	1.1441092	-0.21215248	0.0	42.9375	-12.625	-8.0625	-1.3411697	0.11953083	1.0065893
1276792555993	-7.7772183	5.325556	1.3075534	-0.29053974	0.0	43.375	-12.375	-7.75	-1.4456639	0.13784027	0.9703695
1276792556033	-8.076866	6.1700177	1.7570249	0.5080004	0.0	43.625	-12.375	-8.0625	-1.5251958	0.1711774	0.91845065
1276792556073	-8.580819	6.4015636	1.9477097	1.0747118	0.0	42.9375	-12.125	-8.8125	-1.4949719	0.17996489	0.92983973
1276792556113	-8.390134	6.4015636	2.3426998	1.0036507	0.0	42.4375	-12.625	-8.8125	-1.5942237	0.21844307	0.91903514
1276792556153	-8.539958	6.510526	2.3426998	1.1845322	0.0	41.9375	-13.125	-9.8125	-1.5186416	0.21479133	0.9194313
1276792556193	-8.771504	6.238119	2.2201166	1.1834517	0.0	42.1875	-13.375	-9.5625	-1.50783	0.20341037	0.9526063
1276792556233	-8.771504	6.742072	2.152015	1.4639311	0.0	42.4375	-13.625	-9.0625	-1.5120432	0.1921206	0.915476
1276792556273	-8.390134	7.014479	2.1792557	1.3444223	0.0	42.1875	-14.1875	-8.5625	-1.5526437	0.19669603	0.8744634
1276792556315	-7.8589406	6.4015636	0.88532263	0.36816025	0.0	42.1875	-14.4375	-7.25	-1.3429092	0.08712139	0.88724136
1276792556353	-7.43671	5.6660647	-0.5720546	-0.4398899	0.0	42.1875	-15.4375	-4.75	-1.0648631	-0.06111087	0.9197196
1276792556383	-6.782933	4.630918	-1.7570249	-1.4077978	0.0	42.1875	-16.6875	-2.4375	-0.7100039	-0.21075495	0.97175467
1276792556413	-5.175732	3.8273177	-1.4573772	-3.2066116	0.0	42.4375	-17.25	-0.375	-0.8409583	-0.2226484	0.9340661
1276792556453	-3.568531	3.405087	-0.9125633	-4.790496	0.0	42.6875	-17.75	1.6875	-1.2144978	-0.18294366	0.80883133
1276792556493	-2.9556155	3.9499009	-0.84446156	-4.8016033	0.0	42.6875	-18.0	2.1875	-1.3770343	-0.16953294	0.64239675
1276792556533	-3.2961242	4.0588636	-1.1441092	-4.4542866	0.0	42.1875	-18.75	2.6875	-1.2840798	-0.21542002	0.6820638
1276792556573	-4.2086873	3.1463003	-2.3018389	-4.069864	0.0	42.1875	-18.75	2.9375	-0.5877662	-0.41287223	0.92885035
1276792556613	-5.09401	3.568531	-1.9477097	-3.289218	0.0	41.6875	-18.75	2.1875	-0.6470774	-0.30348337	0.95971155
1276792556653	-6.2789803	4.9850473	-0.46309182	-1.7760372	0.0	41.1875	-18.5	1.125	-1.4455365	-0.05769782	0.89976984
1276792556693	-7.7363577	5.706926	1.1849703	-0.12035084	0.0	41.6875	-16.9375	-0.375	-1.990598	0.122641884	0.93522936
1276792556723	-8.349273	4.1814466	2.1792557	-0.217906	0.0	42.1875	-15.9375	-1.9375	-2.6321533	0.22927573	1.1064965
1276792556763	-10.18802	7.7363577	4.944186	3.9080114	0.0	42.6875	-15.1875	-3.4375	-2.3041158	0.36880785	0.9213328
1276792556803	-7.7363577	5.012288	4.6036777	0.49714088	0.0	42.4375	-14.4375	-5.25	-2.5017686	0.46317917	0.9959077
1276792556833	-10.310603	8.008764	3.214402	3.6388407	0.0	42.1875	-14.1875	-5.5	-1.8810778	0.24140708	0.91039366
1276792556873	-8.471856	6.0201936	0.88532263	0.6240196	0.0	41.6875	-13.875	-5.75	-1.4038844	0.08497912	0.9529844
1276792556913	-8.499097	7.7363577	0.7218784	1.7088604	0.0	41.6875	-14.4375	-5.75	-1.3889393	0.06272861	0.8323435
1276792556953	-7.246025	7.205164	0.42223078	0.4206438	0.0	41.9375	-15.1875	-5.5	-1.3700626	0.04129644	0.7882257
1276792556993	-7.7772183	8.117727	1.2666923	1.5064898	0.0	40.9375	-15.9375	-6.5	-1.4633276	0.112201735	0.76397896
1276792557033	-7.6273947	6.742072	1.1168685	0.43444824	0.0	40.4375	-17.75	-7.5	-1.3611192	0.109274834	0.84693176
1276792557074	-7.7772183	6.4015636	0.61291564	0.28497028	0.0	39.5	-18.75	-8.5625	-1.0588787	0.060772505	0.8821175
1276792557113	-8.771504	5.938472	0.6537767	0.80618	0.0	38.75	-19.5	-10.0625	-0.64623886	0.061641514	0.97566116
1276792557143	-8.117727	5.134871	1.56634	-0.074341774	0.0	38.5	-19.5	-10.8125	-0.8291771	0.16164531	1.006786
1276792557173	-8.349273	7.9679036	2.3018389	1.9617949	0.0	37.5	-19.25	-12.125	-1.2492518	0.19686325	0.8087662
1276792557203	-6.5513873	6.8237944	3.255263	0.1974287	0.0	37.3125	-20.0	-13.625	-1.5876011	0.33142793	0.7650344
1276792557243	-6.1700177	6.3198414	3.8273177	-0.18075371	0.0	36.5625	-20.0	-14.9375	-1.7445396	0.40890664	0.7734031
1276792557283	-5.5571017	6.973618	3.405087	-0.26163292	0.0	35.5625	-21.3125	-16.6875	-1.451801	0.36477566	0.67283255
1276792557323	-5.09401	6.742072	2.8738933	-0.881196	0.0	35.0625	-22.3125	-18.0	-1.2701405	0.32782906	0.64704716
1276792557374	-4.5219555	7.082581	2.7921712	-0.9518633	0.0	34.375	-21.8125	-18.0	-1.2644627	0.32080334	0.568221
1276792557413	-5.09401	7.1234417	1.7297841	-0.88003254	0.0	34.8125	-22.3125	-17.25	-1.0171053	0.19501193	0.62079185
1276792557453	-4.5219555	6.6331096	2.6014864	-1.3678141	0.0	35.8125	-21.8125	-15.4375	-1.4041337	0.31337973	0.5983552
1276792557484	-6.1700177	6.891896	2.070293	-0.3275442	0.0	36.3125	-20.8125	-14.6875	-1.1652027	0.22018066	0.7301885
1276792557524	-7.205164	7.164303	0.61291564	0.37260723	0.0	36.8125	-20.5625	-14.9375	-0.73968714	0.060248658	0.7882418
1276792557553	-6.851035	6.510526	1.9477097	-0.15692425	0.0	37.5	-19.75	-15.4375	-1.0318127	0.20323718	0.81087685
1276792557583	-7.04172	6.5922484	2.1792557	0.082369804	0.0	38.25	-19.25	-16.1875	-1.0623541	0.22219506	0.8183533
1276792557613	-7.504812	6.742072	1.920469	0.4630108	0.0	39.0	-18.5	-15.9375	-0.9988276	0.18811159	0.8388844
1276792557643	-7.9679036	6.973618	1.7297841	0.92232895	0.0	39.25	-18.0	-15.1875	-0.97649837	0.16193219	0.8518453
1276792557683	-7.4639506	6.6331096	1.607201	0.30729008	0.0	38.75	-17.5	-14.1875	-1.0326335	0.159586	0.84426725
1276792557723	-6.6331096	6.1291566	1.879608	-0.58181286	0.0	38.0	-17.75	-14.4375	-1.1314416	0.205192	0.8248654
1276792557763	-6.3198414	6.0201936	1.9885708	-0.8546934	0.0	37.75	-18.5	-14.1875	-1.1991967	0.22400682	0.80967593
1276792557803	-6.5922484	6.4424243	1.8387469	-0.40752506	0.0	37.5	-18.75	-13.625	-1.1615889	0.1968994	0.7968919
1276792557843	-6.469665	6.6331096	2.070293	-0.3123989	0.0	37.0625	-19.25	-13.125	-1.2630249	0.21982364	0.7729247
1276792557883	-6.6331096	6.742072	2.152015	-0.10691643	0.0	36.8125	-19.25	-12.125	-1.3358042	0.22372498	0.7772517
1276792557923	-6.5922484	6.701211	2.070293	-0.18115902	0.0	36.8125	-19.75	-11.625	-1.350732	0.21677823	0.77720165
1276792557963	-6.469665	6.851035	2.1111538	-0.1500349	0.0	36.5625	-19.5	-11.875	-1.3472233	0.22040264	0.7567761
1276792558003	-6.701211	6.973618	1.8387469	0.038072586	0.0	36.5625	-19.75	-12.375	-1.2112545	0.18787822	0.76548046
1276792558043	-6.428804	6.8237944	1.6480621	-0.28773212	0.0	36.5625	-20.0	-12.375	-1.1791251	0.1740123	0.75560224
1276792558083	-6.3607025	7.0553403	1.4573772	-0.19622326	0.0	36.0625	-20.25	-11.875	-1.1578102	0.15223274	0.7336677
1276792558113	-6.469665	7.164303	1.2666923	-0.07072067	0.0	36.3125	-20.8125	-11.375	-1.1319598	0.13047479	0.7344931
1276792558143	-6.5922484	7.273266	0.9942854	0.05979538	0.0	36.8125	-21.3125	-10.5625	-1.1105858	0.100945786	0.7363217
1276792558183	-6.4015636	7.082581	0.88532263	-0.21880531	0.0	36.8125	-21.8125	-10.0625	-1.1132249	0.09246975	0.734936
1276792558223	-6.2789803	6.66035	0.5720546	-0.6353302	0.0	37.0625	-21.8125	-9.8125	-1.0294875	0.062414814	0.75593305
1276792558263	-6.2789803	6.510526	0.42223078	-0.7517719	0.0	37.3125	-22.5625	-8.8125	-1.0224595	0.046647117	0.76729584
1276792558303	-6.238119	6.6331096	0.46309182	-0.6892643	0.0	37.5	-23.0625	-7.75	-1.1195192	0.050814036	0.7547199
1276792558343	-6.0882955	6.3198414	0.53119355	-1.0151825	0.0	38.0	-23.0625	-7.0	-1.2021586	0.060458314	0.76673955
1276792558373	-5.9793324	6.0882955	0.5720546	-1.2540483	0.0	38.25	-23.3125	-6.25	-1.2756308	0.06693659	0.77636904
1276792558403	-6.0201936	6.238119	0.53119355	-1.1210861	0.0	38.5	-23.0625	-6.0	-1.2925495	0.061196398	0.7676223
1276792558433	-6.1700177	6.510526	0.50395286	-0.82277393	0.0	38.5	-22.8125	-6.0	-1.2868141	0.056124717	0.7585518
1276792558463	-6.469665	6.8237944	0.50395286	-0.389925	0.0	38.5	-23.0625	-5.25	-1.3327395	0.053542364	0.7587651
1276792558513	-6.891896	7.273266	0.14982383	0.21438122	0.0	38.75	-23.0625	-5.25	-1.2119367	0.014951495	0.75848156
1276792558553	-7.014479	7.164303	-0.0	0.21982193	0.0	38.75	-23.0625	-5.25	-1.2119367	0.014951495	0.75848156
1276792558593	-6.932757	6.782933	-0.46309182	-0.09656429	0.0	38.25	-22.5625	-5.0	-0.98480564	-0.047709934	0.7963212
1276792558633	-6.932757	6.6331096	-0.7627395	-0.18152523	0.0	38.0	-22.0625	-5.0	-0.8898506	-0.0793278	0.8074829
1276792558673	-7.43671	6.66035	-1.607201	0.30512524	0.0	38.0	-21.3125	-4.75	-0.69138175	-0.15962046	0.84041506
1276792558714	-7.5456724	6.5513873	-2.2609777	0.43883038	0.0	38.0	-20.8125	-3.6875	-0.6179213	-0.22251213	0.85581297
1276792558753	-7.6954966	7.014479	-3.214402	1.0908709	0.0	38.5	-20.5625	-2.9375	-0.6124319	-0.2994203	0.8316614
1276792558793	-8.008764	7.205164	-3.6774938	1.5766115	0.0	39.25	-19.5	-2.1875	-0.6423587	-0.3289627	0.83816916
1276792558833	-7.273266	6.510526	-3.1054392	0.4369383	0.0	39.75	-19.0	-0.625	-0.74423754	-0.30800623	0.8406778
1276792558873	-4.8216033	6.0474343	-1.4165162	-1.9437094	0.0	40.4375	-18.25	0.625	-1.2601858	-0.1811399	0.6730908
1276792558913	-4.4810944	6.932757	-0.8036005	-1.5127306	0.0	40.6875	-18.0	0.875	-1.4592187	-0.09704255	0.57381594
1276792558953	-5.325556	7.4639506	-0.46309182	-0.6258793	0.0	40.25	-19.25	0.875	-1.5200733	-0.05046291	0.6197314
1276792558993	-5.202973	6.5922484	0.14982383	-1.4071789	0.0	39.25	-20.25	-0.125	-1.6032145	0.01783824	0.66815543
1276792559033	-4.7535014	6.469665	1.8387469	-1.5705509	0.0	38.5	-21.5625	-2.1875	-1.9290557	0.22515206	0.6336609
1276792559073	-6.8237944	6.8237944	1.1168685	-0.0919323	0.0	38.0	-22.3125	-3.6875	-1.6821169	0.11522142	0.7853982
1276792559113	-7.014479	6.4424243	0.7218784	-0.25527	0.0	38.0	-21.5625	-6.0	-1.2964101	0.07565058	0.8278827
1276792559143	-7.273266	6.3607025	1.0351465	-0.08911705	0.0	38.25	-21.0625	-8.5625	-1.1683447	0.10672608	0.8522315
1276792559183	-7.3141265	6.5513873	1.6480621	0.14991665	0.0	37.5	-20.0	-10.5625	-1.2304676	0.16629048	0.8403526
1276792559223	-6.8237944	7.246025	2.9147544	0.56469727	0.0	37.5	-18.25	-13.125	-1.4605588	0.28487673	0.7553975
1276792559263	-6.6331096	5.7886477	3.718355	-0.2498331	0.0	37.75	-16.9375	-15.4375	-1.668188	0.39963138	0.85327625
1276792559303	-7.246025	5.7477865	3.486809	0.07766914	0.0	37.0625	-15.4375	-18.0	-1.2848785	0.3605209	0.90019524
1276792559343	-8.812365	7.164303	3.0645783	1.9567099	0.0	36.8125	-13.625	-21.0625	-0.8708103	0.2635597	0.8881889
1276792559399	-6.1700177	5.284695	4.903325	-0.31772423	0.0	35.8125	-12.125	-23.625	-1.4231328	0.5430409	0.86253375
1276792559443	-6.1291566	5.175732	4.1814466	-0.7601452	0.0	34.125	-11.375	-25.875	-1.0580698	0.48049343	0.8695364
1276792559485	-5.175732	4.5628166	4.2904096	-1.6816816	0.0	33.375	-10.0625	-27.4375	-1.1461546	0.5563056	0.8482523
1276792559523	-4.399372	3.486809	4.8216033	-2.4066386	0.0	32.125	-9.5625	-29.4375	-1.407195	0.70964825	0.9006025
1276792559553	-3.173541	4.099725	6.701211	-1.3340273	0.0	30.6875	-9.5625	-30.75	-1.6801437	0.91231954	0.65873903
1276792559583	-2.7513103	4.6036777	7.3141265	-0.73692036	0.0	29.4375	-9.3125	-32.25	-1.5490574	0.93809426	0.53867733
1276792559623	-4.0180025	3.718355	6.742072	-1.1218338	0.0	27.75	-9.3125	-33.8125	-1.521498	0.8887838	0.8241112
1276792559654	-4.5219555	3.3778462	7.668256	-0.2850914	0.0	26.0625	-8.5625	-34.8125	-1.6058441	0.9362778	0.92922574
1276792559684	-6.1700177	4.7943625	7.246025	0.84979916	0.0	25.5625	-7.75	-36.125	-0.78723335	0.7477165	0.9102118
1276792559724	-6.701211	3.9499009	10.378705	3.1635256	0.0	25.0625	-6.25	-36.625	-1.2860827	0.9276248	1.0381845
1276792559753	-4.7126403	2.9147544	8.471856	0.3164482	0.0	24.8125	-4.1875	-37.375	-1.4705373	0.9915651	1.016887
1276792559793	-3.9090397	1.56634	8.689782	-0.15023708	0.0	24.5625	-2.4375	-37.625	-2.1925728	1.1195345	1.1896893
1276792559833	-3.0237172	3.214402	6.8237944	-1.6801863	0.0	23.125	-0.125	-38.125	-1.1588411	0.99673116	0.75484
1276792559873	-1.8387469	3.173541	10.61025	1.4196482	0.0	20.875	1.375	-39.1875	-1.3587731	1.2379757	0.525134
1276792559913	-5.8158884	2.5606253	11.75436	3.5554733	0.0	18.4375	2.4375	-39.6875	-1.1018575	1.0751839	1.156054
1276792559953	-3.9090397	1.2666923	9.275456	0.3382597	0.0	16.0	3.6875	-40.4375	-1.1774949	1.1537678	1.2574314
1276792559993	-3.405087	0.19068487	7.7363577	-1.3519354	0.0	12.375	5.75	-41.1875	-0.85429996	1.155594	1.5148548
1276792560033	1.6889231	0.6946377	8.921328	-0.7003298	0.0	7.9375	7.75	-42.5	0.21940048	1.3688859	-1.180595
1276792560074	4.671779	0.313268	8.962189	0.3049507	0.0	3.3125	8.8125	-43.25	0.3500198	1.0893527	-1.5038412
1276792560115	1.334794	0.92618364	10.419566	0.7388153	0.0	-1.8125	8.8125	-44.0	0.67808837	1.4161191	-0.96419126
1276792560154	2.7649305	1.2258313	8.730643	-0.5669737	0.0	-5.75	8.0625	-44.75	0.6497009	1.2373132	-1.1534865
1276792560183	4.140586	1.0760075	7.246025	-1.3919535	0.0	-8.1875	7.0	-44.5	0.47174382	1.0374595	-1.3165516
1276792560213	3.255263	0.7218784	7.7772183	-1.3447962	0.0	-10.625	6.75	-44.5	0.7604977	1.1657687	-1.3525704
1276792560243	2.3018389	0.7218784	9.234595	-0.2621584	0.0	-11.875	7.25	-44.5	1.3469875	1.3152739	-1.266901
1276792560273	2.2609777	0.9942854	9.234595	-0.24744701	0.0	-12.8125	7.25	-44.0	1.3330548	1.3094478	-1.1564914
1276792560303	2.982856	0.5720546	8.076866	-1.1776037	0.0	-13.5625	7.75	-43.5	1.1781794	1.2111152	-1.3813162
1276792560333	3.214402	0.50395286	8.689782	-0.5277138	0.0	-13.0625	8.8125	-43.75	1.1709968	1.2125304	-1.4152826
1276792560373	1.9477097	0.23154591	9.697687	0.08740425	0.0	-13.0625	9.0625	-43.75	1.847363	1.3712317	-1.4524705
1276792560403	2.6014864	0.040861044	8.730643	-0.69657135	0.0	-12.5625	9.5625	-44.0	1.5020032	1.2811673	-1.5550908
1276792560443	2.982856	0.08172209	8.308413	-0.97863674	0.0	-12.125	9.8125	-44.75	1.1974905	1.2259926	-1.5434059
1276792560473	1.0351465	0.6946377	9.466142	-0.25877666	0.0	-11.125	9.3125	-44.75	1.440281	1.439858	-0.97976345
1276792560513	1.4982382	1.1849703	9.507003	-0.10964203	0.0	-10.375	9.3125	-45.0	1.1259468	1.3725108	-0.9016232
1276792560553	1.1441092	0.8036005	8.689782	-1.0051117	0.0	-10.625	9.3125	-44.75	1.3001381	1.4112701	-0.9584743
1276792560594	1.6480621	1.3075534	8.662541	-0.89231205	0.0	-11.375	9.0625	-44.5	1.094171	1.3325516	-0.9000998
1276792560633	1.1441092	1.4573772	8.894087	-0.72162247	0.0	-13.8125	9.5625	-44.25	1.123822	1.3654132	-0.6655564
1276792560663	2.6832085	1.56634	7.8180795	-1.3938389	0.0	-15.75	9.5625	-43.75	1.112218	1.1925304	-1.0424063
1276792560703	1.9885708	1.7570249	8.19945	-1.1884995	0.0	-17.25	9.0625	-43.75	1.2095653	1.2578034	-0.8471378
1276792560743	1.6889231	1.7297841	7.6954966	-1.740345	0.0	-17.75	9.3125	-43.75	1.1922387	1.2664062	-0.77344656
1276792560773	1.56634	1.879608	7.8180795	-1.6146593	0.0	-17.0	8.5625	-44.25	1.1142176	1.2674975	-0.69473827
1276792560803	1.2258313	1.879608	8.962189	-0.5677967	0.0	-15.5	7.5	-44.75	1.0973778	1.3254539	-0.5779019
1276792560833	0.7627395	1.607201	9.575105	-0.067682266	0.0	-13.5625	7.25	-45.25	1.0413752	1.387096	-0.4431026
1276792560863	0.88532263	1.6889231	9.112013	-0.49724388	0.0	-11.875	6.5	-45.8125	0.95277715	1.3645004	-0.4828146
1276792560903	0.8036005	1.7978859	8.499097	-1.0823841	0.0	-10.875	5.5	-45.8125	0.8400641	1.3431065	-0.42033106
1276792560943	0.5720546	2.070293	8.662541	-0.8817978	0.0	-9.875	5.0	-46.3125	0.68537676	1.3277483	-0.26958907
1276792560983	0.53119355	2.3699405	8.962189	-0.5211992	0.0	-9.1875	3.6875	-46.3125	0.62139225	1.3061543	-0.22049373
1276792561013	0.27240697	2.5606253	8.921328	-0.5211191	0.0	-8.6875	2.6875	-46.3125	0.550791	1.2897916	-0.10598436
1276792561053	0.313268	2.5606253	8.812365	-0.62445545	0.0	-7.9375	2.1875	-46.5625	0.51951736	1.286015	-0.12173548
1276792561093	0.10896278	2.4108016	8.771504	-0.70922565	0.0	-7.6875	1.125	-46.3125	0.5353238	1.3023134	-0.045167
1276792561123	0.19068487	2.4108016	8.921328	-0.5633602	0.0	-7.1875	0.625	-46.8125	0.53039175	1.3060848	-0.07893172
1276792561153	0.46309182	2.4925237	8.812365	-0.6368685	0.0	-6.9375	0.625	-47.0625	0.5104792	1.2906762	-0.18369779
1276792561183	0.50395286	2.2201166	8.430995	-1.0736923	0.0	-6.5	0.375	-46.8125	0.5218641	1.3070598	-0.22321144
1276792561213	0.50395286	2.3018389	8.539958	-0.9475689	0.0	-6.0	0.625	-46.5625	0.47224408	1.3015734	-0.21553414
1276792561243	0.50395286	2.5606253	8.962189	-0.47221947	0.0	-6.25	0.375	-46.3125	0.47240058	1.2874367	-0.19432496
1276792561273	0.46309182	2.6014864	9.275456	-0.16215515	0.0	-6.0	-0.625	-46.0625	0.48441797	1.293269	-0.1761652
1276792561313	0.5720546	2.7921712	9.193735	-0.18125534	0.0	-6.25	-0.875	-46.0625	0.47295743	1.2701796	-0.20208156
1276792561343	0.6537767	2.8330324	9.084772	-0.2679615	0.0	-7.1875	-1.125	-46.3125	0.5295452	1.261057	-0.22679885
1276792561373	0.53119355	2.7921712	9.112013	-0.2616434	0.0	-7.6875	-1.375	-46.5625	0.5771564	1.2684369	-0.18799733
1276792561413	0.61291564	2.6832085	8.962189	-0.43135834	0.0	-8.4375	-1.125	-46.3125	0.63821244	1.2728351	-0.22457334
1276792561453	0.88532263	2.6832085	8.390134	-0.95352936	0.0	-9.1875	-0.875	-46.5625	0.6402243	1.2459618	-0.3187018
1276792561493	0.9942854	2.6832085	8.499097	-0.83877087	0.0	-9.4375	-1.125	-46.5625	0.66667765	1.2460337	-0.354871
1276792561533	1.0351465	2.5333846	8.390134	-0.9814644	0.0	-9.875	-0.625	-46.5625	0.71106154	1.2554963	-0.3879
1276792561573	1.1441092	2.4516625	8.158588	-1.211175	0.0	-10.125	-0.375	-46.8125	0.7167519	1.2505962	-0.43662718
1276792561613	1.1168685	2.070293	8.499097	-0.9880247	0.0	-9.875	-0.375	-46.5625	0.8430656	1.3007802	-0.49472567
1276792561653	1.0760075	2.070293	8.662541	-0.8353882	0.0	-10.125	-0.125	-46.5625	0.87240523	1.3076943	-0.47931212
1276792561683	1.2666923	2.1792557	8.390134	-1.0460558	0.0	-10.375	-0.375	-46.0625	0.83507085	1.2789452	-0.5265186
1276792561713	1.334794	2.1792557	8.390134	-1.0359497	0.0	-10.375	0.125	-46.0625	0.81860584	1.275134	-0.54956
1276792561753	1.1168685	2.1792557	9.084772	-0.39763165	0.0	-10.875	0.375	-46.3125	0.9144485	1.3075057	-0.4735975
1276792561793	0.7627395	2.152015	9.507003	-0.029327393	0.0	-10.625	0.625	-46.0625	0.91425425	1.3351017	-0.34061626
1276792561833	0.9942854	2.4516625	8.853226	-0.5665817	0.0	-10.375	1.6875	-46.3125	0.7490304	1.2804132	-0.38528648
1276792561873	0.8036005	2.5333846	8.730643	-0.68042755	0.0	-10.375	1.6875	-46.3125	0.7490304	1.2804132	-0.38528648
1276792561903	0.7218784	2.3699405	8.962189	-0.50834084	0.0	-10.125	1.9375	-46.5625	0.7345709	1.3010985	-0.29566953
1276792561943	0.38136974	2.3018389	9.466142	-0.057201385	0.0	-9.4375	2.6875	-46.3125	0.6758373	1.3291327	-0.16418898
1276792561983	0.313268	2.0294318	9.275456	-0.30660725	0.0	-8.4375	2.9375	-45.8125	0.6532778	1.3529234	-0.15315363
1276792562013	0.38136974	1.8387469	8.853226	-0.75645447	0.0	-7.1875	3.1875	-46.0625	0.6020883	1.3617814	-0.20450781
1276792562053	0.19068487	1.7297841	9.043911	-0.5968275	0.0	-6.0	3.1875	-46.3125	0.51264197	1.3806965	-0.109792925
1276792562093	0.23154591	1.879608	9.275456	-0.3398323	0.0	-5.5	3.4375	-46.8125	0.45395404	1.3693894	-0.12257088
1276792562133	0.42223078	1.8387469	9.00305	-0.6080532	0.0	-4.75	3.4375	-47.5625	0.42297557	1.3642335	-0.2257166
1276792562163	0.46309182	1.8387469	9.193735	-0.41941357	0.0	-4.5	3.6875	-47.3125	0.413945	1.3674031	-0.24672082
1276792562193	0.50395286	1.7978859	9.193735	-0.4252262	0.0	-4.0625	4.1875	-47.0625	0.39063573	1.3704289	-0.27328968
1276792562223	0.6946377	1.6889231	8.962189	-0.6602955	0.0	-3.8125	4.1875	-46.8125	0.41176656	1.3697819	-0.39020133
1276792562263	0.88532263	1.7297841	9.084772	-0.5163851	0.0	-4.0625	4.1875	-46.8125	0.44355634	1.3600776	-0.47305173
1276792562303	0.61291564	1.607201	9.534244	-0.11848354	0.0	-3.8125	4.1875	-46.5625	0.43840927	1.3923028	-0.3643313
1276792562333	0.27240697	1.334794	9.997335	0.28307724	0.0	-3.8125	4.1875	-46.5625	0.43840927	1.3923028	-0.3643313
1276792562363	0.19068487	1.334794	9.80665	0.09226036	0.0	-3.8125	4.4375	-47.0625	0.40639383	1.4341598	-0.14189707
1276792562393	0.46309182	1.6480621	8.962189	-0.68243027	0.0	-4.0625	3.9375	-47.0625	0.40921628	1.3820578	-0.2739281
1276792562423	0.6946377	1.7297841	8.390134	-1.2119408	0.0	-4.75	3.9375	-47.0625	0.4537813	1.3521757	-0.38186324
1276792562463	0.7627395	1.6480621	8.158588	-1.4483938	0.0	-5.5	3.6875	-47.0625	0.52709347	1.3517784	-0.43345544
1276792562503	0.95342433	1.7297841	8.281172	-1.2931919	0.0	-6.5	3.1875	-46.8125	0.6020291	1.3366613	-0.50374955
1276792562543	0.8036005	1.7297841	9.00305	-0.60377884	0.0	-6.9375	3.4375	-46.3125	0.6690418	1.3620288	-0.4349015
1276792562583	0.6537767	1.6480621	9.384419	-0.25621223	0.0	-7.1875	2.4375	-46.8125	0.7393186	1.3840669	-0.37765333
1276792562623	0.7218784	1.8387469	9.575105	-0.02990532	0.0	-7.6875	2.4375	-46.5625	0.7362768	1.367347	-0.3741044
1276792562664	0.7627395	1.9885708	9.575105	0.0024690628	0.0	-8.1875	1.6875	-46.5625	0.7538825	1.3519253	-0.36625555
1276792562703	0.6537767	1.9885708	9.466142	-0.11182308	0.0	-8.4375	1.125	-46.3125	0.77925926	1.3531648	-0.31763536
1276792562743	0.42223078	2.1111538	9.384419	-0.17843246	0.0	-9.1875	1.125	-46.3125	0.7618508	1.3452802	-0.19739556
1276792562773	0.42223078	2.4516625	9.112013	-0.3611374	0.0	-10.125	0.125	-46.5625	0.7504117	1.3042723	-0.17054915
1276792562803	0.53119355	2.6014864	9.043911	-0.38103485	0.0	-10.625	-0.375	-46.3125	0.7702107	1.2852345	-0.20141968
1276792562833	0.6537767	2.3426998	8.853226	-0.62540436	0.0	-11.875	-1.375	-47.0625	0.9383084	1.3026847	-0.2721459
1276792562863	0.5720546	2.152015	8.962189	-0.57197475	0.0	-12.5625	-1.9375	-46.8125	1.0722609	1.3272673	-0.25981438
1276792562903	0.53119355	2.3426998	9.302697	-0.19881058	0.0	-13.3125	-2.6875	-46.0625	1.1114031	1.3180938	-0.22297396
1276792562933	0.50395286	2.3018389	9.302697	-0.21016121	0.0	-14.3125	-2.6875	-46.5625	1.1549146	1.3227158	-0.21553414
1276792562963	0.61291564	2.3018389	9.084772	-0.41478062	0.0	-15.0625	-2.6875	-46.0625	1.1980137	1.3143668	-0.26023406
1276792562993	0.7627395	2.2609777	8.689782	-0.795207	0.0	-16.25	-3.1875	-45.25	1.2955633	1.3028071	-0.32536066
1276792563023	0.88532263	2.3699405	8.471856	-0.96511364	0.0	-17.5	-3.1875	-45.8125	1.2916192	1.2806016	-0.35751042
1276792563063	0.88532263	2.4925237	8.471856	-0.9314709	0.0	-18.1875	-4.4375	-45.25	1.3396769	1.2681665	-0.34129205
1276792563103	0.84446156	2.6832085	8.471856	-0.88000107	0.0	-18.9375	-5.25	-45.25	1.3264474	1.2502145	-0.30490682
1276792563133	0.92618364	2.6014864	8.076866	-1.2707663	0.0	-19.4375	-6.0	-46.0625	1.3660624	1.2413603	-0.3420286
1276792563163	1.1168685	2.8330324	7.8589406	-1.3783398	0.0	-19.6875	-6.5	-45.8125	1.3141387	1.2011232	-0.37552303
1276792563193	1.1168685	2.9556155	8.076866	-1.133771	0.0	-20.1875	-6.75	-45.5625	1.3287659	1.1979067	-0.36129335
1276792563223	0.95342433	2.7240696	8.349273	-0.9726286	0.0	-20.875	-7.25	-45.25	1.4672755	1.2379833	-0.3366748
1276792563263	0.88532263	2.6832085	8.689782	-0.6690512	0.0	-21.375	-8.0625	-45.0	1.5559331	1.2564279	-0.3187018
1276792563303	0.8036005	2.6832085	8.853226	-0.5209093	0.0	-21.875	-8.8125	-44.25	1.6079441	1.264383	-0.290991
1276792563333	0.7218784	2.4925237	8.921328	-0.5155859	0.0	-22.375	-9.0625	-44.0	1.6782349	1.2877358	-0.28190455
1276792563365	0.61291564	2.3699405	8.662541	-0.8048773	0.0	-21.875	-9.3125	-44.0	1.6755555	1.2953908	-0.25307563
1276792563403	0.7218784	2.4925237	8.308413	-1.1024275	0.0	-21.875	-8.8125	-43.5	1.6203165	1.268068	-0.28190452
1276792563433	0.95342433	2.5333846	7.8180795	-1.5332336	0.0	-21.875	-8.5625	-43.75	1.6017034	1.237484	-0.35994855
1276792563473	1.1168685	2.6014864	8.049625	-1.2736788	0.0	-22.125	-8.0625	-43.75	1.6120157	1.2326026	-0.40552348
1276792563513	0.84446156	2.5333846	8.471856	-0.9238863	0.0	-22.625	-8.0625	-43.75	1.6218283	1.2654437	-0.32175055
1276792563553	0.88532263	2.6423476	8.662541	-0.70690155	0.0	-22.625	-8.3125	-44.0	1.6170647	1.2595541	-0.32329613
1276792563593	0.7218784	2.6423476	8.812365	-0.5783844	0.0	-22.625	-8.3125	-44.5	1.5780473	1.2694299	-0.26668814
1276792563633	0.61291564	2.7240696	8.812365	-0.56251717	0.0	-22.125	-8.3125	-44.5	1.5161816	1.2639561	-0.22131445
1276792563663	0.7627395	2.7649305	8.662541	-0.6816168	0.0	-21.625	-7.75	-44.5	1.4945109	1.2510529	-0.26916748
1276792563693	0.7627395	2.7240696	8.771504	-0.59027195	0.0	-21.625	-7.25	-44.75	1.4892786	1.2588241	-0.2730087
1276792563723	0.53119355	2.7240696	8.962189	-0.4245634	0.0	-20.875	-7.25	-44.75	1.4342922	1.270486	-0.19258326
1276792563763	0.6537767	2.9147544	8.580819	-0.7207451	0.0	-20.4375	-7.5	-44.75	1.3777821	1.2357951	-0.22064719
1276792563803	0.84446156	2.9556155	8.308413	-0.94784164	0.0	-19.9375	-7.5	-44.75	1.3618898	1.2164406	-0.27829966
1276792563833	0.84446156	2.7240696	8.471856	-0.8676338	0.0	-19.1875	-7.5	-44.75	1.4409285	1.2460735	-0.30060568
1276792563863	0.92618364	2.7921712	8.499097	-0.81283665	0.0	-19.1875	-7.25	-45.0	1.4146599	1.2375753	-0.32028642
1276792563893	1.0351465	2.9556155	8.471856	-0.77451134	0.0	-19.1875	-7.0	-45.5625	1.3435835	1.2167221	-0.3368801
1276792563923	1.1168685	2.9147544	8.430995	-0.81638527	0.0	-19.1875	-7.0	-45.8125	1.3575299	1.2162142	-0.3659207
1276792563963	1.2666923	2.8330324	8.390134	-0.8609848	0.0	-18.6875	-7.25	-45.8125	1.3931853	1.2165247	-0.42045248
1276792564003	1.2666923	2.8330324	8.689782	-0.57935905	0.0	-18.6875	-7.25	-45.8125	1.3931853	1.2165247	-0.42045248
1276792564033	1.2666923	2.982856	8.689782	-0.53226376	0.0	-18.4375	-6.75	-46.0625	1.329872	1.2138429	-0.40158054
1276792564073	1.1849703	3.0237172	8.689782	-0.52983284	0.0	-18.4375	-6.5	-46.5625	1.2860763	1.213141	-0.37349716
1276792564113	1.0760075	3.1054392	9.00305	-0.22247314	0.0	-18.6875	-6.0	-46.3125	1.273472	1.2207767	-0.33354557
1276792564153	0.5720546	3.0237172	9.234595	-0.07279873	0.0	-18.4375	-5.5	-46.3125	1.2195865	1.249128	-0.18697928
1276792564193	0.38136974	2.9556155	9.084772	-0.245574	0.0	-18.9375	-6.0	-46.0625	1.229406	1.2538226	-0.12832323
1276792564233	0.7627395	2.7921712	8.771504	-0.5699148	0.0	-19.1875	-6.25	-45.5625	1.3519254	1.2520611	-0.26666474
1276792564273	1.2666923	2.6014864	8.349273	-0.97021484	0.0	-19.6875	-6.0	-46.0625	1.4491704	1.237194	-0.45312166
1276792564313	1.3756552	2.6832085	8.19945	-1.0703459	0.0	-20.1875	-6.5	-45.8125	1.455352	1.2184019	-0.4737483
1276792564353	1.0760075	2.6832085	8.308413	-1.009656	0.0	-20.4375	-6.25	-46.0625	1.4232163	1.2359487	-0.38138127
1276792564393	1.2258313	2.6832085	8.390134	-0.91302204	0.0	-20.4375	-6.0	-45.8125	1.4450115	1.2326978	-0.42853805
1276792564423	1.56634	2.7649305	8.240311	-0.97483444	0.0	-20.1875	-6.0	-45.8125	1.4126967	1.2027322	-0.5154247
1276792564463	1.6480621	2.8738933	7.8589406	-1.2779741	0.0	-19.6875	-5.25	-45.5625	1.2706767	1.1718544	-0.52067596
1276792564503	1.3756552	2.7649305	7.6954966	-1.5146093	0.0	-19.1875	-5.0	-45.5625	1.2551615	1.1891648	-0.46167526
1276792564543	1.1168685	2.6423476	7.8589406	-1.4405079	0.0	-18.9375	-4.1875	-45.5625	1.2603076	1.2208016	-0.39990428
1276792564584	1.334794	2.5606253	7.9270425	-1.3700352	0.0	-18.6875	-4.1875	-45.25	1.3114892	1.2214594	-0.48052365
1276792564623	1.1168685	2.2201166	8.771504	-0.6898737	0.0	-18.4375	-4.1875	-45.8125	1.5080101	1.2947035	-0.46609858
1276792564663	1.1168685	2.2609777	9.043911	-0.41773415	0.0	-17.5	-3.6875	-45.8125	1.4536356	1.2988653	-0.4588167
1276792564693	1.3075534	2.3699405	8.853226	-0.5489006	0.0	-16.75	-3.6875	-46.8125	1.3522842	1.2740886	-0.504166
1276792564723	1.6480621	2.4925237	8.158588	-1.1180744	0.0	-16.0	-3.1875	-47.0625	1.1345623	1.2197162	-0.58421
1276792564763	1.8387469	2.7240696	8.158588	-1.0109634	0.0	-15.25	-2.6875	-46.8125	0.9773781	1.1878479	-0.59374964
1276792564803	1.5390993	2.6423476	9.112013	-0.19521904	0.0	-14.8125	-2.1875	-47.0625	1.0892682	1.2470149	-0.5274332
1276792564833	1.3075534	2.6014864	9.534244	0.16226292	0.0	-14.0625	-1.125	-47.0625	1.0608813	1.2744076	-0.46573967
1276792564863	1.7297841	2.6014864	8.730643	-0.5338936	0.0	-13.5625	-0.375	-47.0625	0.9171692	1.2271636	-0.5867934
1276792564893	2.3426998	2.4925237	8.240311	-0.88456345	0.0	-13.0625	0.375	-47.5625	0.76290435	1.1773299	-0.7544221
1276792564923	2.4108016	2.4925237	9.043911	-0.120734215	0.0	-12.375	1.125	-47.5625	0.78166294	1.2046603	-0.768733
1276792564963	1.7570249	2.3018389	10.147159	0.7456207	0.0	-11.875	1.6875	-47.3125	0.95874274	1.2928065	-0.6519675
1276792565003	1.607201	2.1111538	10.18802	0.7212086	0.0	-11.375	1.9375	-47.5625	0.98314005	1.3160211	-0.6506878
1276792565033	2.3018389	2.070293	9.384419	0.075247765	0.0	-10.625	1.6875	-47.3125	0.7834759	1.252141	-0.8383082
1276792565063	2.982856	2.3426998	8.894087	-0.13760376	0.0	-10.875	1.6875	-47.0625	0.6082409	1.1677017	-0.90502876
1276792565093	3.255263	2.4108016	8.689782	-0.21910477	0.0	-11.375	1.125	-47.3125	0.5573883	1.1345912	-0.9333475
1276792565123	3.255263	2.4516625	8.308413	-0.552619	0.0	-12.375	0.375	-47.0625	0.57112056	1.1147836	-0.92528987
1276792565153	4.2086873	3.255263	7.43671	-0.66255665	0.0	-14.0625	-0.375	-47.3125	0.4261872	0.94976735	-0.91244733
1276792565193	4.7943625	3.2961242	6.5922484	-1.0141478	0.0	-15.0625	-2.1875	-47.3125	0.30917382	0.8476962	-0.96850896
1276792565223	3.1463003	2.5333846	8.349273	-0.53154373	0.0	-15.0625	-3.6875	-46.5625	0.7108349	1.1201845	-0.8928959
1276792565263	1.9477097	2.8738933	9.997335	0.7763338	0.0	-13.8125	-5.0	-46.8125	1.1247277	1.2365607	-0.59561944
1276792565303	1.56634	3.1054392	9.112013	-0.053396225	0.0	-12.5625	-5.25	-46.5625	0.90590864	1.2061603	-0.4671502
1276792565333	2.070293	3.173541	7.5865335	-1.326499	0.0	-12.8125	-5.5	-46.5625	0.63794243	1.1075855	-0.57803285
1276792565364	2.1792557	2.6014864	7.164303	-1.8792214	0.0	-14.0625	-6.0	-47.0625	0.72432905	1.1284178	-0.69730765
1276792565403	2.2609777	2.7240696	7.273266	-1.7175856	0.0	-16.25	-6.0	-46.5625	0.8990695	1.1178188	-0.6927678
1276792565433	2.1111538	3.173541	7.6273947	-1.2798996	0.0	-18.0	-7.0	-46.3125	1.0366868	1.1073684	-0.5870115
1276792565473	2.1111538	3.5276701	7.8180795	-0.9735422	0.0	-18.6875	-8.0625	-45.8125	1.057494	1.0866834	-0.5392831
1276792565513	2.1792557	3.405087	7.8180795	-1.0051651	0.0	-19.9375	-8.3125	-45.0	1.1917468	1.093561	-0.5693132
1276792565553	2.070293	3.1463003	8.539958	-0.4730444	0.0	-20.875	-9.5625	-44.25	1.5668536	1.1554306	-0.58198464
1276792565583	2.0294318	3.173541	8.539958	-0.4727955	0.0	-22.375	-10.5625	-43.75	1.6853572	1.1553701	-0.56894773
1276792565613	2.4516625	3.445948	8.008764	-0.749856	0.0	-23.5625	-10.8125	-43.75	1.5275512	1.0849551	-0.61837757
1276792565653	2.7921712	3.214402	7.5865335	-1.1069899	0.0	-24.0625	-12.125	-43.25	1.6271217	1.0593742	-0.71521884
1276792565693	2.9147544	2.8738933	7.668256	-1.1142855	0.0	-24.0625	-11.625	-43.0	1.8062402	1.0804778	-0.79245687
1276792565723	2.5606253	2.9147544	8.008764	-0.9076109	0.0	-23.8125	-11.625	-43.0	1.8793613	1.1196738	-0.7208115
1276792565763	2.0294318	2.6014864	8.349273	-0.8290844	0.0	-22.875	-11.875	-42.75	2.086352	1.1944544	-0.6624914
1276792565803	1.6889231	2.3426998	8.539958	-0.7915745	0.0	-21.875	-12.375	-43.25	2.2076595	1.2446916	-0.62463546
1276792565843	1.5390993	1.9885708	7.8180795	-1.5941229	0.0	-21.125	-13.375	-43.75	2.3826163	1.2596067	-0.65866786
1276792565883	2.0294318	2.2609777	8.240311	-1.0240917	0.0	-20.1875	-14.1875	-44.0	2.4943156	1.2175615	-0.7314822
1276792565913	-0.7627395	2.7240696	9.956474	0.54389095	0.0	-18.9375	-16.1875	-44.0	1.4850563	1.2939708	0.2730087
1276792565953	-2.4925237	3.1054392	10.378705	1.3097315	0.0	-17.5	-17.5	-44.25	1.0740579	1.204445	0.6763435
1276792565993	-3.1463003	3.405087	9.956474	1.1763	0.0	-16.0	-19.25	-44.5	1.003515	1.1350118	0.7459176
1276792566033	-2.982856	3.0237172	8.117727	-0.64489365	0.0	-14.8125	-21.0625	-44.0	0.9982917	1.088743	0.7785955
1276792566073	-2.7921712	3.214402	7.3958488	-1.2727661	0.0	-14.3125	-22.3125	-43.5	1.031054	1.0484383	0.71521884
1276792566103	-2.9556155	3.636633	7.4639506	-0.9935169	0.0	-13.3125	-23.3125	-43.0	1.0412152	1.0101513	0.68245757
1276792566133	-3.2961242	4.099725	7.9679036	-0.258893	0.0	-12.375	-25.375	-42.1875	1.0934999	0.98728186	0.6771671
1276792566163	-3.1463003	4.5628166	7.8861814	-0.16764832	0.0	-10.375	-26.9375	-41.9375	1.1457053	0.95819205	0.60367954
1276792566193	-2.8738933	4.440233	7.4639506	-0.65867233	0.0	-8.4375	-27.6875	-41.6875	1.1892201	0.95430595	0.574432
1276792566223	-2.7240696	3.9090397	7.3549876	-1.0432606	0.0	-6.9375	-29.4375	-41.1875	1.3332908	0.99596804	0.60861826
1276792566263	-2.6423476	3.8273177	7.014479	-1.390399	0.0	-5.75	-29.6875	-40.9375	1.3440434	0.9853121	0.6042481
1276792566303	-2.7921712	3.8273177	7.082581	-1.2856445	0.0	-5.0	-30.25	-40.6875	1.3565302	0.9812459	0.6302759
1276792566333	-3.173541	4.0180025	7.3958488	-0.81141376	0.0	-3.8125	-30.5	-40.6875	1.3280001	0.9652586	0.6685092
1276792566373	-3.336985	4.372132	7.8589406	-0.2142601	0.0	-2.8125	-30.25	-40.1875	1.3445232	0.96017003	0.6519209
1276792566413	-3.2961242	4.944186	7.8589406	0.045880318	0.0	-1.8125	-30.0	-40.1875	1.2953867	0.92340046	0.5880026
1276792566453	-2.9556155	4.5219555	7.1234417	-0.8664503	0.0	-1.125	-29.6875	-39.9375	1.2971854	0.9219604	0.57891196
1276792566493	-2.982856	4.2495484	7.014479	-1.0797367	0.0	-1.8125	-29.1875	-40.1875	1.2759161	0.9336144	0.6120155
1276792566533	-3.336985	4.440233	7.6954966	-0.31603336	0.0	-2.3125	-28.6875	-40.9375	1.2429935	0.9456084	0.64448196
1276792566573	-3.2961242	4.140586	7.7363577	-0.43327713	0.0	-3.0625	-28.4375	-40.9375	1.2660295	0.9708302	0.67232937
1276792566613	-2.7921712	3.990762	7.8861814	-0.53765583	0.0	-3.8125	-27.4375	-41.6875	1.329596	1.0175306	0.6104968
1276792566653	-2.1383946	5.09401	7.3549876	-0.60787296	0.0	-4.0625	-26.9375	-41.9375	1.1358418	0.92656463	0.39744616
1276792566693	-2.0294318	5.284695	7.164303	-0.6757231	0.0	-5.5	-26.6875	-41.9375	1.0724719	0.90208197	0.3666556
1276792566733	-2.1383946	5.09401	6.782933	-1.0585165	0.0	-6.25	-26.6875	-41.6875	1.0550731	0.88728136	0.39744616
1276792566773	-2.6423476	4.6036777	7.5456724	-0.5809784	0.0	-6.75	-26.9375	-41.4375	1.2003564	0.9577508	0.5210557
1276792566813	-3.6774938	5.09401	7.9270425	0.30823517	0.0	-6.9375	-27.4375	-40.9375	1.0949218	0.90060157	0.6252898
1276792566843	-4.9850473	5.706926	7.504812	0.85833454	0.0	-6.9375	-27.1875	-40.9375	0.91205996	0.7805735	0.71798456
1276792566873	-1.9477097	4.1814466	7.5865335	-0.927824	0.0	-7.1875	-26.125	-41.6875	1.3457942	1.0244957	0.43591365
1276792566903	-1.607201	4.372132	6.3607025	-1.922668	0.0	-7.6875	-25.875	-41.9375	1.1448437	0.9386956	0.35226834
1276792566933	-3.255263	4.6036777	6.701211	-1.0489788	0.0	-8.6875	-24.875	-42.75	0.9354375	0.87132365	0.61547554
1276792566973	-3.2961242	4.440233	6.4424243	-1.3163652	0.0	-8.1875	-23.875	-43.5	0.87176585	0.861468	0.638575
1276792567014	-2.6423476	5.2165933	7.273266	-0.47416687	0.0	-7.9375	-23.625	-43.75	0.91070336	0.893627	0.4688559
1276792567053	-0.95342433	6.2108784	9.656827	1.7145624	0.0	-7.4375	-23.0625	-43.5	1.0969801	0.99393386	0.15231973
1276792567093	0.6537767	6.4015636	8.008764	0.46699333	0.0	-7.1875	-23.0625	-43.25	0.5079785	0.8939385	-0.1017748
1276792567123	1.879608	5.8567495	6.3198414	-0.9876461	0.0	-7.6875	-23.3125	-42.5	0.016258923	0.79893863	-0.31054655
1276792567163	2.2609777	5.5571017	6.5513873	-0.92329025	0.0	-8.9375	-23.3125	-41.9375	-0.051108968	0.8293459	-0.3864085
1276792567203	2.1111538	5.243834	6.2108784	-1.4084501	0.0	-9.4375	-23.0625	-42.1875	0.014199862	0.8323998	-0.3827435
1276792567233	2.070293	5.134871	6.0201936	-1.6276684	0.0	-9.1875	-22.3125	-42.5	0.01613041	0.8272263	-0.38324738
1276792567273	0.38136974	5.012288	6.6331096	-1.4839935	0.0	-8.6875	-21.3125	-42.1875	0.72090435	0.92230225	-0.07594064
1276792567313	0.7218784	5.6660647	6.469665	-1.1763563	0.0	-7.1875	-20.25	-43.0	0.34497112	0.84752697	-0.12672114
1276792567353	1.7297841	4.8216033	6.0201936	-1.9020476	0.0	-6.9375	-19.0	-43.5	0.008916555	0.865788	-0.3444548
1276792567393	1.6889231	5.012288	7.164303	-0.9014425	0.0	-6.5	-17.75	-43.75	0.045582745	0.9348452	-0.3250079
1276792567433	1.1441092	5.8567495	8.158588	0.30141926	0.0	-6.25	-16.6875	-44.5	0.23822518	0.939285	-0.19291933
1276792567473	1.7297841	5.7886477	8.308413	0.46614456	0.0	-6.0	-15.9375	-44.25	0.09622244	0.9420717	-0.2903771
1276792567513	1.6480621	5.175732	7.3141265	-0.6961756	0.0	-4.75	-14.9375	-44.5	-4.382157E-4	0.9320202	-0.30827
1276792567553	0.88532263	5.366417	7.504812	-0.5381861	0.0	-3.3125	-15.1875	-44.5	0.0587196	0.94366586	-0.16350192
1276792567593	0.8036005	4.9850473	8.390134	-0.014264107	0.0	-2.8125	-15.6875	-44.75	0.02971207	1.029035	-0.15982722
1276792567633	0.61291564	4.5219555	8.117727	-0.4942255	0.0	-2.8125	-15.6875	-45.0	0.08302834	1.0586798	-0.13472115
1276792567673	0.42223078	3.336985	7.8589406	-1.2581596	0.0	-4.0625	-16.1875	-45.0	0.6795687	1.1663914	-0.12586178
1276792567703	0.46309182	4.862464	7.43671	-0.9093094	0.0	-6.25	-15.6875	-45.25	0.39698613	0.9896522	-0.09495171
1276792567733	0.7627395	4.5628166	6.8237944	-1.5625467	0.0	-8.1875	-14.1875	-45.25	0.4244857	0.97502905	-0.1656327
1276792567773	1.2258313	3.718355	7.205164	-1.6064548	0.0	-9.875	-12.375	-45.25	0.571354	1.0730433	-0.31845024
1276792567813	1.0351465	3.3778462	7.43671	-1.5734234	0.0	-10.875	-10.0625	-45.5625	0.75085026	1.1272973	-0.29736516
1276792567843	0.38136974	3.3778462	7.7772183	-1.3189878	0.0	-10.875	-7.75	-45.5625	0.7785772	1.1587342	-0.11242713
1276792567873	-0.3405087	3.214402	8.076866	-1.1069899	0.0	-9.6875	-5.25	-45.8125	0.6601165	1.1901149	0.105538614
1276792567913	0.3405087	2.8738933	7.273266	-1.9787765	0.0	-8.6875	-3.1875	-46.3125	0.5576584	1.1921059	-0.11793361
1276792567953	0.42223078	2.2609777	7.6954966	-1.7747784	0.0	-6.75	-1.375	-46.8125	0.5288217	1.2803632	-0.18462041
1276792567993	-0.5720546	2.6014864	9.507003	0.06644821	0.0	-4.0625	0.125	-46.8125	0.28229785	1.2976242	0.21645044
1276792568033	-1.920469	2.2201166	12.639683	3.1694317	0.0	-0.625	0.125	-46.3125	0.035628017	1.3425975	0.7131557
1276792568073	-2.2609777	1.6889231	10.991621	1.5414867	0.0	3.8125	-0.125	-45.5625	-0.25701642	1.3194714	0.92922574
1276792568103	-1.3075534	1.6889231	10.079058	0.49624062	0.0	7.4375	-0.625	-44.25	-0.91436255	1.361969	0.658806
1276792568133	-2.3426998	2.2201166	9.534244	0.25908184	0.0	9.875	-1.6875	-43.5	-0.7431315	1.2443821	0.8122574
1276792568173	-2.3699405	2.3426998	8.580819	-0.6014719	0.0	11.875	-2.1875	-42.75	-0.8333794	1.20037	0.79117846
1276792568203	-1.9477097	3.0645783	7.8180795	-1.1864662	0.0	12.125	-3.1875	-43.0	-0.7171142	1.135987	0.5661538
1276792568233	-1.879608	3.445948	7.8180795	-1.0585155	0.0	11.625	-4.4375	-42.5	-0.6507432	1.1054926	0.49934676
1276792568273	-1.7297841	3.6774938	7.0553403	-1.6645412	0.0	11.125	-6.0	-43.0	-0.53576964	1.0481975	0.4396642
1276792568313	-1.6889231	3.486809	7.273266	-1.565856	0.0	10.375	-7.5	-43.25	-0.5288147	1.0813489	0.45106965
1276792568343	-1.525479	3.1054392	7.9270425	-1.1574402	0.0	10.625	-7.75	-43.0	-0.7527817	1.1592536	0.4566055
1276792568383	-1.4982382	3.214402	9.847511	0.65999126	0.0	11.125	-7.75	-43.25	-1.0817615	1.2251225	0.43616316
1276792568423	-1.525479	3.173541	10.732834	1.4890203	0.0	12.125	-6.75	-42.5	-1.2707118	1.2537884	0.4480779
1276792568463	-1.3075534	3.445948	10.691973	1.5027504	0.0	12.375	-6.0	-42.5	-1.1349941	1.2388375	0.3626634
1276792568503	-0.84446156	3.173541	9.765789	0.4965105	0.0	11.875	-5.75	-41.9375	-1.0907049	1.2464023	0.26006806
1276792568543	-0.8036005	3.173541	9.193735	-0.047454834	0.0	12.125	-5.75	-41.9375	-1.0441872	1.2287154	0.24800588
1276792568583	-0.9125633	3.405087	8.430995	-0.66832066	0.0	11.875	-6.5	-42.1875	-0.90763396	1.1747591	0.26184678
1276792568623	-1.0760075	3.3778462	7.9679036	-1.0856915	0.0	11.875	-7.0	-42.1875	-0.8694213	1.1521744	0.3083856
1276792568653	-1.334794	3.2961242	7.5456724	-1.4649906	0.0	12.375	-7.25	-42.5	-0.84027165	1.1303862	0.38477376
1276792568693	-1.3756552	3.255263	7.504812	-1.5113888	0.0	11.375	-8.0625	-41.9375	-0.79905283	1.1307002	0.39983112
1276792568733	-1.4165162	3.8681788	7.3958488	-1.3409605	0.0	10.125	-8.8125	-41.9375	-0.5686415	1.0626054	0.3510309
1276792568773	-1.3756552	4.5628166	7.9270425	-0.5573406	0.0	9.4375	-9.5625	-41.9375	-0.5022192	1.0295001	0.29282552
1276792568813	-1.1849703	4.399372	7.9270425	-0.66353035	0.0	8.1875	-10.3125	-41.6875	-0.46958137	1.0491407	0.26310578
1276792568853	-1.1441092	4.372132	7.7363577	-0.8469763	0.0	8.4375	-11.125	-41.9375	-0.49029103	1.0420976	0.25594315
1276792568893	-0.7218784	4.5628166	8.158588	-0.43099213	0.0	8.4375	-11.375	-41.6875	-0.59841096	1.0555844	0.15690844
1276792568933	-0.84446156	4.4810944	7.8589406	-0.72060204	0.0	7.9375	-11.625	-41.9375	-0.5186421	1.0450426	0.1862654
1276792568973	-0.88532263	4.2904096	7.9679036	-0.7138567	0.0	9.1875	-11.625	-42.5	-0.64309514	1.0681022	0.20349304
1276792569003	-0.88532263	3.990762	7.8861814	-0.92397976	0.0	8.9375	-11.375	-42.75	-0.6583541	1.0925785	0.21830754
1276792569033	-1.0351465	4.0588636	7.7363577	-1.0090857	0.0	9.875	-10.8125	-42.5	-0.6605501	1.0745478	0.2497105
1276792569073	-1.4982382	3.9499009	7.3549876	-1.3247709	0.0	10.625	-10.0625	-41.9375	-0.5922325	1.0494337	0.36254424
1276792569113	-1.7978859	3.5957718	7.014479	-1.7217951	0.0	10.875	-10.0625	-41.1875	-0.5538307	1.0503701	0.4636476
1276792569143	-1.9477097	3.9090397	8.281172	-0.44438744	0.0	12.125	-9.8125	-41.1875	-0.7712689	1.0854785	0.4622529
1276792569173	-1.920469	4.372132	9.915613	1.198945	0.0	12.8125	-9.8125	-40.9375	-0.9974777	1.1219795	0.4138803
1276792569203	-1.7978859	4.8216033	10.882658	2.23131	0.0	13.5625	-10.0625	-40.6875	-1.1080654	1.1291014	0.3569119
1276792569233	-1.3075534	4.7943625	10.760075	2.045557	0.0	14.0625	-10.3125	-41.1875	-1.1484222	1.1381373	0.26625204
1276792569273	-0.6537767	4.399372	9.997335	1.1354074	0.0	14.0625	-10.3125	-40.6875	-1.1646489	1.1522024	0.14752714
1276792569303	-0.27240697	4.440233	10.228881	1.3477163	0.0	13.3125	-10.0625	-41.4375	-1.0925729	1.1605667	0.061272904
1276792569333	-0.46309182	4.2495484	9.956474	1.0286856	0.0	13.0625	-10.0625	-41.9375	-1.1001121	1.1652558	0.10854603
1276792569365	-0.7627395	3.1054392	8.580819	-0.64935875	0.0	12.375	-9.0625	-41.9375	-1.2177532	1.2140777	0.24084647
1276792569403	-0.84446156	2.982856	8.076866	-1.1552734	0.0	11.375	-7.5	-42.75	-1.0021467	1.2043127	0.27588567
1276792569443	-0.9125633	2.7240696	7.6273947	-1.6561604	0.0	11.375	-7.0	-43.25	-0.9873692	1.2105794	0.32324982
1276792569483	-0.84446156	3.759216	7.9679036	-0.95609665	0.0	10.625	-6.75	-43.0	-0.69340867	1.1203935	0.22096956
1276792569523	-1.1168685	4.1814466	7.6273947	-1.03687	0.0	9.875	-8.0625	-42.75	-0.5522332	1.0546674	0.26100785
1276792569563	-0.9942854	4.7126403	6.891896	-1.3985701	0.0	9.4375	-11.125	-42.1875	-0.4703194	0.960844	0.20793316
1276792569603	-0.61291564	5.284695	6.469665	-1.43048	0.0	8.6875	-13.625	-41.4375	-0.43754762	0.8825946	0.11546351
1276792569643	-0.29964766	6.0882955	6.6331096	-0.798028	0.0	8.1875	-15.9375	-41.1875	-0.43643937	0.82759595	0.049177323
1276792569673	-0.27240697	6.5922484	6.5513873	-0.5086603	0.0	7.4375	-18.5	-41.4375	-0.3912251	0.78186285	0.041298818
1276792569703	-0.29964766	6.851035	6.701211	-0.21849632	0.0	6.9375	-19.75	-41.1875	-0.37410656	0.77386564	0.043709718
1276792569734	-0.6946377	6.891896	6.891896	-0.035315514	0.0	6.25	-20.8125	-40.6875	-0.29097196	0.78287125	0.100451276
1276792569773	-1.1168685	7.0553403	6.8237944	0.07208443	0.0	5.75	-21.8125	-40.6875	-0.16159298	0.7625339	0.15699838
1276792569813	-1.3075534	6.742072	6.3198414	-0.47361088	0.0	5.0	-21.8125	-40.4375	-0.051669218	0.7438788	0.19156133
1276792569853	-1.4165162	6.2108784	6.3198414	-0.8332491	0.0	3.5625	-21.8125	-40.9375	0.101443976	0.78141695	0.22423476
1276792569883	-1.4982382	5.706926	5.9793324	-1.4062853	0.0	2.0625	-21.8125	-41.4375	0.25285596	0.7920496	0.25673625
1276792569913	-1.4165162	5.5571017	5.829509	-1.6291771	0.0	0.625	-21.8125	-41.4375	0.33175322	0.7935879	0.24958692
1276792569953	-1.4165162	5.434519	6.2789803	-1.3825121	0.0	-0.375	-21.8125	-41.6875	0.4503466	0.84106845	0.25497833
1276792569993	-1.3756552	5.284695	6.0882955	-1.6281557	0.0	-0.875	-22.0625	-41.4375	0.49241996	0.8396769	0.25465772
1276792570034	-1.1849703	5.09401	6.2108784	-1.6870384	0.0	-1.125	-21.8125	-41.6875	0.509936	0.87092185	0.22855563
1276792570073	-1.920469	5.6252036	7.0553403	-0.5811987	0.0	-1.375	-21.3125	-41.9375	0.601244	0.87068284	0.32899684
1276792570113	-1.7978859	5.434519	7.246025	-0.5724058	0.0	-1.375	-20.25	-42.5	0.5840221	0.9021969	0.31949323
1276792570154	-1.6480621	5.7886477	6.973618	-0.594924	0.0	-1.5625	-19.5	-42.75	0.45298272	0.85876626	0.27736714
1276792570195	-1.4165162	5.8976107	6.3198414	-1.0471563	0.0	-2.5625	-19.0	-42.75	0.39320552	0.8059442	0.23571967
1276792570233	-1.525479	6.0474343	6.2789803	-0.9565573	0.0	-2.5625	-18.75	-42.75	0.38058376	0.7887627	0.2470973
1276792570263	-1.334794	6.238119	5.9793324	-1.0631828	0.0	-3.3125	-19.25	-42.5	0.37229002	0.753044	0.2107951
1276792570303	-1.1441092	6.4015636	6.1291566	-0.8704567	0.0	-3.8125	-19.5	-42.1875	0.37983465	0.7558123	0.17685613
1276792570334	-1.0351465	6.5513873	6.1291566	-0.77566147	0.0	-3.8125	-19.75	-42.75	0.3534553	0.74596465	0.15670864
1276792570373	-0.9942854	6.510526	5.8567495	-0.99319077	0.0	-5.0	-20.25	-43.0	0.39236107	0.7268558	0.1515487
1276792570413	-1.1168685	6.4015636	6.3607025	-0.71346855	0.0	-5.25	-20.0	-42.75	0.4594751	0.77470094	0.17272949
1276792570453	-0.95342433	6.3607025	6.5922484	-0.5965853	0.0	-4.5	-20.0	-43.0	0.4258	0.79771996	0.14878523
1276792570493	-0.6537767	6.3607025	6.742072	-0.51463795	0.0	-3.5625	-20.25	-42.75	0.35669756	0.8118728	0.10242405
1276792570533	-0.5720546	6.238119	6.782933	-0.5735817	0.0	-2.3125	-20.25	-42.75	0.28173968	0.8251282	0.091447294
1276792570563	-0.7218784	6.2108784	6.782933	-0.5814514	0.0	-1.375	-20.5625	-42.5	0.26273736	0.8260524	0.1157089
1276792570593	-0.9125633	6.3198414	6.701211	-0.550334	0.0	-0.625	-20.5625	-42.5	0.23821768	0.809527	0.14340535
1276792570633	-1.1168685	6.2789803	6.510526	-0.69292736	0.0	0.125	-21.0625	-41.9375	0.2408371	0.7957165	0.17603308
1276792570673	-1.4982382	5.938472	6.0201936	-1.2186995	0.0	0.875	-20.8125	-41.6875	0.26829115	0.7768053	0.24713615
1276792570713	-1.4982382	5.706926	5.597963	-1.6733294	0.0	0.875	-20.8125	-41.9375	0.26407155	0.7591087	0.25673622
1276792570743	-2.070293	5.8567495	6.0882955	-1.1086636	0.0	0.875	-20.5625	-41.6875	0.36035097	0.77535	0.33977914
1276792570773	-2.5333846	5.597963	6.701211	-0.7148161	0.0	1.375	-19.75	-41.9375	0.43929097	0.8287071	0.4249764
1276792570813	-2.3426998	5.175732	6.8237944	-0.92742634	0.0	2.0625	-19.75	-42.5	0.4579166	0.87651306	0.42504016
1276792570853	-1.8387469	4.5219555	6.3607025	-1.7886944	0.0	3.5625	-20.0	-42.75	0.39116	0.91622216	0.38620576
1276792570893	-1.525479	4.0180025	6.0882955	-2.354216	0.0	4.75	-19.5	-42.1875	0.2986063	0.9561093	0.36285076
1276792570933	-0.84446156	3.636633	5.8567495	-2.861168	0.0	6.0	-19.25	-41.4375	-0.27324855	1.0032934	0.22816607
1276792571003	0.19068487	3.405087	5.9793324	-2.9230905	0.0	7.6875	-18.5	-40.4375	-1.1063883	1.0524498	-0.05594157
1276792571043	0.10896278	3.9090397	7.43671	-1.4044409	0.0	10.125	-17.5	-39.1875	-1.2947425	1.086687	-0.027867349
1276792571083	-0.50395286	4.8216033	8.19945	-0.2812729	0.0	12.5625	-18.0	-38.375	-1.2959074	1.0368404	0.104141645
1276792571113	-1.2666923	5.325556	9.00305	0.7299986	0.0	14.5625	-17.75	-37.625	-1.3828557	1.0244932	0.23351265
1276792571153	-1.4573772	5.325556	9.193735	0.91763306	0.0	16.0	-17.5	-37.125	-1.4764895	1.0299671	0.2671175
1276792571193	-1.2666923	5.134871	8.158588	-0.08379269	0.0	17.25	-17.25	-36.375	-1.3930714	0.9956528	0.2418556
1276792571233	-1.1441092	4.944186	7.5456724	-0.7131834	0.0	17.75	-15.9375	-36.625	-1.271015	0.9787322	0.22740236
1276792571273	-1.334794	4.671779	7.9270425	-0.50905895	0.0	18.4375	-15.1875	-36.375	-1.4070491	1.0209235	0.2782997
1276792571313	-1.334794	5.09401	7.246025	-0.8492241	0.0	18.9375	-14.6875	-36.125	-1.1889476	0.9423478	0.25627056
1276792571353	-1.7978859	5.2165933	7.273266	-0.6772671	0.0	18.9375	-13.875	-36.375	-1.1115544	0.9217946	0.3318985
1276792571393	-2.8738933	5.5162406	8.076866	0.38765907	0.0	19.4375	-13.625	-35.8125	-1.1300595	0.9145558	0.4802964
1276792571433	-3.718355	5.8567495	8.771504	1.3766842	0.0	19.6875	-13.375	-35.5625	-1.0902121	0.90162677	0.56567514
1276792571473	-4.1814466	5.243834	8.62168	1.1165209	0.0	20.1875	-13.125	-34.8125	-1.1566471	0.90967137	0.6731551
1276792571513	-4.2086873	4.399372	8.049625	0.28611946	0.0	20.875	-12.875	-34.0625	-1.3148085	0.9232454	0.7632499
1276792571553	-4.1814466	5.7477865	10.460427	2.8401709	0.0	21.375	-12.625	-34.0625	-1.5404669	0.9739623	0.6289372
1276792571583	-5.284695	5.434519	8.539958	1.61232	0.0	20.875	-12.625	-34.3125	-0.8771854	0.84485465	0.77142197
1276792571613	-3.486809	3.636633	7.43671	-0.82402325	0.0	20.6875	-12.125	-35.0625	-1.4844018	0.97535175	0.7643688
1276792571643	-2.7921712	3.568531	6.932757	-1.5245161	0.0	20.4375	-11.625	-35.3125	-1.4468222	0.99191236	0.66394323
1276792571683	-2.8738933	4.3312707	7.3141265	-0.833601	0.0	19.6875	-11.125	-35.3125	-1.196535	0.95293915	0.58582234
1276792571714	-3.0645783	4.399372	7.5865335	-0.51678467	0.0	20.4375	-9.8125	-35.3125	-1.2057871	0.9555758	0.6084367
1276792571754	-2.9147544	3.8681788	7.9270425	-0.5170536	0.0	19.4375	-9.3125	-35.3125	-1.3638157	1.0223292	0.6457508
1276792571793	-2.7240696	3.3778462	8.117727	-0.60187435	0.0	18.6875	-8.8125	-35.8125	-1.5167491	1.0798855	0.67866254
1276792571833	-2.4925237	3.0237172	8.499097	-0.44768715	0.0	18.0	-8.3125	-36.625	-1.6735829	1.1387811	0.68939793
1276792571873	-2.2201166	2.7240696	8.812365	-0.31943512	0.0	16.75	-8.0625	-37.375	-1.7939113	1.1913433	0.68382055
1276792571913	-2.1792557	2.7921712	8.580819	-0.5235567	0.0	16.5	-7.0	-37.625	-1.5856194	1.1793262	0.6627295
1276792571953	-2.2609777	3.1463003	8.390134	-0.5651369	0.0	16.25	-6.75	-37.875	-1.327977	1.138186	0.6231102
1276792571993	-2.4925237	3.405087	8.158588	-0.6213436	0.0	16.75	-6.25	-37.625	-1.1825426	1.0934597	0.63188124
1276792572033	-2.6832085	3.405087	8.19945	-0.53167343	0.0	17.25	-5.75	-37.375	-1.1866392	1.0844358	0.6673809
1276792572073	-2.6832085	3.214402	8.240311	-0.5635605	0.0	17.75	-6.0	-37.125	-1.3138033	1.1006685	0.69557124
1276792572113	-2.5333846	3.1054392	8.390134	-0.50847054	0.0	17.75	-5.5	-37.125	-1.3756297	1.1251715	0.6842948
1276792572143	-2.4925237	3.0645783	8.308413	-0.6069746	0.0	18.0	-5.5	-37.125	-1.3981305	1.1269814	0.6828183
1276792572174	-2.5333846	3.1463003	8.308413	-0.56830883	0.0	17.75	-5.75	-37.125	-1.359353	1.1182584	0.6779005
1276792572213	-2.5333846	3.173541	8.281172	-0.58346176	0.0	17.5	-5.25	-37.125	-1.3026017	1.1148945	0.67369324
1276792572243	-2.6423476	3.1463003	8.240311	-0.59883213	0.0	17.75	-5.25	-37.375	-1.2975035	1.1082642	0.69855833
1276792572273	-2.6832085	3.1463003	8.281172	-0.5504837	0.0	17.25	-5.25	-37.375	-1.2612157	1.1076815	0.7061254
1276792572313	-2.6832085	3.1054392	8.281172	-0.5642929	0.0	17.25	-5.0	-37.625	-1.2535415	1.1106828	0.7125859
1276792572343	-2.7240696	3.173541	8.240311	-0.5657282	0.0	17.5	-5.5	-37.875	-1.2468144	1.1011304	0.70933276
1276792572383	-2.6832085	3.1463003	8.240311	-0.5870228	0.0	17.25	-5.25	-37.625	-1.2434194	1.1057018	0.7061254
1276792572423	-2.7240696	3.1054392	8.240311	-0.5888939	0.0	17.5	-5.0	-37.625	-1.2583299	1.1061065	0.7200707
1276792572453	-2.6423476	3.0645783	8.19945	-0.6630945	0.0	17.5	-5.0	-37.625	-1.2583299	1.1061065	0.7200707
1276792572493	-2.7240696	3.0645783	8.158588	-0.67567253	0.0	17.25	-5.0	-37.875	-1.2267852	1.1050944	0.7266424
1276792572533	-2.7513103	3.1463003	8.158588	-0.63978195	0.0	17.25	-5.5	-37.625	-1.2259585	1.0973634	0.7185235
1276792572563	-2.7921712	3.1054392	8.158588	-0.6413603	0.0	17.5	-5.25	-37.875	-1.2302957	1.0976995	0.73233026
1276792572603	-2.7921712	3.0237172	8.19945	-0.632226	0.0	17.25	-5.25	-37.875	-1.2443484	1.10559	0.7456065
1276792572643	-2.7240696	2.982856	8.240311	-0.62946606	0.0	18.0	-5.5	-37.625	-1.3634633	1.1150045	0.74008316
1276792572683	-2.7513103	2.9556155	8.240311	-0.63015366	0.0	18.1875	-5.5	-37.875	-1.3723514	1.1151574	0.74961394
1276792572724	-2.8330324	2.982856	8.158588	-0.6695795	0.0	17.75	-6.0	-38.125	-1.3063896	1.1037692	0.7596428
1276792572763	-2.7513103	3.0237172	8.240311	-0.6079931	0.0	18.0	-5.75	-37.625	-1.3560655	1.1102655	0.7382633
1276792572803	-2.7513103	2.982856	8.240311	-0.6213436	0.0	17.5	-5.25	-37.875	-1.2956694	1.1132039	0.7450401
1276792572843	-2.7921712	2.9556155	8.281172	-0.58115864	0.0	17.25	-5.25	-37.875	-1.284143	1.1143856	0.7569698
1276792572883	-2.7240696	3.0645783	8.19945	-0.63914394	0.0	17.5	-5.25	-37.375	-1.2859868	1.1070956	0.7266424
1276792572923	-2.7513103	2.982856	8.240311	-0.6213436	0.0	17.25	-5.5	-37.625	-1.2981051	1.1132039	0.7450401
1276792572963	-2.8738933	2.9556155	8.281172	-0.55609703	0.0	17.5	-5.5	-37.375	-1.3229337	1.1088984	0.77138036
1276792573003	-2.7921712	2.9147544	8.240311	-0.6308813	0.0	17.5	-5.5	-37.375	-1.3229337	1.1088984	0.77138036
1276792573033	-2.7513103	2.982856	8.240311	-0.6213436	0.0	17.5	-5.75	-37.375	-1.3432637	1.1132039	0.7450401
1276792573063	-2.8330324	2.982856	8.19945	-0.63307476	0.0	17.5	-5.75	-37.125	-1.3292947	1.1057745	0.7596428
1276792573103	-2.8738933	2.9556155	8.240311	-0.59265804	0.0	17.5	-5.75	-37.125	-1.3292947	1.1057745	0.7596428
1276792573133	-2.7513103	2.982856	8.240311	-0.6213436	0.0	17.5	-5.25	-37.125	-1.3289515	1.1132039	0.7450401
1276792573163	-2.7240696	2.982856	8.281172	-0.59275913	0.0	17.75	-4.75	-37.125	-1.3362974	1.1169566	0.7400832
1276792573193	-2.7513103	2.9556155	8.240311	-0.63015366	0.0	17.75	-4.75	-37.375	-1.3233956	1.1151574	0.74961394
1276792573233	-2.8330324	2.9556155	8.158588	-0.6784363	0.0	17.75	-5.25	-37.375	-1.3153446	1.1056972	0.7642248
1276792573263	-2.7513103	2.982856	8.281172	-0.58466816	0.0	17.75	-5.25	-37.625	-1.3345547	1.1151614	0.7450401
1276792573303	-2.7240696	2.9556155	8.308413	-0.5770273	0.0	17.5	-5.25	-37.625	-1.3352774	1.1202052	0.74465334
1276792573343	-2.6832085	2.9147544	8.281172	-0.626606	0.0	17.75	-5.5	-37.875	-1.3750854	1.1245745	0.7440592
1276792573373	-2.7513103	3.0237172	8.240311	-0.6079931	0.0	18.0	-5.25	-37.875	-1.3203446	1.1102655	0.7382633
1276792573413	-2.7921712	3.0237172	8.19945	-0.632226	0.0	18.0	-5.25	-38.125	-1.2942685	1.10559	0.7456065
1276792573453	-2.7240696	2.9556155	8.281172	-0.6015415	0.0	18.1875	-5.5	-38.625	-1.3526063	1.1189164	0.74465334
1276792573493	-2.6423476	2.982856	8.240311	-0.6533909	0.0	18.1875	-4.75	-38.375	-1.3228911	1.1203657	0.7249393
1276792573534	-2.6832085	2.9556155	8.308413	-0.5890045	0.0	18.0	-4.4375	-38.125	-1.3205677	1.1228986	0.73712647
1276792573573	-2.7921712	2.9556155	8.308413	-0.5566988	0.0	18.1875	-4.75	-37.625	-1.3515882	1.1156836	0.7569698
1276792573614	-2.7240696	3.0237172	8.281172	-0.5794506	0.0	18.1875	-4.4375	-37.125	-1.338828	1.1140087	0.73331267
1276792573653	-2.6832085	2.982856	8.349273	-0.54342175	0.0	18.0	-5.25	-37.125	-1.3991373	1.1228422	0.7325628
1276792573693	-2.7513103	2.9556155	8.349273	-0.53218365	0.0	17.5	-5.0	-37.625	-1.3256228	1.120327	0.74961394
1276792573734	-2.7240696	2.9556155	8.308413	-0.5770273	0.0	17.0	-5.0	-37.625	-1.2822495	1.1202052	0.74465334
1276792573774	-2.6832085	2.9556155	8.240311	-0.65034103	0.0	16.75	-5.0	-37.125	-1.278413	1.1196774	0.7371265
1276792573814	-2.7921712	2.9556155	8.240311	-0.6178198	0.0	17.25	-4.4375	-37.375	-1.2625631	1.1124258	0.7569698
1276792573854	-2.7921712	2.9556155	8.281172	-0.58115864	0.0	17.25	-4.4375	-36.875	-1.2914314	1.1143856	0.7569698
1276792573893	-2.7513103	2.8738933	8.308413	-0.59477234	0.0	17.5	-4.75	-37.125	-1.3576975	1.1242036	0.7636099
1276792573934	-2.7513103	2.8738933	8.240311	-0.65614796	0.0	17.75	-4.4375	-37.875	-1.3172305	1.1209892	0.7636099
1276792573974	-2.7921712	2.9147544	8.240311	-0.6308813	0.0	17.25	-4.75	-37.625	-1.2790478	1.1153191	0.7639218
1276792574014	-2.7921712	2.9147544	8.281172	-0.59416866	0.0	17.25	-5.0	-37.875	-1.2872156	1.1172704	0.76392174
1276792574053	-2.7921712	2.8738933	8.240311	-0.64377975	0.0	17.25	-5.0	-37.875	-1.2872156	1.1172704	0.76392174
1276792574094	-2.7921712	2.8738933	8.281172	-0.60701466	0.0	17.0	-5.25	-37.875	-1.2919458	1.1201437	0.7709761
1276792574133	-2.7513103	2.9147544	8.281172	-0.6064701	0.0	17.5	-5.25	-38.375	-1.3064092	1.1200215	0.75656
1276792574163	-2.7921712	2.8738933	8.281172	-0.60701466	0.0	18.0	-5.0	-38.625	-1.331033	1.1201437	0.7709761
1276792574203	-2.8330324	2.8738933	8.281172	-0.59453106	0.0	18.4375	-4.4375	-38.625	-1.3314523	1.117351	0.7782384
1276792574233	-2.7513103	2.9147544	8.281172	-0.6064701	0.0	18.6875	-3.9375	-38.375	-1.3367971	1.1200215	0.75656
1276792574273	-2.7240696	2.9556155	8.281172	-0.6015415	0.0	18.4375	-3.9375	-38.125	-1.3189685	1.1189164	0.74465334
1276792574313	-2.7921712	2.8738933	8.281172	-0.60701466	0.0	17.75	-3.6875	-38.125	-1.2755182	1.1201437	0.7709761
1276792574343	-2.7513103	2.8738933	8.308413	-0.59477234	0.0	16.75	-3.9375	-37.875	-1.2280662	1.1242036	0.7636099
1276792574373	-2.6832085	2.9556155	8.281172	-0.61355114	0.0	16.25	-4.1875	-37.625	-1.1885104	1.1216154	0.73712647
1276792574413	-2.7513103	2.9147544	8.281172	-0.6064701	0.0	16.25	-3.9375	-37.625	-1.1781837	1.1200215	0.75656
1276792574443	-2.8330324	2.9147544	8.240311	-0.6183653	0.0	16.75	-4.1875	-37.625	-1.2051187	1.1125461	0.77118117
1276792574473	-2.8738933	2.8738933	8.281172	-0.58188343	0.0	17.0	-4.1875	-37.625	-1.2383803	1.1145456	0.7853982
1276792574513	-2.7921712	2.7921712	8.281172	-0.63221645	0.0	17.25	-4.4375	-37.875	-1.3057271	1.1258546	0.7853982
1276792574543	-2.7513103	2.8738933	8.281172	-0.6193342	0.0	17.5	-5.0	-38.125	-1.3206543	1.122923	0.7636098
1276792574578	-2.7921712	2.9147544	8.281172	-0.59416866	0.0	17.25	-5.5	-38.625	-1.2760834	1.1172704	0.76392174
1276792574613	-2.7921712	2.8738933	8.240311	-0.64377975	0.0	17.25	-5.25	-39.1875	-1.2453711	1.1182015	0.7709761
1276792574643	-2.8330324	2.8738933	8.281172	-0.59453106	0.0	17.25	-4.75	-39.1875	-1.2234951	1.117351	0.7782384
1276792574673	-2.7921712	2.8738933	8.281172	-0.60701466	0.0	16.75	-4.4375	-38.875	-1.1910727	1.1201437	0.7709761
1276792574704	-2.7240696	2.8738933	8.281172	-0.62745476	0.0	16.75	-3.6875	-38.125	-1.2093801	1.1247679	0.7586406
1276792574743	-2.6832085	2.7921712	8.349273	-0.60305405	0.0	17.0	-4.1875	-37.875	-1.3085825	1.1365207	0.7655003
1276792574774	-2.7921712	2.8330324	8.281172	-0.6196976	0.0	17.25	-4.4375	-38.125	-1.2801214	1.1230054	0.7781343
1276792574813	-2.8738933	2.7921712	8.281172	-0.60701466	0.0	17.5	-4.1875	-38.375	-1.2761608	1.1201437	0.79982024
1276792574853	-2.7513103	2.7649305	8.281172	-0.65283394	0.0	18.0	-4.4375	-38.875	-1.3428783	1.1306019	0.78292906
1276792574893	-2.7513103	2.7921712	8.240311	-0.6814842	0.0	18.0	-4.1875	-38.875	-1.3137652	1.1267747	0.7780273
1276792574923	-2.7921712	2.7649305	8.308413	-0.6158514	0.0	17.75	-4.1875	-39.4375	-1.2849371	1.1290171	0.7903001
1276792574953	-2.7921712	2.8330324	8.281172	-0.6196976	0.0	17.5	-4.1875	-38.875	-1.2589349	1.1230054	0.7781343
1276792574993	-2.7513103	2.7921712	8.281172	-0.64456844	0.0	17.0	-3.9375	-38.625	-1.2403433	1.1286904	0.77802736
1276792575033	-2.8330324	2.7649305	8.390134	-0.52951336	0.0	17.0	-3.9375	-38.625	-1.2403433	1.1286904	0.77802736
1276792575063	-2.7921712	2.7649305	8.349273	-0.5788975	0.0	16.75	-3.9375	-37.625	-1.2742432	1.1309104	0.79030013
1276792575103	-2.7921712	2.7921712	8.390134	-0.53374386	0.0	17.25	-3.4375	-37.875	-1.2828425	1.130912	0.7853982
1276792575133	-2.8330324	2.7921712	8.390134	-0.5213585	0.0	17.25	-3.4375	-38.375	-1.2548748	1.1280862	0.79266196
1276792575163	-2.7921712	2.7921712	8.349273	-0.57069874	0.0	17.25	-3.4375	-38.125	-1.2656895	1.1290278	0.7853982
1276792575193	-2.7921712	2.7649305	8.349273	-0.5788975	0.0	17.5	-3.6875	-38.125	-1.3052502	1.1309104	0.79030013
1276792575233	-2.7513103	2.7649305	8.349273	-0.5911789	0.0	17.5	-4.1875	-38.125	-1.3356684	1.1337506	0.78292906
1276792575271	-2.7921712	2.7649305	8.308413	-0.6158514	0.0	17.75	-4.1875	-37.125	-1.3830465	1.1290171	0.7903001
1276792575333	-2.7921712	2.7649305	8.390134	-0.5419102	0.0	17.5	-3.1875	-37.625	-1.3114597	1.1327887	0.7903001
1276792575364	-2.8330324	2.7240696	8.390134	-0.54160976	0.0	17.25	-3.1875	-37.625	-1.2982417	1.1327194	0.8050035
1276792575403	-2.7921712	2.7649305	8.390134	-0.5419102	0.0	17.25	-3.4375	-38.125	-1.2820739	1.1327887	0.7903001
1276792575443	-2.8330324	2.7649305	8.349273	-0.5664511	0.0	17.75	-3.9375	-38.375	-1.3177321	1.1280569	0.797563
1276792575473	-2.7513103	2.7649305	8.349273	-0.5911789	0.0	17.5	-4.4375	-38.125	-1.3477666	1.1337506	0.78292906
1276792575513	-2.7921712	2.7649305	8.281172	-0.64046955	0.0	17.75	-4.4375	-38.125	-1.346657	1.1277466	0.7903001
1276792575553	-2.8330324	2.7240696	8.308413	-0.6155491	0.0	17.75	-5.0	-38.375	-1.3765914	1.1289477	0.80500346
1276792575593	-2.7921712	2.7921712	8.349273	-0.57069874	0.0	17.75	-5.0	-38.125	-1.3782603	1.1290278	0.7853982
1276792575633	-2.8330324	2.7240696	8.390134	-0.54160976	0.0	18.6875	-4.75	-38.125	-1.4669908	1.1327194	0.8050035
1276792575673	-2.7513103	2.7649305	8.349273	-0.5911789	0.0	18.0	-4.75	-38.375	-1.3931603	1.1337506	0.78292906
1276792575715	-2.8330324	2.7649305	8.349273	-0.5664511	0.0	17.75	-4.1875	-37.875	-1.3504715	1.1280569	0.797563
1276792575753	-2.8330324	2.7240696	8.308413	-0.6155491	0.0	17.5	-4.1875	-38.125	-1.3260043	1.1289477	0.80500346
1276792575793	-2.7921712	2.6832085	8.349273	-0.60305405	0.0	16.5	-3.9375	-37.875	-1.2697446	1.1365207	0.805296
1276792575833	-2.8330324	2.7649305	8.349273	-0.5664511	0.0	17.0	-3.9375	-37.375	-1.2979591	1.1280569	0.797563
1276792575873	-2.8330324	2.7240696	8.349273	-0.5785961	0.0	17.75	-3.6875	-37.375	-1.3634253	1.130841	0.80500346
1276792575913	-2.7921712	2.6832085	8.308413	-0.64010525	0.0	17.75	-2.6875	-37.125	-1.3435868	1.1346451	0.80529606
1276792575953	-2.7921712	2.6014864	8.349273	-0.6265459	0.0	18.0	-2.4375	-37.875	-1.3588924	1.1420712	0.820737
1276792575993	-2.8330324	2.6832085	8.349273	-0.5905752	0.0	18.1875	-2.4375	-37.875	-1.3372202	1.1336104	0.81255203
1276792576063	-2.7921712	2.6014864	8.390134	-0.58936787	0.0	17.75	-3.4375	-38.125	-1.3820664	1.1439142	0.820737
1276792576103	-2.8330324	2.6014864	8.390134	-0.57690716	0.0	17.5	-3.6875	-37.875	-1.3760515	1.1409559	0.82797897
1276792576143	-2.7921712	2.7649305	8.308413	-0.6158514	0.0	17.75	-3.1875	-37.875	-1.3067518	1.1290171	0.7903001
1276792576183	-2.8330324	2.6832085	8.430995	-0.5164757	0.0	17.75	-3.1875	-37.875	-1.3067518	1.1290171	0.7903001
1276792576216	-2.7513103	2.6423476	8.308413	-0.66436195	0.0	17.75	-3.4375	-37.625	-1.3795041	1.1403731	0.8055974
1276792576253	-2.7921712	2.6832085	8.308413	-0.64010525	0.0	18.1875	-3.4375	-37.375	-1.4001808	1.1346451	0.80529606
1276792576283	-2.7513103	2.7240696	8.390134	-0.5662708	0.0	17.5	-3.9375	-37.375	-1.3784297	1.1384517	0.7903732
1276792576313	-2.7921712	2.6832085	8.349273	-0.60305405	0.0	17.5	-3.9375	-37.875	-1.3572168	1.1365207	0.805296
1276792576343	-2.8738933	2.6832085	8.308413	-0.61488247	0.0	17.5	-3.4375	-38.375	-1.2887774	1.1287944	0.8196984
1276792576373	-2.8330324	2.7240696	8.349273	-0.5785961	0.0	17.0	-3.6875	-38.125	-1.2692842	1.130841	0.80500346
1276792576413	-2.7513103	2.7240696	8.390134	-0.5662708	0.0	17.25	-3.6875	-37.875	-1.3253593	1.1384517	0.7903732
1276792576453	-2.7513103	2.6014864	8.390134	-0.60166264	0.0	17.0	-3.6875	-37.875	-1.350893	1.1468605	0.8133807
1276792576483	-2.7921712	2.6832085	8.349273	-0.60305405	0.0	17.0	-3.9375	-37.375	-1.3368187	1.1365207	0.805296
1276792576523	-2.7921712	2.6832085	8.308413	-0.64010525	0.0	17.75	-3.9375	-37.875	-1.3698105	1.1346451	0.80529606
1276792576563	-2.8738933	2.6832085	8.349273	-0.57793236	0.0	17.75	-3.6875	-38.375	-1.327801	1.1306882	0.81969845
1276792576603	-2.8738933	2.6832085	8.390134	-0.54094887	0.0	18.0	-3.9375	-38.375	-1.3676927	1.132567	0.8196984
1276792576643	-2.7513103	2.6832085	8.349273	-0.6153679	0.0	18.0	-3.9375	-38.625	-1.3736845	1.1394184	0.79792887
1276792576683	-2.7513103	2.7240696	8.390134	-0.5662708	0.0	17.25	-3.9375	-38.625	-1.305407	1.1384517	0.7903732
1276792576716	-2.8330324	2.6014864	8.390134	-0.57690716	0.0	17.0	-3.9375	-38.125	-1.3329796	1.1409559	0.82797897
1276792576753	-2.8330324	2.6832085	8.390134	-0.5535412	0.0	17.0	-3.4375	-37.625	-1.3021291	1.13548	0.812552
1276792576793	-2.8330324	2.6423476	8.390134	-0.5653076	0.0	17.0	-3.1875	-37.125	-1.3272085	1.1382259	0.8202099
1276792576823	-2.7921712	2.5606253	8.349273	-0.6380415	0.0	17.0	-3.1875	-37.125	-1.3272085	1.1382259	0.8202099
1276792576853	-2.8330324	2.6423476	8.308413	-0.6394377	0.0	16.75	-3.4375	-37.625	-1.2793002	1.1344889	0.82021
1276792576893	-2.8330324	2.6832085	8.349273	-0.5905752	0.0	16.5	-3.9375	-37.375	-1.2823586	1.1336104	0.81255203
1276792576923	-2.8330324	2.6423476	8.349273	-0.6023884	0.0	16.25	-3.6875	-37.625	-1.2512549	1.1363646	0.8202099
1276792576953	-2.7921712	2.5333846	8.349273	-0.6456127	0.0	16.5	-3.6875	-37.625	-1.3258115	1.1466476	0.8339533
1276792576983	-2.7240696	2.5333846	8.390134	-0.62879944	0.0	17.25	-3.4375	-37.625	-1.4030731	1.1534603	0.8216517
1276792577023	-2.6014864	2.6423476	8.390134	-0.6336422	0.0	17.5	-3.1875	-37.875	-1.3775061	1.1546527	0.7776061
1276792577063	-2.8738933	2.6014864	8.281172	-0.66308403	0.0	17.25	-3.4375	-37.875	-1.3124591	1.132988	0.8351084
1276792577103	-2.8738933	2.6423476	8.390134	-0.5526991	0.0	17.25	-3.1875	-37.875	-1.3080213	1.1352844	0.8273488
1276792577163	-2.6423476	2.6014864	8.430995	-0.5962534	0.0	17.25	-2.9375	-37.375	-1.3823832	1.1564459	0.79319024
1276792577193	-2.7513103	2.6014864	8.349273	-0.6388912	0.0	17.0	-2.6875	-37.625	-1.3087693	1.1450268	0.8133807
1276792577224	-2.8330324	2.6423476	8.308413	-0.6394377	0.0	17.25	-2.4375	-37.625	-1.2825162	1.1344889	0.82021
1276792577263	-2.7921712	2.5333846	8.390134	-0.6083565	0.0	17.0	-2.1875	-37.625	-1.3118317	1.1484758	0.8339533
1276792577303	-2.7240696	2.4516625	8.499097	-0.55106544	0.0	16.5	-2.4375	-37.875	-1.332843	1.1636809	0.8379812
1276792577343	-2.7513103	2.4925237	8.430995	-0.59448147	0.0	16.75	-2.4375	-37.875	-1.3213309	1.1560088	0.8347088
1276792577373	-2.7921712	2.5333846	8.430995	-0.5710707	0.0	16.75	-2.4375	-38.125	-1.2881908	1.1502893	0.8339533
1276792577413	-2.7240696	2.4925237	8.430995	-0.6025801	0.0	17.0	-2.6875	-37.875	-1.3587648	1.1580116	0.8297555
1276792577453	-2.6832085	2.5333846	8.471856	-0.56597996	0.0	16.5	-2.1875	-38.375	-1.2767301	1.159995	0.81411093
1276792577493	-2.7513103	2.6014864	8.499097	-0.5022373	0.0	16.5	-2.1875	-38.375	-1.2767301	1.159995	0.81411093
1276792577533	-2.7240696	2.4925237	8.539958	-0.5026665	0.0	16.0	-2.4375	-38.375	-1.2607725	1.1627097	0.8297555
1276792577563	-2.7921712	2.7921712	8.812365	-0.15003586	0.0	15.75	-2.6875	-38.125	-1.1904999	1.1495327	0.7853982
1276792577593	-2.8738933	3.445948	9.384419	0.59532833	0.0	16.25	-2.9375	-38.375	-1.1200863	1.1247885	0.6951269
1276792577633	-2.2201166	3.9090397	10.119919	1.2668438	0.0	15.75	-3.6875	-39.1875	-1.1116673	1.152757	0.51651555
1276792577673	-2.070293	4.7126403	11.917805	3.175228	0.0	16.5	-3.9375	-39.1875	-1.1448298	1.1630932	0.4139256
1276792577703	-1.6480621	5.407278	11.413852	2.930334	0.0	16.5	-4.75	-38.875	-1.0186211	1.1109458	0.29584172
1276792577733	-1.1849703	5.2165933	10.079058	1.604064	0.0	15.75	-6.5	-38.125	-0.9870961	1.0828503	0.22336376
1276792577773	-0.6946377	5.175732	9.084772	0.672081	0.0	15.25	-7.5	-37.125	-0.940543	1.049095	0.1334133
1276792577813	-0.38136974	5.407278	8.390134	0.18226624	0.0	14.5625	-10.0625	-37.375	-0.89888334	0.9971806	0.070412375
1276792577853	-0.27240697	5.6660647	7.668256	-0.2682724	0.0	13.5625	-12.375	-38.375	-0.8087514	0.933886	0.048039936
1276792577893	-0.29964766	5.938472	7.205164	-0.46482944	0.0	13.0625	-14.6875	-38.375	-0.7734244	0.88085043	0.05041596
1276792577933	-0.46309182	6.0882955	7.014479	-0.50693417	0.0	12.125	-16.9375	-38.875	-0.72928005	0.8545387	0.07591646
1276792577973	-0.46309182	6.238119	6.932757	-0.46900082	0.0	10.625	-19.0	-37.875	-0.7086365	0.83672327	0.07409989
1276792578013	-0.53119355	6.1291566	7.0553403	-0.4457445	0.0	9.1875	-21.3125	-37.125	-0.75331825	0.85367805	0.08645065
1276792578053	-0.3405087	5.6252036	6.782933	-0.98808765	0.0	6.9375	-23.875	-37.125	-0.8242458	0.8775341	0.060458917
1276792578093	-0.14982383	5.134871	6.4015636	-1.5987654	0.0	5.25	-25.875	-36.625	-1.0410691	0.8945517	0.029169444
1276792578133	-0.0	5.053149	6.0882955	-1.8945293	0.0	3.3125	-27.1875	-37.375	-0.8433207	0.8780417	0.0
1276792578173	0.10896278	5.366417	6.1700177	-1.6286659	0.0	1.125	-28.1875	-37.625	-0.457153	0.8548414	-0.02030178
1276792578216	0.42223078	5.5162406	5.9793324	-1.6605101	0.0	-0.875	-27.9375	-37.625	-0.24413392	0.824205	-0.07639425
1276792578253	0.84446156	5.706926	5.6660647	-1.7204638	0.0	-3.3125	-27.4375	-38.375	-0.09193452	0.7763909	-0.14690535
1276792578293	0.84446156	6.238119	6.0474343	-1.0774632	0.0	-5.75	-27.6875	-38.125	0.2445056	0.7653414	-0.13455324
1276792578323	1.3756552	6.2789803	5.7886477	-1.1564207	0.0	-7.4375	-26.375	-38.125	0.16028051	0.73311836	-0.21568115
1276792578363	1.7570249	6.1700177	5.175732	-1.5638075	0.0	-9.1875	-26.125	-38.625	0.13155754	0.67886	-0.27742475
1276792578403	1.7570249	6.1291566	5.134871	-1.6200399	0.0	-10.625	-25.875	-38.125	0.24647065	0.67798895	-0.27917993
1276792578433	1.9477097	6.1291566	4.944186	-1.6946154	0.0	-11.875	-24.625	-38.625	0.26671287	0.65541434	-0.30768585
1276792578473	1.9477097	6.1700177	4.944186	-1.6636982	0.0	-13.3125	-23.875	-39.4375	0.35021758	0.65249866	-0.3057732
1276792578513	1.8387469	6.2108784	4.9850473	-1.6331139	0.0	-14.3125	-22.5625	-39.6875	0.434305	0.6559356	-0.28783143
1276792578553	1.5390993	6.3198414	5.09401	-1.5447998	0.0	-14.8125	-22.0625	-39.9375	0.518746	0.66437864	-0.23888429
1276792578594	1.4573772	6.510526	5.09401	-1.4126139	0.0	-15.0625	-22.0625	-40.1875	0.52954066	0.6521047	-0.22021899
1276792578633	1.2666923	6.66035	5.434519	-1.1176481	0.0	-15.5	-22.0625	-40.1875	0.60703194	0.67570555	-0.18793957
1276792578673	1.0351465	6.891896	5.8567495	-0.70328426	0.0	-15.75	-22.0625	-39.9375	0.6856763	0.69888026	-0.14908323
1276792578716	1.2666923	6.701211	5.829509	-0.83481026	0.0	-16.0	-21.5625	-40.1875	0.6679751	0.7072637	-0.18682015
1276792578753	1.3756552	6.782933	5.6252036	-0.8879328	0.0	-16.25	-20.8125	-39.9375	0.6323344	0.68247926	-0.20009722
1276792578793	1.56634	6.742072	5.597963	-0.9046192	0.0	-16.0	-20.8125	-39.9375	0.5961667	0.6800618	-0.22827376
1276792578833	1.7978859	6.6331096	5.8567495	-0.7771406	0.0	-15.75	-20.25	-40.4375	0.5707028	0.7057741	-0.26468763
1276792578873	1.9477097	6.469665	6.0882955	-0.7117348	0.0	-16.0	-20.25	-40.6875	0.5901684	0.7334244	-0.29242224
1276792578913	1.920469	6.469665	6.3198414	-0.56083107	0.0	-15.75	-20.5625	-41.4375	0.5934624	0.75259477	-0.28855714
1276792578953	1.7978859	6.8237944	6.510526	-0.20542526	0.0	-15.75	-20.5625	-41.6875	0.60544246	0.7451653	-0.25761843
1276792578983	1.7570249	7.164303	6.469665	0.005125046	0.0	-15.5	-20.5625	-41.6875	0.5730661	0.7199906	-0.24050042
1276792579023	2.4108016	7.3958488	6.238119	0.1645422	0.0	-15.0625	-20.8125	-41.9375	0.4244348	0.6759185	-0.31510615
1276792579063	4.2086873	6.782933	6.510526	0.49423218	0.0	-15.0625	-20.5625	-41.9375	0.11854303	0.68417746	-0.55534375
1276792579103	5.2165933	4.8216033	7.8180795	0.7566385	0.0	-15.5	-19.5	-42.1875	-0.35818428	0.8332457	-0.8247266
1276792579143	4.5219555	3.2961242	7.4639506	-0.47803402	0.0	-17.0	-18.5	-42.1875	-0.72289896	0.9274842	-0.9409263
1276792579183	3.2961242	3.636633	6.4015636	-1.7400799	0.0	-18.9375	-17.5	-41.4375	0.44091842	0.9166896	-0.7363217
1276792579223	1.920469	5.2165933	6.469665	-1.2768431	0.0	-20.6875	-17.5	-40.9375	0.98850745	0.86097336	-0.3527484
1276792579263	0.7627395	6.701211	6.2108784	-0.6380625	0.0	-20.875	-19.0	-39.6875	0.8982521	0.7442338	-0.113333404
1276792579303	0.50395286	7.3141265	4.944186	-0.96383476	0.0	-20.1875	-21.3125	-39.1875	0.7555064	0.5933228	-0.06879258
1276792579343	0.6537767	7.3549876	4.630918	-1.0906496	0.0	-19.1875	-23.0625	-39.1875	0.7042916	0.56014884	-0.08865589
1276792579383	0.6537767	6.851035	5.706926	-0.86611843	0.0	-18.0	-23.875	-39.1875	0.84446454	0.6923146	-0.09513933
1276792579414	0.6537767	5.938472	5.8567495	-1.4403858	0.0	-17.75	-23.0625	-40.1875	0.92938954	0.7754585	-0.10965017
1276792579453	1.0351465	6.1291566	6.1291566	-1.0771227	0.0	-17.25	-22.3125	-40.9375	0.8496675	0.77836734	-0.16731006
1276792579493	1.0760075	6.2108784	6.891896	-0.4668951	0.0	-16.75	-21.3125	-41.6875	0.8849575	0.82996786	-0.17154291
1276792579533	0.6946377	6.2108784	7.3958488	-0.12387657	0.0	-16.75	-20.0	-41.6875	0.9505197	0.8692035	-0.11137924
1276792579563	0.6946377	5.9793324	7.246025	-0.3864689	0.0	-15.75	-19.25	-41.9375	0.89817923	0.87759185	-0.115654685
1276792579593	0.38136974	5.47538	7.082581	-0.84628296	0.0	-15.0625	-18.25	-43.0	0.8909672	0.91151756	-0.06953943
1276792579633	-0.040861044	5.5162406	7.9679036	-0.11551666	0.0	-14.0625	-16.9375	-43.5	0.91475356	0.96523887	0.0074072722
1276792579674	-0.0	5.134871	7.9270425	-0.36181545	0.0	-12.8125	-16.4375	-44.75	0.88272035	0.995993	0.0
1276792579713	0.14982383	4.7943625	7.6954966	-0.7386284	0.0	-12.125	-16.1875	-45.25	0.8656865	1.0134112	-0.031239834
1276792579754	0.19068487	4.671779	7.43671	-1.0222015	0.0	-11.875	-15.4375	-44.75	0.82636195	1.0095205	-0.040793683
1276792579793	0.19068487	4.7126403	7.1234417	-1.2633038	0.0	-11.875	-16.1875	-44.5	0.80961674	0.9859555	-0.040440366
1276792579823	0.19068487	5.053149	7.273266	-0.9482603	0.0	-11.875	-16.1875	-44.0	0.77607715	0.9632647	-0.03771795
1276792579853	0.10896278	5.597963	7.3958488	-0.5304632	0.0	-11.875	-16.6875	-44.0	0.72359776	0.9227987	-0.019462263
1276792579893	-0.040861044	6.0474343	7.43671	-0.2213602	0.0	-10.625	-18.0	-43.75	0.6653862	0.88805497	0.0067566545
1276792579933	0.040861044	6.3607025	6.973618	-0.36781788	0.0	-9.875	-18.75	-43.75	0.5592712	0.8313209	-0.006423895
1276792579973	-0.040861044	6.4015636	6.6331096	-0.5881996	0.0	-9.1875	-20.0	-44.0	0.52164453	0.80314994	0.006382892
1276792580013	0.040861044	6.2789803	6.4424243	-0.8104229	0.0	-8.9375	-21.0625	-43.25	0.5287553	0.79823476	-0.006507501
1276792580053	0.3405087	6.2108784	6.0882955	-1.102726	0.0	-9.875	-22.0625	-43.0	0.52487975	0.7746816	-0.054769732
