#timestamp	accel_x	accel_y	accel_z	accel_mag	temperature	mag_x	mag_y	mag_z	azimuth	pitch	roll
1277478613450	1.607201	3.1054392	9.302697	0.13150978	0.0	-3.8125	-5.625	-52.6875	0.065403976	1.2112551	-0.477584
1277478613480	1.3756552	3.0237172	9.275456	0.045729637	0.0	-2.375	-3.625	-52.9375	0.047777478	1.2268856	-0.42696688
1277478613519	1.7297841	3.1463003	8.921328	-0.18992233	0.0	-1.625	-1.6875	-53.6875	0.034032043	1.1881732	-0.502677
1277478613559	1.7570249	3.2961242	9.043911	-0.021769524	0.0	-1.125	0.0625	-53.9375	0.050680604	1.1791294	-0.48974282
1277478613599	1.7570249	3.568531	8.894087	-0.063635826	0.0	-1.875	-0.1875	-53.6875	0.075981155	1.150255	-0.45752215
1277478613639	2.070293	3.8681788	8.730643	-0.035618782	0.0	-2.375	-1.1875	-53.4375	0.06941573	1.1051314	-0.49141824
1277478613680	2.1792557	4.2086873	9.00305	0.36768627	0.0	-3.375	-2.4375	-52.9375	0.0875704	1.0862328	-0.4777855
1277478613719	2.3018389	4.0180025	8.580819	-0.056098938	0.0	-4.0625	-3.875	-52.6875	0.078652024	1.0759344	-0.52024066
1277478613759	2.2201166	4.099725	8.117727	-0.44533825	0.0	-4.3125	-4.875	-52.4375	0.071213774	1.0494652	-0.4963157
1277478613789	2.4108016	4.4810944	8.539958	0.13432884	0.0	-5.3125	-5.625	-52.4375	0.098266505	1.0334424	-0.49357882
1277478613819	2.3018389	4.440233	8.430995	-0.0038032532	0.0	-5.8125	-6.375	-52.4375	0.11318659	1.0353789	-0.47826293
1277478613849	2.2609777	4.0588636	7.9679036	-0.58309937	0.0	-6.0625	-6.875	-52.4375	0.10406065	1.0428929	-0.5082374
1277478613880	2.1792557	3.9090397	7.8589406	-0.76271915	0.0	-6.8125	-6.875	-52.9375	0.1428449	1.0531251	-0.5085765
1277478613909	2.2201166	4.0588636	8.076866	-0.49864006	0.0	-6.3125	-7.125	-52.9375	0.115536466	1.0506226	-0.50052154
1277478613949	2.3018389	4.6036777	8.430995	0.07130432	0.0	-6.8125	-7.625	-52.9375	0.13912247	1.0226967	-0.4636476
1277478613993	2.4925237	6.5513873	8.771504	1.4215574	0.0	-7.0625	-8.375	-53.1875	0.14319436	0.8965898	-0.3635466
1277478614029	1.9477097	6.4424243	7.7363577	0.4475994	0.0	-7.0625	-9.375	-52.1875	0.15477026	0.8548216	-0.293589
1277478614069	2.3426998	5.7886477	7.3958488	-0.12701893	0.0	-7.3125	-10.125	-51.75	0.12293372	0.8695878	-0.38455656
1277478614109	2.1792557	4.5219555	8.471856	0.04066372	0.0	-7.3125	-10.125	-51.75	0.12293372	0.8695878	-0.38455656
1277478614139	2.3426998	4.399372	8.580819	0.11671448	0.0	-6.8125	-10.125	-51.5	0.08141293	1.04457	-0.48931438
1277478614171	2.3426998	4.2904096	8.499097	-0.0020332336	0.0	-6.8125	-9.875	-51.5	0.08112694	1.0488418	-0.49979144
1277478614209	2.3018389	4.4810944	8.008764	-0.3452034	0.0	-6.5625	-8.875	-52.1875	0.095697455	1.0093068	-0.47452992
1277478614249	2.152015	4.862464	8.19945	-0.0339489	0.0	-5.8125	-9.125	-52.1875	0.08333557	0.9954717	-0.4166639
1277478614279	1.879608	4.7535014	7.9270425	-0.37443352	0.0	-5.8125	-8.875	-52.0	0.10968857	0.9980614	-0.37654796
1277478614319	2.0294318	4.7126403	7.8861814	-0.3981743	0.0	-5.5625	-8.875	-52.1875	0.0806286	0.9939737	-0.40663457
1277478614360	2.070293	4.7126403	8.308413	-0.03297043	0.0	-6.0625	-9.125	-52.0	0.10288924	1.0161377	-0.41392562
1277478614409	1.0760075	5.2165933	9.425281	1.0195475	0.0	-6.0625	-8.875	-51.75	0.24149983	1.0564193	-0.20341353
1277478614449	0.88532263	4.630918	9.152874	0.48918915	0.0	-5.8125	-8.875	-51.75	0.2636169	1.0951296	-0.18889719
1277478614479	0.10896278	4.3312707	8.390134	-0.3638687	0.0	-4.3125	-8.125	-52.0	0.24329016	1.0941173	-0.025151929
1277478614510	0.3405087	4.5628166	7.8861814	-0.6892443	0.0	-2.625	-7.125	-52.0	0.10513977	1.0450684	-0.07448879
1277478614549	1.1168685	3.636633	7.8180795	-1.1121197	0.0	-0.375	-5.875	-52.6875	-0.07616481	1.1179265	-0.29797247
1277478614589	0.19068487	2.7649305	8.049625	-1.2932682	0.0	1.625	-4.625	-52.6875	-0.14927481	1.2392071	-0.06885649
1277478614629	-1.3075534	4.399372	8.390134	-0.24325562	0.0	3.375	-4.625	-53.1875	-0.09196125	1.0702438	0.28889853
1277478614669	-3.1463003	4.630918	8.19945	0.1218729	0.0	6.3125	-5.375	-52.6875	-0.09494909	0.9717041	0.59677434
1277478614710	-4.903325	4.9850473	7.43671	0.40108967	0.0	9.3125	-6.125	-51.5	-0.08553042	0.8161829	0.7771339
1277478614749	-6.0474343	4.7943625	7.164303	0.723526	0.0	13.25	-6.875	-50.75	-0.10409554	0.7482527	0.9004655
1277478614779	-5.284695	4.2904096	6.5513873	-0.35909557	0.0	17.0	-7.125	-49.0	-0.22130355	0.76626354	0.888868
1277478614819	-4.944186	3.718355	6.2108784	-1.0404568	0.0	19.9375	-7.125	-47.8125	-0.3132233	0.78737533	0.9259742
1277478614849	-5.284695	4.0180025	7.082581	-0.099163055	0.0	22.1875	-7.375	-46.8125	-0.44443876	0.8177366	0.9207299
1277478614889	-5.8158884	4.140586	6.742072	0.012949944	0.0	23.6875	-7.375	-45.5625	-0.42810208	0.756793	0.95209926
1277478614929	-6.510526	4.944186	6.851035	0.8595867	0.0	24.9375	-7.125	-44.8125	-0.46349823	0.697509	0.9212973
1277478614969	-6.0201936	4.2086873	6.0882955	-0.26604652	0.0	26.125	-6.875	-44.3125	-0.47976318	0.6920875	0.960678
1277478615009	-6.1700177	4.2086873	6.3607025	0.0035848618	0.0	27.625	-6.625	-43.625	-0.562938	0.7054469	0.972172
1277478615050	-6.891896	4.4810944	5.434519	0.04791355	0.0	28.875	-6.875	-43.125	-0.45179364	0.58412814	0.9942822
1277478615093	-7.1234417	4.0588636	5.175732	-0.11098099	0.0	30.375	-7.625	-42.375	-0.40306392	0.5631104	1.0528866
1277478615131	-6.3198414	3.445948	5.938472	-0.47496223	0.0	31.375	-8.125	-41.875	-0.570272	0.6897923	1.0716007
1277478615160	-6.742072	3.336985	5.8567495	-0.2728939	0.0	31.625	-8.125	-42.125	-0.46011502	0.66152024	1.1111974
1277478615199	-7.164303	3.336985	5.597963	-0.12161541	0.0	31.625	-7.125	-42.375	-0.4007811	0.6162773	1.134898
1277478615229	-6.238119	3.9499009	5.7477865	-0.44967937	0.0	29.625	-5.125	-43.375	-0.59095275	0.66147137	1.0063308
1277478615269	-5.597963	3.486809	5.325556	-1.3298244	0.0	28.125	-3.875	-44.0625	-0.5717949	0.6793003	1.0137293
1277478615299	-5.5162406	3.1054392	5.5571017	-1.3832283	0.0	26.625	-2.1875	-44.8125	-0.5633021	0.72044635	1.0580553
1277478615329	-5.5162406	2.7649305	6.0201936	-1.1859493	0.0	25.875	-1.1875	-45.5625	-0.5797185	0.77307785	1.1061615
1277478615359	-6.3198414	3.405087	4.7943625	-1.1740999	0.0	26.625	-0.1875	-45.5625	-0.4653434	0.5888222	1.0765979
1277478615409	-7.9270425	2.1111538	5.938472	0.32056236	0.0	26.625	1.0625	-45.8125	-0.34127045	0.626592	1.3105148
1277478615449	-7.8861814	1.7297841	7.273266	1.0600147	0.0	26.125	2.8125	-46.0625	-0.4439039	0.7332919	1.3548721
1277478615479	-7.205164	0.7218784	9.043911	1.7790222	0.0	24.9375	5.0	-46.0625	-0.6502566	0.8956439	1.4709405
1277478615519	-6.4015636	0.14982383	9.888372	1.9739428	0.0	23.9375	7.5	-46.0625	-1.0067638	0.9961382	1.5473963
1277478615569	-4.944186	0.84446156	10.228881	1.5858078	0.0	22.9375	10.0	-46.5625	-1.446716	1.1148943	1.4016298
1277478615859	-3.255263	2.1792557	8.730643	-0.23742771	0.0	22.4375	10.9375	-46.5625	-1.2319827	1.1490296	0.98086506
1277478615909	-3.336985	1.9477097	8.771504	-0.22185326	0.0	21.9375	10.6875	-46.8125	-1.2624253	1.155874	1.0424682
1277478615949	-3.445948	1.7978859	8.049625	-0.8677788	0.0	21.4375	9.75	-47.5625	-1.1809106	1.1209621	1.0899091
1277478616001	-3.445948	1.8387469	8.281172	-0.6505947	0.0	20.9375	9.0	-48.25	-1.162098	1.1300828	1.0806339
1277478616049	-3.405087	1.9477097	8.689782	-0.2724743	0.0	21.4375	8.25	-48.5	-1.2095078	1.1467586	1.0512196
1277478616079	-3.568531	2.070293	8.771504	-0.11336231	0.0	22.1875	8.0	-48.5	-1.205329	1.1311566	1.0450983
1277478616128	-3.6774938	2.152015	8.853226	0.018559456	0.0	23.1875	8.0	-48.0	-1.2385105	1.1222361	1.0413413
1277478616159	-4.2495484	1.5390993	8.662541	-0.035923004	0.0	24.9375	8.0	-46.5625	-1.3756016	1.0899007	1.2233126
1277478616192	-4.140586	1.6889231	8.689782	-0.0337677	0.0	25.125	8.75	-46.3125	-1.3774658	1.0955344	1.1835028
1277478616239	-4.0180025	1.7297841	8.471856	-0.2720375	0.0	25.625	9.5	-45.8125	-1.3901782	1.0941466	1.1642692
1277478616269	-5.175732	1.5390993	8.430995	0.20527744	0.0	26.875	9.75	-45.0625	-1.2874776	1.0011561	1.2817556
1277478616299	-5.243834	1.607201	8.471856	0.28558636	0.0	27.875	9.75	-44.3125	-1.3401235	0.9962572	1.2733929
1277478616329	-5.09401	1.7297841	8.430995	0.19448853	0.0	29.625	9.5	-43.625	-1.4422761	1.0028427	1.2434413
1277478616359	-5.284695	1.56634	9.084772	0.81947327	0.0	30.625	9.5	-43.375	-1.5874131	1.0254486	1.2826532
1277478616389	-5.6660647	1.9477097	9.765789	1.6505966	0.0	30.125	9.5	-43.375	-1.5158896	1.0204967	1.2397003
1277478616429	-5.8567495	2.3426998	9.575105	1.6594906	0.0	30.125	9.5	-43.375	-1.5158896	1.0204967	1.2397003
1277478616467	-5.5571017	2.4108016	8.894087	0.95430374	0.0	28.875	9.0	-43.8125	-1.2884432	0.97288775	1.1614759
1277478616499	-5.366417	2.4925237	9.084772	1.0351295	0.0	28.125	8.25	-44.0625	-1.2894973	0.9934996	1.1359769
1277478616529	-5.407278	2.3018389	7.9270425	0.06123352	0.0	26.625	7.25	-45.3125	-1.0597703	0.9328447	1.1683391
1277478616561	-3.0237172	2.3426998	8.049625	-0.8944349	0.0	23.6875	6.75	-46.8125	-1.2355726	1.1271969	0.911627
1277478616600	-3.336985	1.8387469	8.049625	-0.90086937	0.0	21.4375	6.75	-48.0	-1.189984	1.1287198	1.06717
1277478616639	-2.6014864	1.7570249	7.4639506	-1.7094021	0.0	18.9375	6.75	-49.25	-1.1064664	1.1726687	0.97677696
1277478616679	-2.982856	2.1111538	8.240311	-0.7923775	0.0	17.0	6.25	-50.5	-0.9317449	1.1533823	0.9548796
1277478616709	-2.3426998	2.4108016	7.4639506	-1.6206398	0.0	15.25	5.75	-51.25	-0.7796956	1.1476305	0.77107245
1277478616749	-2.3426998	2.7649305	7.668256	-1.3251867	0.0	13.75	4.75	-51.75	-0.66338634	1.1293143	0.70291907
1277478616790	-2.9147544	2.7240696	9.234595	0.25287724	0.0	12.5	3.5625	-52.1875	-0.65345263	1.1629947	0.8192017
1277478616829	-2.6832085	2.8330324	9.915613	0.849102	0.0	11.75	3.3125	-52.6875	-0.6570272	1.1958871	0.75824434
1277478616869	-1.6480621	2.6014864	9.656827	0.3293333	0.0	11.0	2.8125	-52.9375	-0.7030937	1.2620891	0.564694
1277478616909	-1.607201	2.4925237	9.997335	0.62131596	0.0	10.5625	2.8125	-52.9375	-0.72104186	1.2824106	0.5727172
1277478616949	-0.88532263	2.982856	9.112013	-0.17804623	0.0	9.8125	3.3125	-52.6875	-0.53686446	1.2417419	0.2885218
1277478616989	-1.6480621	3.8681788	8.539958	-0.28773212	0.0	8.8125	3.5625	-52.0	-0.39476576	1.1132891	0.40276504
1277478617029	-1.3756552	3.5957718	8.62168	-0.3644371	0.0	8.0625	3.5625	-52.1875	-0.3856091	1.1508223	0.3653958
1277478617069	-1.9477097	3.759216	8.853226	0.006855011	0.0	7.5625	2.8125	-52.1875	-0.35461178	1.1247208	0.4780351
1277478617109	-2.6014864	3.2961242	10.760075	1.7437344	0.0	7.3125	1.8125	-52.6875	-0.39941007	1.1987275	0.66815543
1277478617149	-2.5333846	3.2961242	9.656827	0.7069969	0.0	7.8125	0.5625	-52.6875	-0.36968106	1.1642803	0.6552961
1277478617179	-2.4516625	2.4925237	8.471856	-0.6417351	0.0	9.5625	-0.4375	-52.6875	-0.44613028	1.1794047	0.7771339
1277478617209	-2.9556155	2.5606253	8.349273	-0.5869522	0.0	11.25	-1.1875	-52.4375	-0.437313	1.1327703	0.8568811
1277478617249	-3.255263	2.982856	8.349273	-0.36183548	0.0	14.0	-1.9375	-52.0	-0.51991457	1.0843635	0.82903856
1277478617289	-2.1792557	3.445948	8.580819	-0.30643082	0.0	16.75	-2.9375	-51.5	-0.81876147	1.1272216	0.5639109
1277478617329	-4.099725	2.9147544	7.5456724	-0.7379837	0.0	20.1875	-4.125	-49.5	-0.6158831	0.98281074	0.9527502
1277478617369	-3.9090397	4.671779	6.742072	-0.7203064	0.0	24.9375	-6.125	-46.0625	-0.77479833	0.8360496	0.6967423
1277478617409	-4.9850473	5.7886477	6.0882955	-0.038002014	0.0	29.375	-8.875	-42.375	-0.7694821	0.6728898	0.710947
1277478617449	-3.6774938	7.273266	5.2165933	-0.13001823	0.0	33.8125	-11.5625	-37.6875	-0.94716096	0.56935847	0.46813187
1277478617489	-3.405087	7.0553403	5.6252036	-0.16220284	0.0	36.8125	-14.8125	-33.75	-1.2027603	0.6227342	0.44965163
1277478617529	-3.718355	6.2108784	5.5162406	-0.7055464	0.0	38.3125	-17.0625	-32.0	-1.3802043	0.6511566	0.5394515
1277478617569	-3.568531	7.3549876	6.0201936	0.34583664	0.0	38.8125	-18.5	-30.5625	-1.3977072	0.63475126	0.45172566
1277478617609	-2.1111538	5.284695	6.1291566	-1.4429464	0.0	38.8125	-19.25	-30.0625	-1.6809665	0.8224691	0.3800619
1277478617650	-3.255263	3.759216	3.8681788	-3.5065508	0.0	38.3125	-19.75	-29.8125	-1.6352127	0.6611019	0.7136767
1277478617689	-5.5571017	10.760075	6.3198414	3.853547	0.0	37.3125	-21.0	-29.3125	-1.189307	0.48097795	0.47672534
1277478617729	-4.440233	8.539958	6.3198414	1.7079906	0.0	36.8125	-22.0	-28.3125	-1.4107924	0.5809911	0.47946906
1277478617772	-4.903325	5.6252036	5.325556	-0.6389322	0.0	36.8125	-22.5	-27.8125	-1.6680853	0.61983776	0.71694124
1277478617809	-6.891896	4.5628166	6.4015636	0.6478958	0.0	37.5625	-21.75	-28.0625	-2.602199	0.6589961	0.98599297
1277478617849	-7.504812	3.336985	5.8976107	0.3047037	0.0	38.8125	-19.25	-27.8125	2.540679	0.62274384	1.1524036
1277478617889	-3.0237172	8.921328	4.399372	0.5898609	0.0	40.25	-15.8125	-28.5625	-1.1681297	0.4369285	0.32678023
1277478617929	-5.243834	5.47538	5.6660647	-0.34187984	0.0	40.75	-13.3125	-29.0625	-1.5386401	0.641812	0.7638005
1277478617969	-4.9850473	1.6480621	7.205164	-0.891428	0.0	41.25	-11.8125	-29.0625	-3.043099	0.9410665	1.2515068
1277478618009	-6.0474343	0.42223078	4.2086873	-2.4267592	0.0	41.0	-12.0625	-28.8125	1.5856662	0.60686034	1.5010896
1277478618049	-6.2108784	7.3549876	1.8387469	-0.006046295	0.0	41.0	-13.3125	-28.0625	-0.8324108	0.18873416	0.70126
1277478618089	-4.099725	8.158588	6.238119	1.2515793	0.0	40.75	-15.5625	-28.3125	-1.3954915	0.59936166	0.46564895
1277478618129	-5.7886477	6.701211	4.440233	0.099425316	0.0	40.0	-17.8125	-28.3125	-1.1858492	0.46478802	0.71246344
1277478618169	-6.0474343	7.0553403	4.7126403	0.6124792	0.0	40.0	-18.75	-28.5625	-1.1906077	0.46934983	0.7086262
1277478618209	-5.47538	5.829509	6.1700177	0.29444218	0.0	39.5	-19.0	-29.5625	-1.6700122	0.65710443	0.75408316
1277478618249	-5.09401	3.9090397	2.9147544	-2.7550316	0.0	40.0	-17.3125	-29.3125	-0.8558171	0.42612502	0.9162647
1277478618289	-5.5571017	4.372132	4.8216033	-1.2483339	0.0	39.5	-14.5625	-30.5625	-1.3665683	0.59847385	0.9041779
1277478618329	-5.09401	4.671779	7.273266	0.22703552	0.0	38.3125	-11.8125	-33.0	-1.7729241	0.8108671	0.82860696
1277478618369	-4.5900574	3.568531	6.469665	-1.1083975	0.0	36.0625	-8.875	-36.4375	-1.6283994	0.8387213	0.9099586
1277478618409	-3.5957718	3.1054392	9.193735	0.5421705	0.0	31.375	-5.625	-40.875	-1.9024166	1.093815	0.85843873
1277478618449	-2.7921712	5.5571017	10.038197	2.0019484	0.0	26.875	-3.875	-44.5625	-1.1388136	1.0161281	0.46560648
1277478618489	-2.3426998	5.8976107	9.697687	1.782793	0.0	21.6875	-3.4375	-48.0	-0.8405575	0.99135554	0.378115
1277478618539	-0.6946377	8.117727	10.732834	3.6682796	0.0	15.75	-5.125	-49.5	-0.5516179	0.9214907	0.08536252
1277478618570	1.7570249	9.915613	11.304889	5.3329344	0.0	11.0	-8.125	-50.75	-0.3969995	0.843103	-0.17537735
1277478618599	1.7978859	9.847511	11.645397	5.549819	0.0	5.8125	-10.8125	-51.0	-0.28681672	0.8607599	-0.18058369
1277478618629	2.3426998	9.615966	11.604536	5.445245	0.0	0.875	-13.0625	-50.5	-0.16780053	0.8646353	-0.23897073
1277478618660	2.8738933	9.275456	10.378705	4.4064026	0.0	-4.0625	-13.8125	-51.0	-0.008524463	0.818649	-0.3004583
1277478618700	3.486809	8.471856	7.164303	1.8233719	0.0	-9.0625	-12.5625	-50.75	0.11671766	0.66367763	-0.39044532
1277478618740	3.255263	5.829509	3.5276701	-2.2552023	0.0	-14.0	-8.625	-50.25	0.20943692	0.48606637	-0.50927806
1277478618779	0.3405087	3.2961242	-1.7570249	-6.055981	0.0	-17.75	-3.1875	-51.0	0.35050312	-0.4875428	-0.10294062
1277478618819	-2.4516625	2.1111538	1.1168685	-6.3839297	0.0	-18.1875	1.5625	-51.25	0.1979159	0.33239743	0.85988694
1277478618859	-4.5900574	2.3426998	2.2201166	-4.1954303	0.0	-14.0	1.8125	-51.75	0.089742705	0.40678278	1.0988747
1277478618899	-6.1700177	2.1792557	7.7772183	0.35717773	0.0	-7.5625	-2.9375	-51.75	0.13819094	0.8713301	1.2312728
1277478618939	-1.3075534	5.6660647	15.023244	6.302721	0.0	-0.625	-11.0625	-49.75	0.3677614	1.20149	0.22679886
1277478618979	-1.6480621	2.6832085	17.692831	8.164215	0.0	4.8125	-19.75	-47.0625	2.618039	1.3946631	0.5508049
1277478619019	-2.3699405	2.4516625	13.947236	4.551367	0.0	6.0625	-25.4375	-44.3125	2.275841	1.3310158	0.7684506
1277478619059	-2.6832085	2.2201166	10.923519	1.6585932	0.0	6.8125	-28.1875	-42.875	2.0531554	1.262167	0.87956333
1277478619099	-2.7513103	1.920469	9.043911	-0.16039467	0.0	6.8125	-28.6875	-42.125	1.8665609	1.215538	0.9614006
1277478619139	-2.8738933	2.4108016	6.973618	-1.8881545	0.0	6.0625	-28.1875	-42.625	1.5624342	1.0772843	0.8728037
1277478619179	-2.070293	3.636633	5.243834	-3.097775	0.0	6.3125	-27.9375	-42.625	1.0157212	0.89726907	0.5175313
1277478619219	-2.7921712	3.5276701	6.891896	-1.5762854	0.0	5.5625	-28.9375	-42.125	1.4874561	0.9924619	0.66954
1277478619259	-4.5219555	4.7126403	8.539958	0.94453335	0.0	4.0625	-30.4375	-41.625	1.2710363	0.91789937	0.76475215
1277478619299	-4.7126403	5.5571017	7.5456724	0.6827507	0.0	2.625	-32.125	-40.125	1.1226928	0.80288285	0.70335466
1277478619339	-4.5219555	4.440233	8.390134	0.7080116	0.0	1.125	-33.625	-39.4375	1.38627	0.9238798	0.79451644
1277478619379	-2.7921712	3.9090397	8.853226	0.2659073	0.0	0.375	-34.375	-38.6875	1.8819087	1.073646	0.6202495
1277478619419	-1.9477097	4.140586	8.730643	0.05043602	0.0	0.375	-34.875	-38.1875	2.1912627	1.0880482	0.43968415
1277478619459	-2.2609777	4.862464	8.076866	-0.11173725	0.0	0.875	-35.125	-37.9375	1.966667	0.9846952	0.43524617
1277478619499	-2.7240696	5.434519	8.730643	0.8318968	0.0	-0.125	-35.625	-37.6875	1.8469205	0.96256727	0.46464962
1277478619539	-2.9556155	5.8976107	8.689782	1.1034269	0.0	-1.375	-35.875	-38.1875	1.6838732	0.9214701	0.464571
1277478619579	-3.336985	5.8567495	7.504812	0.28092575	0.0	-2.375	-34.875	-38.6875	1.3576664	0.8389859	0.51789296
1277478619619	-3.5276701	5.366417	7.205164	-0.15484905	0.0	-3.5625	-33.875	-39.875	1.263013	0.84280103	0.5815321
1277478619659	-2.8738933	4.671779	7.7772183	-0.28982735	0.0	-3.5625	-32.875	-40.625	1.4696261	0.956549	0.55149233
1277478619699	-2.1111538	4.2495484	7.7363577	-0.73103046	0.0	-3.5625	-31.6875	-41.125	1.6480317	1.0206212	0.4610802
1277478619739	-2.9556155	4.5219555	8.240311	0.046596527	0.0	-3.8125	-31.6875	-41.125	1.4683943	0.990507	0.57891196
1277478619769	-3.3642259	4.671779	8.240311	0.24552631	0.0	-4.0625	-31.4375	-41.125	1.3622174	0.96098113	0.62409985
1277478619809	-2.8738933	4.140586	7.3549876	-0.890398	0.0	-4.0625	-31.1875	-40.875	1.3890121	0.9700195	0.606741
1277478619849	-2.5606253	3.9499009	7.504812	-0.94771576	0.0	-4.5625	-31.6875	-40.625	1.5155894	1.0105911	0.5751622
1277478619889	-1.525479	4.0588636	10.501288	1.5546227	0.0	-4.3125	-31.6875	-41.125	2.1676574	1.1792122	0.35950595
1277478619929	-0.5720546	3.8681788	8.62168	-0.33968544	0.0	-4.0625	-31.6875	-40.625	2.4848523	1.1450052	0.14682312
1277478619969	-1.7570249	3.8681788	7.5456724	-1.1471405	0.0	-5.5625	-31.4375	-41.125	1.7224075	1.0579962	0.42636216
1277478620009	-2.6423476	5.366417	8.853226	0.87792015	0.0	-7.5625	-30.6875	-41.375	1.4186269	0.9766007	0.45753774
1277478620050	-2.3426998	4.7126403	10.147159	1.6240997	0.0	-10.0625	-29.9375	-41.125	1.6104832	1.0923411	0.4613328
1277478620089	-2.0294318	4.1814466	8.62168	-0.01193428	0.0	-12.5	-29.6875	-41.625	1.5275632	1.0763632	0.45185262
1277478620129	-1.0351465	3.9090397	8.539958	-0.35768127	0.0	-14.0	-29.4375	-41.125	1.7984115	1.1285623	0.2588667
1277478620169	-0.46309182	4.1814466	9.112013	0.22967052	0.0	-14.25	-29.4375	-41.125	1.9969642	1.1382556	0.1102997
1277478620209	-0.9125633	4.372132	9.112013	0.34111214	0.0	-14.5	-29.9375	-40.375	1.8527832	1.1150509	0.20576857
1277478620249	-0.9942854	3.8273177	8.580819	-0.3585062	0.0	-15.0	-30.1875	-39.4375	1.8610791	1.1389668	0.25416803
1277478620289	-0.23154591	3.6774938	8.240311	-0.7800064	0.0	-15.75	-31.1875	-38.9375	2.1521294	1.1503026	0.06287996
1277478620329	-0.10896278	3.568531	11.454713	2.1915474	0.0	-17.75	-31.9375	-37.1875	2.3609116	1.2686594	0.030524867
1277478620369	-0.23154591	1.6480621	12.830367	3.1312027	0.0	-21.6875	-31.4375	-36.1875	2.3027656	1.4418049	0.13958225
1277478620409	-1.920469	1.5390993	3.405087	-5.605264	0.0	-26.125	-29.1875	-35.9375	1.0434064	0.9449498	0.8951911
1277478620449	-2.1111538	1.7978859	4.099725	-4.857195	0.0	-31.375	-25.1875	-35.0	0.9912077	0.97609943	0.8653666
1277478620489	0.88532263	2.7921712	6.782933	-2.4182673	0.0	-35.0625	-21.25	-35.4375	2.0571673	1.1631434	-0.30704573
1277478620529	7.1234417	3.759216	10.56939	3.4819593	0.0	-35.8125	-19.0	-36.4375	-3.1328125	0.9196214	-1.0852157
1277478620569	-0.53119355	0.50395286	7.0553403	-2.7134166	0.0	-32.3125	-19.25	-37.9375	1.2005125	1.467385	0.8117079
1277478620609	-0.95342433	0.6537767	2.982856	-6.607608	0.0	-22.9375	-21.25	-40.875	0.9632362	1.201057	0.96972257
1277478620649	-5.47538	1.9885708	4.0588636	-2.7067504	0.0	-8.8125	-24.25	-41.125	0.6527835	0.6085508	1.2224249
1277478620689	-8.689782	3.8273177	11.645397	5.2191925	0.0	6.8125	-26.4375	-39.875	1.0569038	0.8867539	1.1559218
1277478620729	-8.62168	7.4639506	11.114203	6.117214	0.0	17.75	-27.1875	-38.9375	0.972027	0.77254343	0.8572472
1277478620769	-6.5922484	8.076866	11.413852	5.651989	0.0	20.6875	-25.9375	-39.1875	0.19087721	0.8306172	0.68453455
1277478620809	-1.7978859	7.3549876	11.604536	4.0495214	0.0	14.5	-21.5	-43.125	-1.2294348	0.9926909	0.23974311
1277478620849	-0.88532263	9.765789	5.938472	1.6572008	0.0	3.8125	-16.0625	-47.3125	-0.07319327	0.5445312	0.090408385
1277478620889	-2.5333846	10.528529	3.1463003	1.470192	0.0	-3.5625	-13.3125	-49.5	0.14788571	0.28275827	0.23613201
1277478620929	-1.607201	11.75436	13.184497	7.9297256	0.0	-8.0625	-16.0625	-47.3125	0.4578059	0.8380784	0.13588965
1277478620969	-2.5606253	9.697687	12.789507	6.446762	0.0	-7.5625	-22.0	-43.125	0.8483965	0.9057389	0.25815314
1277478621009	1.3756552	15.894946	3.8681788	6.6099434	0.0	-4.0625	-29.9375	-38.4375	0.048433963	0.23786283	-0.08633158
1277478621049	2.9147544	9.765789	12.217452	6.10349	0.0	-5.3125	-36.375	-34.5	-2.4028475	0.87556183	-0.2900487
1277478621089	-1.920469	9.425281	1.56634	-0.061008453	0.0	-8.5625	-37.125	-34.25	0.51027006	0.16142221	0.20100567
1277478621129	-0.040861044	4.5628166	-2.9147544	-4.392155	0.0	-15.0	-34.875	-34.25	0.31143692	-0.56844753	0.008954985
1277478621169	0.95342433	2.8330324	4.2904096	-4.577625	0.0	-23.4375	-30.9375	-35.0	2.260566	0.9622832	-0.3246324
1277478621209	1.6480621	4.5628166	4.099725	-3.4550247	0.0	-30.125	-25.1875	-34.75	1.3400801	0.7016264	-0.34661222
1277478621249	6.701211	9.615966	1.7297841	2.0409307	0.0	-35.3125	-21.5	-32.75	0.55542284	0.1465269	-0.6086315
1277478621289	8.076866	10.841797	3.214402	4.0898495	0.0	-38.8125	-20.0	-30.0625	0.7600594	0.23342417	-0.6402772
1277478621329	5.8976107	6.1291566	3.173541	-0.72811794	0.0	-41.75	-18.75	-27.5625	0.9995033	0.35710725	-0.766148
1277478621369	9.765789	11.727119	2.9556155	5.737854	0.0	-44.25	-18.25	-24.875	0.9380767	0.19130366	-0.6943954
1277478621409	8.349273	6.2789803	6.0201936	2.250659	0.0	-46.0	-17.5625	-21.9375	1.8979684	0.5227887	-0.9259914
1277478621449	4.7126403	4.099725	-0.6946377	-3.5218077	0.0	-47.4375	-17.0625	-19.6875	0.6354883	-0.11075215	-0.8548381
1277478621497	8.853226	5.407278	-0.8036005	0.5983505	0.0	-48.4375	-17.3125	-17.25	0.46094185	-0.077309124	-1.0224959
1277478621529	3.8273177	3.445948	1.334794	-4.486444	0.0	-48.4375	-18.5	-15.0	1.4437757	0.253601	-0.83778465
1277478621569	5.938472	8.430995	-0.27240697	0.50942135	0.0	-48.1875	-20.25	-13.8125	1.075641	-0.026409144	-0.6136474
1277478621610	5.938472	9.656827	1.2666923	1.6005526	0.0	-47.4375	-21.5	-12.5625	1.3127732	0.11127268	-0.5513401
1277478621649	5.9793324	9.847511	0.14982383	1.7149963	0.0	-47.1875	-22.5	-11.0625	1.2197962	0.013004049	-0.54569113
1277478621689	7.8589406	9.152874	1.1168685	2.308854	0.0	-47.1875	-23.25	-10.5625	1.2855194	0.09231613	-0.7094835
1277478621730	-0.9125633	6.66035	2.152015	-2.7480245	0.0	-47.4375	-23.75	-8.625	1.5110573	0.30980963	0.13616647
1277478621770	9.615966	10.119919	-1.879608	4.2792463	0.0	-46.6875	-26.1875	-5.6875	0.9031901	-0.1338382	-0.75986886
1277478621799	7.3549876	7.4639506	-0.9125633	0.7118654	0.0	-45.0	-28.9375	-3.4375	0.9754593	-0.08686701	-0.77804536
1277478621840	3.8681788	6.5513873	-0.9125633	-2.1439967	0.0	-43.0	-31.4375	-1.25	1.2467341	-0.11937567	-0.5333579
1277478621879	1.607201	5.597963	-0.42223078	-3.9672527	0.0	-40.5	-34.375	0.25	1.4710038	-0.07237041	-0.2795846
1277478621919	1.6889231	5.9793324	-1.0760075	-3.5008855	0.0	-39.0625	-35.625	0.25	1.3110796	-0.17147784	-0.27528852
1277478621959	5.938472	9.234595	-0.61291564	1.189661	0.0	-37.3125	-36.875	-0.5	1.2856599	-0.055767197	-0.5714866
1277478621999	4.099725	12.14935	-0.27240697	3.0186625	0.0	-36.0625	-38.125	-1.5	1.4570111	-0.02124139	-0.32544556
1277478622039	3.759216	12.340035	-0.29964766	3.0967588	0.0	-34.8125	-38.875	-3.6875	1.3563455	-0.02322445	-0.29570436
1277478622079	3.718355	12.830367	0.61291564	3.5657148	0.0	-33.0625	-39.3125	-5.9375	1.3911936	0.045850564	-0.28208116
1277478622119	3.255263	8.430995	0.10896278	-0.7683821	0.0	-31.875	-39.8125	-7.875	1.1286504	0.012056007	-0.36847228
1277478622159	2.4108016	6.8237944	0.10896278	-2.568694	0.0	-30.875	-40.0625	-9.125	1.081242	0.015054927	-0.3396058
1277478622189	1.8387469	10.56939	0.53119355	0.93463326	0.0	-30.375	-40.0625	-9.875	1.2503264	0.049473632	-0.17224519
1277478622219	3.1054392	11.645397	0.7627395	2.2698069	0.0	-31.125	-39.8125	-10.125	1.2236812	0.06320128	-0.26060238
1277478622259	3.7864566	11.223166	0.27240697	2.041174	0.0	-31.625	-39.125	-9.625	1.1159613	0.02299418	-0.3253869
1277478622299	1.9477097	10.760075	0.10896278	1.1288261	0.0	-32.0625	-38.875	-9.125	1.231679	0.00996432	-0.17907365
1277478622339	3.6774938	7.3958488	-0.27240697	-1.5424652	0.0	-32.8125	-39.125	-8.625	0.86196095	-0.032968324	-0.4614352
1277478622379	4.671779	7.3958488	-0.84446156	-1.0181799	0.0	-32.8125	-39.5625	-7.625	0.48702225	-0.09623591	-0.56338555
1277478622419	2.0294318	11.264028	-0.6946377	1.6597986	0.0	-33.0625	-40.3125	-6.375	1.2258946	-0.060617138	-0.17825691
1277478622459	3.1054392	6.4424243	-1.525479	-2.4939442	0.0	-32.3125	-40.5625	-5.6875	0.6196834	-0.21015003	-0.44916824
1277478622499	3.336985	9.534244	0.27240697	0.29837227	0.0	-30.875	-40.8125	-4.9375	1.3434732	0.026960846	-0.3366748
1277478622539	1.0351465	11.686258	-0.27240697	1.9285269	0.0	-29.625	-41.3125	-4.4375	1.3630375	-0.02321494	-0.08834752
1277478622579	1.6889231	11.032481	-0.3405087	1.3595514	0.0	-28.125	-42.3125	-4.1875	1.3152363	-0.030499315	-0.15190707
1277478622619	2.3018389	9.697687	-0.84446156	0.19618511	0.0	-27.375	-43.3125	-4.1875	1.1096609	-0.08452282	-0.23304686
1277478622649	1.8387469	9.915613	-0.42223078	0.2868452	0.0	-26.875	-43.8125	-3.4375	1.2837903	-0.04184418	-0.18335675
1277478622689	1.1168685	11.645397	0.08172209	1.8924675	0.0	-26.375	-44.3125	-3.4375	1.430439	0.0069853775	-0.09561399
1277478622729	1.879608	5.938472	0.19068487	-3.5748982	0.0	-26.375	-44.3125	-2.6875	1.4734306	0.030603696	-0.30653733
1277478622769	1.8387469	10.269742	-0.9942854	0.6736736	0.0	-25.875	-44.5625	-2.4375	1.1915523	-0.09501452	-0.17716785
1277478622809	0.08172209	11.413852	-0.46309182	1.6168842	0.0	-25.375	-44.8125	-2.6875	1.3927187	-0.040549517	-0.007159782
1277478622849	0.6946377	9.084772	-0.040861044	-0.69526863	0.0	-24.9375	-45.0625	-2.1875	1.4593804	-0.0044846307	-0.07631327
1277478622889	0.95342433	10.038197	-0.7218784	0.30252934	0.0	-24.1875	-45.5625	-3.1875	1.249442	-0.07146904	-0.09469557
1277478622929	1.0760075	9.847511	-0.7218784	0.12574005	0.0	-23.9375	-45.8125	-2.9375	1.2416332	-0.072743356	-0.108835176
1277478622969	1.3075534	9.997335	-0.6537767	0.29700375	0.0	-24.1875	-46.0625	-3.1875	1.2323503	-0.0647522	-0.13005199
1277478623009	2.152015	9.384419	-0.7627395	-0.14847851	0.0	-24.1875	-45.8125	-3.6875	1.0511439	-0.07905581	-0.22542042
1277478623049	2.9556155	9.384419	-0.9942854	0.08231354	0.0	-24.1875	-45.8125	-3.9375	0.79992485	-0.10071514	-0.30511463
1277478623089	2.3699405	9.466142	-0.95342433	-0.0018825531	0.0	-24.4375	-45.8125	-4.1875	0.946307	-0.097394794	-0.24531719
1277478623129	1.4982382	9.888372	-0.7627395	0.22362423	0.0	-24.4375	-45.5625	-3.9375	1.1561836	-0.07611721	-0.15037142
1277478623169	1.1168685	9.997335	-0.7218784	0.2787466	0.0	-24.1875	-45.5625	-4.4375	1.1781926	-0.07163786	-0.1112553
1277478623209	1.0760075	9.847511	-0.61291564	0.11841583	0.0	-24.1875	-45.3125	-4.1875	1.2142055	-0.06179363	-0.108835176
1277478623249	0.95342433	9.656827	-0.14982383	-0.101714134	0.0	-23.9375	-45.5625	-4.1875	1.3215876	-0.015438514	-0.098411664
1277478623289	1.2258313	9.765789	-0.5720546	0.052383423	0.0	-23.4375	-45.5625	-3.6875	1.2179674	-0.058056004	-0.12486993
1277478623329	0.8036005	9.697687	-0.10896278	-0.075115204	0.0	-23.4375	-45.5625	-2.9375	1.3956541	-0.011197109	-0.082676284
1277478623369	0.19068487	10.038197	-0.23154591	0.23602676	0.0	-23.6875	-45.0625	-2.6875	1.408574	-0.023058238	-0.018993644
1277478623409	0.3405087	10.079058	-0.61291564	0.29676533	0.0	-23.9375	-44.5625	-2.6875	1.3330266	-0.060701475	-0.033770937
1277478623449	0.61291564	9.956474	-0.23154591	0.17135811	0.0	-24.4375	-44.5625	-2.9375	1.3879608	-0.023207707	-0.061481923
1277478623489	0.9942854	9.847511	-0.29964766	0.09546471	0.0	-24.6875	-44.8125	-2.9375	1.3567663	-0.030265598	-0.10062717
1277478623529	1.0351465	9.915613	-0.61291564	0.18167114	0.0	-24.6875	-44.8125	-2.9375	1.3567663	-0.030265598	-0.10062717
1277478623569	1.0760075	9.80665	-0.38136974	0.06622219	0.0	-24.6875	-45.3125	-2.6875	1.34367	-0.038637657	-0.109285064
1277478623609	1.1849703	9.765789	-0.3405087	0.03665924	0.0	-24.4375	-45.3125	-3.1875	1.318665	-0.03459981	-0.120748624
1277478623654	1.1168685	9.656827	-0.46309182	-0.074427605	0.0	-24.6875	-45.3125	-3.1875	1.2953107	-0.04760133	-0.11514427
1277478623690	1.2666923	9.697687	-0.61291564	-0.007399559	0.0	-24.6875	-45.3125	-3.4375	1.2376064	-0.06258804	-0.12988266
1277478623730	1.4573772	9.697687	-0.6537767	0.021701813	0.0	-24.1875	-45.0625	-3.4375	1.2031488	-0.06656861	-0.14916465
1277478623769	1.5390993	9.724928	-0.7218784	0.06574345	0.0	-23.9375	-45.0625	-3.4375	1.1739489	-0.073186226	-0.15696147
1277478623809	1.5390993	9.765789	-0.6946377	0.10405064	0.0	-23.6875	-45.0625	-3.1875	1.1900436	-0.07014718	-0.15631539
1277478623849	1.4982382	9.765789	-0.7218784	0.09973526	0.0	-23.6875	-45.0625	-3.6875	1.161866	-0.072934665	-0.15223008
1277478623889	1.5390993	9.724928	-0.84446156	0.075463295	0.0	-23.6875	-44.5625	-4.1875	1.1054648	-0.085557885	-0.15696147
1277478623929	1.6889231	9.656827	-0.88532263	0.036650658	0.0	-24.1875	-44.5625	-4.1875	1.0866038	-0.09006335	-0.17314301
1277478623969	1.6889231	9.697687	-0.9942854	0.08709526	0.0	-24.1875	-44.5625	-5.1875	1.0177321	-0.10066629	-0.1724279
1277478624009	1.6889231	9.656827	-0.7627395	0.0263834	0.0	-24.1875	-45.0625	-4.1875	1.1116389	-0.0776471	-0.17314303
1277478624049	1.6889231	9.615966	-0.6537767	-0.021626472	0.0	-24.1875	-45.5625	-4.1875	1.1332998	-0.06686383	-0.17386405
1277478624089	1.1849703	9.80665	-0.61291564	0.09032917	0.0	-23.9375	-45.5625	-3.6875	1.2217652	-0.06196922	-0.12025035
1277478624129	1.1168685	9.915613	-0.53119355	0.18579388	0.0	-23.6875	-45.3125	-3.1875	1.270543	-0.053184595	-0.11216461
1277478624169	1.3075534	9.847511	-0.50395286	0.1400652	0.0	-23.6875	-45.3125	-3.4375	1.2476184	-0.05068695	-0.13200791
1277478624209	0.9942854	8.894087	0.19068487	-0.8551283	0.0	-23.9375	-45.3125	-3.4375	1.4424319	0.021303562	-0.111329496
1277478624249	0.19068487	10.923519	-0.53119355	1.1314392	0.0	-23.6875	-45.0625	-3.1875	1.3395293	-0.048582762	-0.017454587
1277478624289	0.53119355	9.507003	-0.040861044	-0.2847309	0.0	-24.9375	-45.3125	-2.9375	1.4314517	-0.004291274	-0.055815887
1277478624329	0.53119355	10.079058	-0.19068487	0.28819656	0.0	-24.6875	-45.3125	-3.1875	1.3901869	-0.018890452	-0.052653983
1277478624369	1.1849703	9.724928	-0.50395286	0.0031585693	0.0	-24.6875	-45.3125	-2.9375	1.29435	-0.051394965	-0.12125103
1277478624409	1.4165162	9.765789	-0.50395286	0.07419586	0.0	-25.125	-45.5625	-3.4375	1.2584765	-0.051025145	-0.14404425
1277478624449	1.4573772	9.615966	-0.7218784	-0.05411911	0.0	-24.4375	-45.5625	-3.4375	1.1853322	-0.07408735	-0.15041338
1277478624489	1.1441092	9.656827	-0.8036005	-0.049137115	0.0	-24.9375	-45.5625	-3.4375	1.2067316	-0.08245049	-0.11792701
1277478624529	0.88532263	9.915613	-0.6537767	0.16985226	0.0	-25.125	-45.3125	-3.1875	1.2799516	-0.06557865	-0.089049585
1277478624569	0.50395286	9.915613	-0.46309182	0.13255501	0.0	-24.9375	-45.3125	-2.9375	1.3488259	-0.046609316	-0.050780483
1277478624609	0.7218784	9.765789	-0.38136974	-0.006793976	0.0	-24.6875	-45.0625	-3.1875	1.3399997	-0.03892568	-0.07378492
1277478624649	1.0760075	9.888372	-0.46309182	0.15086746	0.0	-24.4375	-45.0625	-2.9375	1.3120131	-0.046523537	-0.10838897
1277478624689	1.0760075	9.80665	-0.14982383	0.059991837	0.0	-24.1875	-45.3125	-3.6875	1.3438407	-0.01518547	-0.109285064
1277478624729	1.5390993	9.724928	-0.3405087	0.045202255	0.0	-24.1875	-45.5625	-4.4375	1.2207874	-0.034569796	-0.15696147
1277478624769	2.152015	9.575105	-0.46309182	0.018229485	0.0	-23.6875	-45.8125	-4.6875	1.0769248	-0.047152076	-0.2210775
1277478624809	2.0294318	9.615966	-0.46309182	0.032040596	0.0	-23.4375	-45.5625	-4.9375	1.0782224	-0.047085837	-0.20799586
1277478624849	1.879608	9.575105	-0.50395286	-0.035799026	0.0	-23.1875	-45.8125	-4.1875	1.1206427	-0.051600065	-0.19383685
1277478624889	1.9885708	9.656827	-0.61291564	0.07183075	0.0	-23.1875	-46.0625	-3.9375	1.0888964	-0.062085412	-0.203085
1277478624929	1.5390993	9.724928	-0.50395286	0.052205086	0.0	-23.6875	-46.0625	-3.9375	1.1919475	-0.05113906	-0.15696147
1277478624969	0.88532263	9.697687	-0.3405087	-0.06268406	0.0	-23.6875	-46.3125	-3.9375	1.2884355	-0.03495271	-0.091039784
1277478625009	0.95342433	9.997335	-0.9125633	0.27742195	0.0	-23.9375	-46.0625	-3.9375	1.1685915	-0.0906195	-0.09508029
1277478625049	0.95342433	9.724928	-1.1849703	0.036489487	0.0	-23.9375	-45.5625	-3.4375	1.1295329	-0.12067809	-0.09772691
1277478625089	1.4573772	9.765789	-0.19068487	0.069125175	0.0	-23.9375	-45.3125	-2.6875	1.3608055	-0.019309545	-0.14813967
1277478625129	-0.42223078	10.119919	-0.7218784	0.34776497	0.0	-23.9375	-45.3125	-2.1875	1.3671349	-0.07115012	0.04169856
1277478625169	-0.10896278	10.269742	0.08172209	0.46399498	0.0	-23.9375	-45.3125	-2.0	1.503672	0.0079569435	0.010609682
1277478625209	0.3405087	9.575105	0.08172209	-0.22514439	0.0	-23.6875	-45.3125	-1.75	1.5093873	0.008529251	-0.0355469
1277478625249	1.0760075	9.507003	-0.6537767	-0.21663857	0.0	-23.4375	-45.8125	-1.5	1.3131244	-0.068225585	-0.112700924
1277478625289	1.4982382	9.656827	-0.9125633	0.008226395	0.0	-23.6875	-46.0625	-2.0	1.1890792	-0.09311205	-0.1539209
1277478625329	1.4982382	9.80665	-1.2666923	0.19433022	0.0	-23.4375	-45.5625	-2.1875	1.0983942	-0.12699792	-0.15160549
1277478625369	1.4573772	9.888372	-0.9942854	0.23787308	0.0	-23.4375	-45.3125	-2.6875	1.1484952	-0.09915019	-0.14632948
1277478625409	0.84446156	9.888372	-0.9942854	0.1673975	0.0	-23.1875	-44.8125	-2.6875	1.208034	-0.0998531	-0.08519274
1277478625449	0.7218784	9.80665	-0.9125633	0.068787575	0.0	-22.6875	-44.5625	-2.1875	1.2496397	-0.0925394	-0.07347858
1277478625489	0.95342433	9.697687	-0.84446156	-0.02568531	0.0	-22.4375	-45.5625	-2.0	1.2420299	-0.08644487	-0.09799968
1277478625529	0.95342433	9.765789	-1.1168685	0.06892872	0.0	-22.4375	-46.3125	-1.25	1.2113032	-0.11333646	-0.09732059
1277478625569	1.1849703	9.765789	-1.4165162	0.1322279	0.0	-22.4375	-46.0625	-2.0	1.0826287	-0.14300972	-0.120748624
1277478625609	1.2666923	9.575105	-1.2258313	-0.07064438	0.0	-22.4375	-46.3125	-2.0	1.1046623	-0.12624206	-0.13152646
1277478625649	0.84446156	9.724928	-1.1168685	0.018559456	0.0	-22.9375	-45.8125	-1.75	1.2088147	-0.113919996	-0.08661747
1277478625689	0.50395286	9.847511	-0.9942854	0.10375118	0.0	-22.4375	-45.3125	-1.75	1.2625917	-0.10049654	-0.05113105
1277478625729	0.9942854	9.575105	-0.95342433	-0.13296127	0.0	-22.6875	-45.8125	-1.25	1.24798	-0.09871877	-0.10346984
1277478625769	1.334794	9.425281	-1.3075534	-0.19794178	0.0	-22.6875	-45.3125	-1.5	1.1086733	-0.13650356	-0.14068297
1277478625809	1.7297841	9.656827	-1.525479	0.12177086	0.0	-22.1875	-45.8125	-1.5	0.9910316	-0.15425874	-0.17724577
1277478625849	1.8387469	9.575105	-1.1441092	0.010304451	0.0	-22.4375	-46.0625	-1.5	1.0729421	-0.116809666	-0.18972448
1277478625889	1.334794	9.656827	-0.95342433	-0.011497498	0.0	-22.6875	-46.0625	-1.5	1.2026243	-0.097490706	-0.13735253
1277478625929	0.88532263	9.997335	-0.95342433	0.27499294	0.0	-22.9375	-46.3125	-0.5	1.3077872	-0.09471187	-0.088325456
1277478625969	0.6946377	9.765789	-0.6537767	0.005616188	0.0	-22.4375	-45.5625	-0.25	1.3958954	-0.06667791	-0.07101011
1277478626009	0.6537767	9.615966	-0.6537767	-0.14633751	0.0	-22.6875	-45.8125	0.0	1.4084977	-0.067728326	-0.0678842
1277478626049	0.7218784	9.80665	-1.1441092	0.092868805	0.0	-22.1875	-45.8125	0.5	1.3117808	-0.11583105	-0.07347859
1277478626089	0.95342433	9.915613	-1.2258313	0.22983646	0.0	-21.9375	-46.0625	0.25	1.2594557	-0.12244321	-0.09585915
1277478626129	0.61291564	9.80665	-0.9942854	0.06931305	0.0	-22.6875	-46.75	0.25	1.3421293	-0.10084817	-0.06241881
1277478626159	0.3405087	9.956474	-0.84446156	0.19137096	0.0	-22.4375	-46.5	0.25	1.3931408	-0.08456361	-0.034186404
1277478626189	0.3405087	10.079058	-0.8036005	0.3101244	0.0	-22.4375	-46.75	0.0	1.391811	-0.07951625	-0.03377094
1277478626219	0.27240697	10.079058	-0.8036005	0.30806065	0.0	-22.1875	-46.75	0.25	1.4044744	-0.07953251	-0.027020449
1277478626249	0.040861044	9.997335	-0.6537767	0.21212292	0.0	-22.1875	-46.3125	0.25	1.4451524	-0.06530157	-0.0040871706
1277478626282	0.040861044	9.956474	-0.5720546	0.16632843	0.0	-22.4375	-46.0625	0.25	1.4634345	-0.05739196	-0.004103944
1277478626319	0.50395286	9.847511	-0.7218784	0.08013725	0.0	-22.1875	-45.8125	0.5	1.4242675	-0.07307948	-0.05113105
1277478626359	1.5390993	9.697687	-1.1849703	0.0836544	0.0	-22.4375	-45.5625	0.25	1.2159603	-0.120099805	-0.15739512
1277478626399	2.2201166	9.615966	-1.6889231	0.20575142	0.0	-22.1875	-45.5625	0.25	0.95268077	-0.16949348	-0.22690228
1277478626439	2.2201166	9.234595	-1.9885708	-0.10298729	0.0	-22.1875	-46.3125	-0.25	0.79534626	-0.20639211	-0.23593545
1277478626479	2.0294318	9.152874	-2.6832085	-0.055070877	0.0	-22.6875	-46.3125	0.0	0.72112644	-0.27875227	-0.2181962
1277478626519	1.7297841	9.343558	-3.1463003	0.20301723	0.0	-23.4375	-46.3125	0.5	0.7664327	-0.31974676	-0.1830586
1277478626559	1.9885708	9.997335	-3.0645783	0.8372574	0.0	-24.4375	-45.8125	1.5	0.8625643	-0.29205263	-0.19634734
1277478626599	2.3018389	9.80665	-2.8330324	0.65733147	0.0	-25.375	-44.3125	3.4375	0.9723194	-0.27416307	-0.23054872
1277478626639	1.2666923	8.894087	-2.7513103	-0.41095924	0.0	-26.375	-44.0625	5.4375	1.1601651	-0.29718193	-0.14146824
1277478626679	0.88532263	8.499097	-2.3699405	-0.9390087	0.0	-27.125	-43.0625	6.875	1.3281761	-0.2705455	-0.10379235
1277478626719	1.1441092	8.962189	-2.3018389	-0.4831171	0.0	-27.875	-42.8125	7.875	1.4047704	-0.24946426	-0.1269728
1277478626759	1.2258313	8.308413	-1.6889231	-1.2401552	0.0	-28.625	-43.0625	8.125	1.5137959	-0.1984546	-0.14648418
1277478626799	0.5720546	9.615966	-0.53119355	-0.15904903	0.0	-29.375	-42.3125	7.625	1.7620769	-0.055087507	-0.059420053
1277478626839	-0.8036005	12.680544	-2.6423476	3.171175	0.0	-29.375	-42.3125	6.875	1.5243022	-0.20503846	0.06328808
1277478626879	-0.84446156	11.413852	-1.0351465	1.6851149	0.0	-29.125	-42.3125	6.1875	1.650055	-0.09019949	0.07385112
1277478626919	0.7627395	9.343558	-2.5606253	-0.08859253	0.0	-28.375	-42.3125	5.9375	1.3340541	-0.2666398	-0.08145204
1277478626959	8.390134	9.888372	-2.5333846	3.4066868	0.0	-27.125	-43.0625	5.6875	-1.054081	-0.1929239	-0.70361376
1277478626999	3.718355	5.8976107	0.7218784	-2.7974362	0.0	-26.375	-43.8125	6.375	-3.0508785	0.10317287	-0.56253386
1277478627039	0.95342433	10.337844	-0.10896278	0.5756378	0.0	-25.875	-44.5625	7.375	1.8783436	-0.010495257	-0.09196646
1277478627079	2.9556155	11.264028	-2.0294318	2.014203	0.0	-25.125	-45.0625	8.875	1.5836465	-0.17253712	-0.25660935
1277478627119	1.5390993	9.275456	1.334794	-0.31009293	0.0	-24.9375	-44.8125	10.8125	2.3627262	0.14102253	-0.16443422
1277478627159	0.19068487	9.343558	0.50395286	-0.4475689	0.0	-24.4375	-45.0625	12.0625	2.1233232	0.053872455	-0.020405332
1277478627200	1.8387469	9.956474	0.23154591	0.32083607	0.0	-23.9375	-44.5625	13.5625	2.330083	0.022865111	-0.1826209
1277478627239	1.334794	9.724928	0.313268	0.014451981	0.0	-23.9375	-44.5625	14.0625	2.2934244	0.03190285	-0.1364026
1277478627269	1.3756552	10.651112	-0.6946377	0.95537186	0.0	-23.6875	-44.5625	14.0625	2.124104	-0.064590186	-0.12844495
1277478627299	1.4165162	10.119919	0.14982383	0.413023	0.0	-23.1875	-43.8125	14.75	2.311097	0.0146608595	-0.13906954
1277478627339	0.95342433	9.425281	0.53119355	-0.31838894	0.0	-22.4375	-44.0625	15.25	2.353891	0.056013573	-0.10081314
1277478627379	2.070293	9.80665	0.3405087	0.22193146	0.0	-21.4375	-44.0625	15.75	2.5415752	0.033960354	-0.20805615
1277478627419	2.7649305	9.765789	-0.38136974	0.35016632	0.0	-20.6875	-43.8125	16.75	2.6516423	-0.037556987	-0.27590334
1277478627459	2.7649305	9.80665	-0.29964766	0.38673115	0.0	-19.9375	-44.3125	17.5	2.7224336	-0.029400533	-0.27481088
1277478627499	2.4516625	9.724928	0.7218784	0.24849701	0.0	-19.1875	-44.5625	18.25	2.7992759	0.071853735	-0.24695495
1277478627539	3.5276701	9.00305	0.23154591	-0.13437176	0.0	-18.4375	-44.0625	18.75	3.086757	0.023941416	-0.373444
1277478627579	6.1700177	9.384419	-0.6537767	1.4434109	0.0	-17.0	-44.5625	19.4375	-2.5899022	-0.05814593	-0.5816118
1277478627619	3.3778462	9.152874	1.0351465	0.0043878555	0.0	-15.25	-44.3125	19.9375	-3.0998244	0.1057051	-0.35354194
1277478627659	0.46309182	9.275456	-0.5720546	-0.50203896	0.0	-13.0	-43.8125	20.6875	2.5991976	-0.061519567	-0.049885157
1277478627699	0.5720546	9.425281	-0.6537767	-0.34142017	0.0	-11.5	-44.0625	21.6875	2.6982164	-0.06912644	-0.060619283
1277478627729	1.0351465	11.495573	2.6423476	2.034031	0.0	-10.0625	-44.0625	22.1875	2.9519415	0.2250534	-0.08980519
1277478627759	0.38136974	10.228881	-2.982856	0.8550978	0.0	-9.0625	-44.3125	22.4375	2.4562647	-0.28355637	-0.03726636
1277478627799	-1.2666923	7.504812	-4.0588636	-1.1810436	0.0	-8.0625	-44.0625	23.125	1.6094668	-0.4899251	0.16720809
1277478627839	-1.4982382	12.9529505	-4.1814466	3.8867111	0.0	-5.8125	-43.5625	25.125	2.362426	-0.31031966	0.11515597
1277478627879	-0.53119355	12.721405	-4.5219555	3.7049894	0.0	-4.8125	-42.5625	26.875	2.6086013	-0.3412562	0.04173165
1277478627919	0.5720546	8.689782	-2.6014864	-0.7177944	0.0	-4.0625	-41.5625	29.8125	3.0621157	-0.290288	-0.06573587
1277478627969	2.7921712	7.4639506	-1.7570249	-1.6461401	0.0	-4.3125	-39.5625	31.75	-2.7332382	-0.21700744	-0.3579705
1277478628009	1.334794	7.8589406	-2.3426998	-1.4980488	0.0	-5.3125	-38.875	32.75	-3.0792117	-0.2858372	-0.16823855
1277478628049	1.4982382	8.689782	-2.7921712	-0.5571499	0.0	-6.0625	-38.125	33.75	-3.1170714	-0.30665636	-0.1707352
1277478628089	3.2961242	7.5865335	-2.6423476	-1.1232214	0.0	-6.8125	-37.625	33.5	-2.7398696	-0.3092011	-0.40986472
1277478628129	3.2961242	7.205164	-2.6832085	-1.4413385	0.0	-7.3125	-38.375	33.0	-2.6875994	-0.3265256	-0.42904603
1277478628169	2.070293	7.43671	-3.0645783	-1.5010853	0.0	-7.3125	-39.125	32.0	-2.917235	-0.37791017	-0.27151352
1277478628209	1.4165162	8.076866	-4.8216033	-0.2940197	0.0	-6.3125	-40.0625	30.5625	-3.0208251	-0.5315421	-0.1736138
1277478628249	2.6014864	9.302697	-4.7126403	0.9412279	0.0	-4.8125	-41.0625	29.3125	-2.490803	-0.45389748	-0.27268285
1277478628289	2.9147544	11.114203	-5.284695	2.840457	0.0	-3.125	-42.3125	28.8125	-2.4188385	-0.43108636	-0.25647902
1277478628329	3.568531	8.812365	-5.407278	1.1309385	0.0	-1.375	-42.0625	29.3125	-1.9598902	-0.5171165	-0.38476282
1277478628369	3.6774938	6.2108784	-4.630918	-1.2308483	0.0	-0.125	-41.5625	30.3125	-1.8555301	-0.5704351	-0.53459436
1277478628409	1.879608	14.628253	-4.7943625	5.701561	0.0	0.875	-41.0625	31.0625	-2.7967327	-0.31429905	-0.12779142
1277478628449	-0.84446156	15.023244	-0.42223078	5.246232	0.0	2.625	-40.5625	31.0625	-3.1300778	-0.02805351	0.056151245
1277478628489	-3.3642259	1.56634	-1.3075534	-5.872043	0.0	3.125	-41.0625	29.8125	2.1086123	-0.3387636	1.1350561
1277478628529	-3.445948	5.47538	-0.50395286	-3.3175583	0.0	3.5625	-41.5625	28.8125	2.5046036	-0.07773981	0.5617236
1277478628569	1.920469	15.091345	1.0351465	5.441577	0.0	5.5625	-42.3125	27.3125	-2.79483	0.0679386	-0.12657599
1277478628609	2.7649305	12.789507	-0.19068487	3.279705	0.0	6.8125	-42.8125	26.625	-2.598771	-0.014571791	-0.21291083
1277478628639	0.5720546	6.2789803	-2.1792557	-3.1356683	0.0	8.5625	-43.5625	25.875	-2.2719936	-0.33278543	-0.09085547
1277478628679	-1.9885708	7.7363577	-0.9942854	-1.7571621	0.0	10.0625	-44.3125	24.875	3.0742784	-0.12383785	0.25159562
1277478628719	-0.6537767	10.079058	-0.53119355	0.30754757	0.0	10.3125	-45.0625	24.125	-2.8139472	-0.052543767	0.06477412
1277478628759	2.4516625	9.466142	-1.920469	0.15862465	0.0	10.5625	-45.5625	22.4375	-2.1457255	-0.1939294	-0.2534244
1277478628799	2.1792557	8.008764	-0.7218784	-1.4753494	0.0	11.25	-45.5625	21.1875	-2.2265446	-0.08675533	-0.26567635
1277478628839	1.1168685	8.499097	-0.23154591	-1.2313566	0.0	12.0	-46.0625	19.1875	-2.3587124	-0.027004795	-0.13066156
1277478628879	-0.040861044	10.310603	-0.9125633	0.5443392	0.0	13.25	-46.0625	16.75	-2.3387501	-0.08827655	0.0039629913
1277478628919	-0.040861044	11.264028	-1.2666923	1.52845	0.0	14.75	-46.3125	14.0625	-2.113428	-0.11198345	0.0036275538
1277478628959	2.4516625	11.604536	0.38136974	2.0601673	0.0	16.25	-46.3125	11.8125	-2.0475054	0.032143027	-0.20820594
1277478628999	3.718355	10.501288	-0.7218784	1.3568773	0.0	17.9375	-46.75	9.625	-1.787038	-0.06470916	-0.3403099
1277478629039	3.405087	12.639683	-0.3405087	3.2880878	0.0	18.4375	-46.75	8.625	-1.8183521	-0.026006406	-0.2631493
1277478629079	1.1849703	12.4489975	1.4573772	2.7832527	0.0	18.6875	-47.5	8.625	-2.1103606	0.116017714	-0.09490008
1277478629119	-5.434519	10.337844	0.6946377	1.8932447	0.0	17.9375	-48.25	9.375	2.653757	0.059406217	0.4839891
1277478629159	-5.597963	11.686258	2.1792557	3.3331738	0.0	16.75	-47.75	11.8125	2.8720756	0.16662112	0.44672397
1277478629199	-2.7240696	11.917805	1.2666923	2.483961	0.0	15.0	-47.75	15.25	-2.9479473	0.10324511	0.22471116
1277478629229	2.7240696	11.413852	-1.3756552	2.0081282	0.0	12.75	-47.25	18.9375	-2.104258	-0.11669982	-0.23428087
1277478629269	2.3426998	11.34575	-1.7297841	1.9068651	0.0	10.5625	-46.0625	22.1875	-2.2415178	-0.14821629	-0.20362099
1277478629309	0.5720546	9.507003	-0.6946377	-0.25715446	0.0	8.5625	-45.0625	25.125	-2.665498	-0.07280508	-0.060099456
1277478629349	0.040861044	6.66035	-0.14982383	-3.1444902	0.0	6.8125	-44.3125	27.3125	-2.878571	-0.022490673	-0.006134893
1277478629389	-0.61291564	4.2495484	0.23154591	-5.5068893	0.0	6.0625	-43.3125	29.3125	3.1358187	0.053876944	0.14324294
1277478629429	-0.53119355	3.6774938	-0.29964766	-6.0789275	0.0	6.3125	-42.8125	31.25	-3.1369975	-0.08047039	0.14345226
1277478629469	0.040861044	5.8567495	-3.8273177	-2.810112	0.0	7.3125	-43.0625	31.75	-1.9518943	-0.5788125	-0.006976631
1277478629509	0.23154591	12.108489	-7.9270425	4.6677113	0.0	9.5625	-42.8125	31.25	-1.8347018	-0.5795661	-0.019120278
1277478629549	0.5720546	14.246883	-6.2789803	5.773033	0.0	12.0	-42.8125	30.5625	-2.2436466	-0.41481826	-0.04013141
1277478629589	1.3756552	9.997335	-6.6331096	2.269661	0.0	14.5	-43.3125	28.8125	-1.6493145	-0.58148587	-0.13674346
1277478629629	-1.9477097	17.24336	-1.4573772	7.6074543	0.0	16.0	-42.8125	27.8125	-2.7086806	-0.08378748	0.112477444
1277478629669	-4.140586	11.563675	1.879608	2.618967	0.0	16.0	-43.0625	27.3125	-3.1254897	0.1518517	0.3438445
1277478629709	0.19068487	2.7649305	1.7570249	-6.5251355	0.0	15.0	-43.8125	26.375	-2.7624552	0.56501806	-0.06885649
1277478629752	-2.9556155	5.407278	2.3699405	-3.2043066	0.0	13.75	-44.0625	25.875	2.9207704	0.36714742	0.5002287
1277478629789	-1.7297841	15.322891	-1.1849703	5.659032	0.0	14.75	-44.8125	24.625	-2.7118862	-0.076694496	0.112412974
1277478629829	2.1111538	9.697687	-1.920469	0.30227184	0.0	15.75	-44.8125	23.125	-2.1132402	-0.19113936	-0.2143522
1277478629869	-0.08172209	5.5162406	1.0760075	-4.185851	0.0	16.5	-44.5625	21.9375	-2.657334	0.19262213	0.014813731
1277478629909	-1.920469	8.689782	1.4165162	-0.7951555	0.0	17.5	-45.0625	20.1875	-2.8794851	0.15784456	0.21750693
1277478629949	-0.50395286	9.80665	-2.3426998	0.28852654	0.0	16.75	-45.3125	18.25	-2.026059	-0.23419629	0.051343724
1277478629989	1.1441092	9.425281	-0.46309182	-0.30089664	0.0	17.25	-45.8125	16.0	-2.1202512	-0.048736293	-0.12079629
1277478630029	0.42223078	10.419566	-0.38136974	0.62843895	0.0	18.6875	-46.0625	13.0625	-2.0775151	-0.036555	-0.04050072
1277478630069	0.61291564	11.182305	-1.56634	1.5014458	0.0	20.1875	-46.0625	10.5625	-1.7557513	-0.1389617	-0.054756414
1277478630109	5.053149	10.760075	-0.50395286	2.0915632	0.0	21.4375	-46.0625	8.875	-1.760538	-0.04236801	-0.4390498
1277478630139	3.7864566	10.528529	-1.7297841	1.5149813	0.0	21.9375	-46.0625	7.625	-1.627243	-0.15338652	-0.34523487
1277478630179	2.1792557	12.680544	-0.5720546	3.072503	0.0	21.9375	-45.5625	7.875	-1.7737644	-0.044431716	-0.17019562
1277478630219	-3.214402	10.228881	1.7297841	1.054038	0.0	21.1875	-45.3125	8.125	-2.7470107	0.15995139	0.3044763
1277478630259	-7.43671	13.102775	1.1849703	5.305978	0.0	20.1875	-45.5625	9.875	2.7967286	0.07848984	0.5162307
1277478630299	-6.2789803	12.871228	1.2258313	4.566824	0.0	18.1875	-45.5625	12.8125	2.9304588	0.085388005	0.45386484
1277478630339	-0.8036005	11.795221	-2.070293	2.1958132	0.0	15.25	-45.8125	16.5	-2.1657937	-0.173356	0.06802421
1277478630379	5.6252036	10.800936	-2.3426998	2.594615	0.0	12.5	-45.5625	20.6875	-1.9757087	-0.19005014	-0.48015437
1277478630419	2.2609777	8.158588	-2.1383946	-1.0746794	0.0	9.5625	-44.8125	24.625	-2.1523318	-0.24740887	-0.27034402
1277478630459	-0.46309182	6.851035	-0.10896278	-2.939117	0.0	7.5625	-44.0625	27.5625	-2.972891	-0.015867028	0.06749177
1277478630499	-1.2666923	5.6660647	0.7627395	-3.9508348	0.0	6.5625	-43.0625	29.3125	3.055677	0.13062449	0.2199412
1277478630539	-0.6946377	3.990762	-0.27240697	-5.7467356	0.0	6.8125	-41.8125	30.8125	3.125159	-0.06714717	0.17233483
1277478630579	-0.9942854	4.140586	-3.9090397	-4.0261965	0.0	8.3125	-41.0625	30.5625	0.2539423	-0.742662	0.23566939
1277478630619	0.50395286	13.293459	-7.5456724	5.4873743	0.0	10.5625	-40.5625	29.0625	-1.9962044	-0.5159644	-0.03789169
1277478630649	1.1168685	15.363752	-7.014479	7.1195183	0.0	13.0	-40.8125	28.0625	-2.0881028	-0.4273013	-0.07256738
1277478630689	-1.920469	7.1234417	-7.9270425	1.02246	0.0	15.0	-41.0625	26.625	-0.26940852	-0.821271	0.26333755
1277478630729	-4.5900574	17.583868	0.84446156	8.386045	0.0	16.0	-41.3125	24.875	-2.9560776	0.046434302	0.2553401
1277478630769	-2.6832085	9.084772	3.336985	0.23666382	0.0	15.5	-41.5625	24.625	-3.0602417	0.338698	0.2871874
1277478630809	-0.42223078	3.6774938	0.27240697	-6.094987	0.0	14.75	-41.5625	24.125	-2.7922723	0.0734582	0.11431426
1277478630849	-2.4925237	8.894087	0.88532263	-0.5275736	0.0	13.75	-41.8125	23.875	-3.0717223	0.095556	0.27323592
1277478630889	0.08172209	13.484144	0.38136974	3.683134	0.0	13.25	-42.3125	23.875	-2.6472592	0.028274773	-0.006060532
1277478630929	2.3018389	8.894087	-1.9885708	-0.40677452	0.0	13.5	-42.8125	23.125	-2.1195564	-0.21316354	-0.2532489
1277478630969	-1.1441092	6.742072	-0.46309182	-2.952529	0.0	13.25	-43.0625	21.6875	-2.8367512	-0.06761551	0.16809563
1277478630999	-1.9477097	8.812365	0.88532263	-0.7382908	0.0	13.25	-44.0625	20.4375	-3.004321	0.09778341	0.2175231
1277478631039	0.9942854	10.228881	-2.1111538	0.6850405	0.0	12.5	-44.5625	19.6875	-2.1350782	-0.20260479	-0.096899316
1277478631079	2.7240696	10.147159	-2.070293	0.9018278	0.0	12.75	-45.0625	18.25	-1.9702538	-0.19455723	-0.26227257
1277478631119	2.1792557	8.662541	-0.46309182	-0.8621979	0.0	13.0	-45.8125	16.75	-2.1210825	-0.051797356	-0.24645795
1277478631160	0.8036005	9.112013	-0.50395286	-0.6453991	0.0	13.5	-45.8125	14.3125	-2.16658	-0.05503695	-0.08796375
1277478631199	1.9477097	12.258313	-1.7297841	2.7253876	0.0	14.5	-45.8125	12.0625	-1.8435202	-0.13847104	-0.15757169
1277478631239	3.8681788	10.228881	-0.7218784	1.1529999	0.0	15.25	-45.8125	10.8125	-1.8374213	-0.06591464	-0.36154038
1277478631269	3.7864566	12.340035	-1.2666923	3.163247	0.0	16.5	-45.8125	10.125	-1.7822821	-0.09781994	-0.29772314
1277478631309	0.6946377	10.841797	1.2258313	1.1263151	0.0	16.5	-45.5625	10.375	-2.2387626	0.11235876	-0.0639829
1277478631349	-4.2086873	11.114203	0.38136974	2.0838509	0.0	16.0	-45.0625	11.8125	3.0671306	0.03207898	0.36199
1277478631389	-8.580819	14.982383	1.6480621	7.537464	0.0	14.25	-44.5625	14.3125	2.6573422	0.095164984	0.5201246
1277478631429	-1.2258313	12.340035	-1.9885708	2.752551	0.0	12.0	-44.0625	17.5	-2.4997394	-0.15900493	0.09901291
1277478631469	5.9793324	11.75436	-2.5333846	3.6222525	0.0	9.3125	-43.3125	21.4375	-2.0513973	-0.18978897	-0.47057587
1277478631509	1.9477097	8.730643	-1.7297841	-0.69567585	0.0	6.8125	-42.5625	24.125	-2.3613338	-0.1910167	-0.21949469
1277478631549	-1.525479	7.43671	-0.29964766	-2.2091813	0.0	4.3125	-41.5625	26.625	2.9777503	-0.03945069	0.20232163
1277478631589	-2.5606253	5.134871	0.42223078	-4.053218	0.0	2.875	-40.5625	28.3125	2.6771293	0.073453665	0.46258602
1277478631629	-1.3756552	3.1463003	-1.4573772	-6.076291	0.0	2.625	-39.8125	29.3125	2.308932	-0.40137032	0.4121833
1277478631669	0.50395286	3.445948	-4.099725	-4.427406	0.0	3.375	-39.3125	30.0625	-0.7438689	-0.8666086	-0.14521563
1277478631709	3.8273177	10.337844	-6.2789803	2.8797588	0.0	5.0625	-39.125	29.3125	-1.9905329	-0.51776296	-0.35457695
1277478631749	2.7649305	16.276316	-6.891896	8.083612	0.0	6.8125	-39.125	28.5625	-2.3034606	-0.39545885	-0.16826816
1277478631779	-1.4982382	9.112013	-8.880466	3.0049143	0.0	8.5625	-39.125	27.3125	-0.25571084	-0.76586425	0.16296633
1277478631809	-4.372132	14.369467	-5.053149	6.040477	0.0	9.8125	-39.125	26.125	2.975181	-0.32453543	0.29536542
1277478631839	-2.1383946	14.9006605	1.5390993	5.3251457	0.0	10.5625	-39.5625	25.375	-2.9784713	0.10188913	0.14253685
1277478631879	1.2666923	6.8237944	0.84446156	-2.8150988	0.0	10.75	-40.3125	24.875	-2.5916486	0.12107875	-0.18353963
1277478631919	1.6480621	5.243834	-0.040861044	-4.309781	0.0	10.5625	-41.0625	24.125	-2.3879385	-0.0074335807	-0.30451086
1277478631959	-2.5333846	8.580819	2.1792557	-0.59808636	0.0	11.25	-42.0625	22.875	3.107153	0.23892194	0.28708234
1277478631999	-3.486809	11.795221	-1.4573772	2.5791893	0.0	12.5	-42.3125	21.6875	3.1411183	-0.117938004	0.28742626
1277478632039	1.4573772	7.6954966	-1.9885708	-1.7258692	0.0	13.0	-42.3125	20.1875	-2.019147	-0.24864046	-0.18716398
1277478632079	1.607201	7.164303	1.8387469	-2.237547	0.0	14.5	-43.0625	18.5	-2.4307797	0.24538311	-0.22068101
1277478632119	-0.84446156	9.534244	-1.2666923	-0.15162945	0.0	14.5	-43.5625	16.75	-2.3629582	-0.1315745	0.0883409
1277478632149	-0.9125633	9.466142	-3.214402	0.23192501	0.0	14.0	-44.0625	14.5625	-1.5010308	-0.32594588	0.096105896
1277478632189	0.23154591	8.894087	0.27240697	-0.9053812	0.0	14.75	-44.5625	12.0625	-2.2712383	0.03060794	-0.026027812
1277478632229	0.42223078	10.56939	0.53119355	0.7845001	0.0	14.75	-44.5625	9.375	-2.1817245	0.050175525	-0.03992722
1277478632259	-0.84446156	11.795221	-1.8387469	2.160863	0.0	14.75	-44.3125	7.125	-1.5783782	-0.15425588	0.07147158
1277478632292	2.5606253	12.108489	-1.1441092	2.6224012	0.0	16.0	-44.3125	5.4375	-1.640315	-0.09218171	-0.2084031
1277478632329	5.5162406	11.34575	-0.84446156	2.837245	0.0	16.25	-44.3125	3.9375	-1.6219909	-0.06683784	-0.4525423
1277478632369	2.2609777	11.985906	-1.4982382	2.482315	0.0	17.0	-44.3125	3.6875	-1.5200903	-0.12222143	-0.1864455
1277478632409	-0.38136974	11.645397	0.61291564	1.8611002	0.0	17.5	-44.5625	4.1875	-1.9587351	0.052554935	0.032736838
1277478632449	-3.405087	10.732834	0.92618364	1.4914103	0.0	16.25	-44.8125	5.6875	-2.941878	0.08206932	0.30721447
1277478632489	-6.66035	14.410328	2.4516625	6.256613	0.0	15.0	-45.0625	8.375	2.81232	0.15322429	0.43294707
1277478632529	-2.3426998	11.985906	-1.6480621	2.5167542	0.0	12.5	-45.0625	12.0625	-2.5768068	-0.13413621	0.19302115
1277478632569	4.671779	10.732834	-3.214402	2.3321972	0.0	9.5625	-45.0625	15.75	-1.7648369	-0.26799953	-0.4105449
1277478632609	2.7649305	8.730643	-1.334794	-0.55188656	0.0	7.3125	-45.3125	19.6875	-2.1521282	-0.14473255	-0.30669993
1277478632639	-0.14982383	7.7772183	-0.08172209	-2.0275593	0.0	5.3125	-44.8125	22.4375	-2.9417694	-0.010505545	0.019262068
1277478632669	-1.3075534	6.6331096	0.3405087	-3.037323	0.0	3.8125	-44.5625	24.625	2.961746	0.050322942	0.19462985
1277478632709	-1.2666923	4.7535014	-0.27240697	-4.8797355	0.0	3.5625	-43.8125	26.625	2.8282495	-0.05531777	0.26042402
1277478632749	-0.9942854	3.445948	-1.8387469	-5.776247	0.0	3.5625	-42.5625	27.5625	2.1450577	-0.4737417	0.2809079
1277478632779	0.14982383	6.2108784	-5.012288	-1.8241391	0.0	4.5625	-42.3125	28.0625	-0.8761024	-0.6788632	-0.024118133
1277478632819	1.607201	10.991621	-6.0474343	2.8412857	0.0	6.3125	-42.0625	27.3125	-1.9224719	-0.49853128	-0.14519164
1277478632859	-0.08172209	14.246883	-8.730643	6.9027634	0.0	8.0625	-42.0625	26.625	-1.660079	-0.54977864	0.005736075
1277478632899	-0.14982383	6.701211	-7.205164	0.034236908	0.0	9.5625	-42.8125	26.125	-0.56072736	-0.82149667	0.022354001
1277478632939	-0.6946377	16.08563	-1.334794	6.349207	0.0	10.75	-42.8125	25.875	-2.7608082	-0.08271411	0.043156926
1277478632979	-1.3075534	11.454713	1.1168685	1.7764215	0.0	10.75	-43.3125	25.375	-2.9486403	0.09657252	0.11365787
1277478633019	-0.95342433	4.7943625	-2.4516625	-4.338051	0.0	10.3125	-44.3125	24.375	-2.331992	-0.4648809	0.19630267
1277478633079	-2.3426998	9.152874	1.1849703	-0.2847023	0.0	10.0625	-45.3125	23.375	3.0902894	0.12476968	0.25057298
1277478633119	-0.040861044	14.2877445	-2.2609777	4.6589413	0.0	10.75	-46.0625	21.1875	-2.4830523	-0.1569439	0.002859859
1277478633159	1.7978859	7.9270425	-1.7297841	-1.4962626	0.0	11.75	-46.5	20.1875	-2.033528	-0.20968032	-0.22303095
1277478633199	-0.5720546	6.469665	0.95342433	-3.242137	0.0	13.25	-47.25	18.75	-2.8017128	0.14575468	0.088191696
1277478633239	-0.19068487	9.384419	-0.23154591	-0.4174385	0.0	14.25	-47.25	16.0	-2.4107766	-0.024663346	0.020316508
1277478633279	0.5720546	9.193735	-2.070293	-0.36535168	0.0	14.0	-47.75	14.3125	-1.7861038	-0.221077	-0.062142108
1277478633319	1.2666923	9.507003	-0.6946377	-0.19051075	0.0	14.5	-48.5	11.3125	-1.9361576	-0.07229962	-0.13245767
1277478633359	1.2258313	10.079058	-0.7218784	0.37230778	0.0	15.25	-48.75	8.375	-1.8066424	-0.07097828	-0.12102722
1277478633399	1.4165162	11.836082	-0.61291564	2.1296406	0.0	16.25	-49.0	6.1875	-1.7412857	-0.051371515	-0.11911128
1277478633439	3.1054392	12.489859	-1.3756552	3.136794	0.0	17.0	-49.5	4.1875	-1.5530155	-0.10648312	-0.2436953
1277478633479	4.2904096	12.53072	0.23154591	3.4402428	0.0	17.9375	-49.25	3.1875	-1.6886986	0.017480152	-0.32988048
1277478633519	-0.7218784	12.026767	1.7978859	2.375164	0.0	18.1875	-49.25	3.4375	-2.1891403	0.14812882	0.05995072
1277478633559	-6.3198414	10.460427	-0.08172209	2.4149542	0.0	17.5	-49.5	4.6875	1.9590802	-0.0066867406	0.5434776
1277478633599	-6.851035	13.211738	2.7240696	5.3230314	0.0	16.25	-49.25	7.875	2.6891544	0.1810353	0.47838253
1277478633639	-1.7570249	12.108489	-0.08172209	2.4289265	0.0	13.75	-49.75	12.0625	-2.6376278	-0.0066791046	0.14410108
1277478633679	3.214402	11.495573	-2.1792557	2.327176	0.0	11.0	-49.25	16.5	-1.90356	-0.18058154	-0.27265707
1277478633719	1.6889231	9.765789	-2.3018389	0.36790466	0.0	8.0625	-48.25	21.9375	-2.1649992	-0.22821057	-0.17124891
1277478633759	0.27240697	7.8861814	-0.9125633	-1.8631725	0.0	5.3125	-47.25	26.375	-2.819482	-0.11513631	-0.034528587
1277478633792	0.14982383	6.2789803	-0.6946377	-3.487587	0.0	3.8125	-45.3125	29.3125	-2.9418395	-0.11014993	-0.023856644
1277478633829	-0.0	4.099725	-0.84446156	-5.6208577	0.0	2.625	-44.0625	32.0	-3.0252082	-0.20313896	0.0
1277478633869	0.8036005	3.0645783	-3.2961242	-5.2347965	0.0	3.375	-43.3125	33.0	-1.1301638	-0.80518687	-0.25644842
1277478633909	1.7978859	5.938472	-5.012288	-1.8303809	0.0	4.5625	-43.0625	32.75	-1.5949622	-0.67949474	-0.2939799
1277478633949	0.84446156	11.958665	-6.1700177	3.6763725	0.0	5.3125	-43.3125	31.75	-2.372706	-0.47530973	-0.07049801
1277478633989	1.607201	11.495573	-6.5922484	3.5420961	0.0	6.5625	-43.0625	30.8125	-2.0311835	-0.51650923	-0.13891001
1277478634029	-3.7864566	11.182305	-6.973618	3.905117	0.0	7.0625	-43.0625	29.8125	2.057971	-0.5335422	0.32649332
1277478634069	-4.372132	15.241169	-0.38136974	6.05381	0.0	7.5625	-42.8125	29.0625	2.981073	-0.024047632	0.27936164
1277478634109	1.920469	6.469665	-0.5720546	-3.033762	0.0	7.8125	-42.5625	28.8125	-2.4853106	-0.08456318	-0.28855714
1277478634149	3.445948	7.8180795	0.23154591	-1.2596893	0.0	7.8125	-43.0625	28.0625	-2.4403484	0.027094338	-0.4151489
1277478634189	1.4982382	9.466142	-0.6537767	-0.20040321	0.0	8.0625	-43.8125	26.625	-2.5830688	-0.06811009	-0.15697129
1277478634229	-1.879608	10.269742	-1.920469	0.80884457	0.0	9.0625	-44.8125	25.625	-3.0916307	-0.18191354	0.18102036
1277478634269	-0.9125633	9.384419	-1.4573772	-0.2659979	0.0	9.8125	-46.0625	24.375	-2.83794	-0.15335484	0.096937604
1277478634309	0.10896278	7.205164	-0.3405087	-2.5926218	0.0	10.75	-46.75	22.6875	-2.6312485	-0.047218457	-0.015121721
1277478634359	0.88532263	8.308413	-0.27240697	-1.446763	0.0	12.25	-47.5	21.1875	-2.4229214	-0.032590777	-0.106156796
1277478634399	0.040861044	8.308413	-0.6537767	-1.472455	0.0	12.75	-48.0	18.0	-2.400267	-0.07852577	-0.004917993
1277478634439	-0.040861044	10.18802	-0.95342433	0.42596626	0.0	14.0	-48.5	14.75	-2.2053192	-0.09331038	0.0040106736
1277478634479	1.0760075	11.073342	-0.84446156	1.3508501	0.0	15.25	-49.25	11.8125	-1.9600693	-0.075757995	-0.09686685
1277478634519	1.1168685	11.536434	-0.38136974	1.7899933	0.0	15.75	-49.0	8.625	-1.9042737	-0.03289215	-0.09651151
1277478634559	4.2904096	11.917805	-1.607201	2.9614658	0.0	17.0	-49.25	6.875	-1.6231462	-0.12621093	-0.34555557
1277478634599	4.8216033	12.4489975	-0.7218784	3.5629616	0.0	17.5	-49.25	6.625	-1.7013134	-0.05402024	-0.36951783
1277478634639	-1.1168685	12.026767	0.23154591	2.2740831	0.0	17.5	-49.5	6.625	-2.1049397	0.019167718	0.09259965
1277478634669	-5.434519	10.732834	-0.040861044	2.2237024	0.0	17.0	-49.75	9.375	2.470253	-0.0033965025	0.46871087
1277478634709	-5.175732	13.0619135	1.7978859	4.357889	0.0	15.5	-50.25	12.8125	2.932877	0.12727197	0.37726605
1277478634749	-1.6480621	12.026767	1.2666923	2.3984194	0.0	13.75	-50.25	16.5	-2.8388355	0.10397133	0.13618465
1277478634779	1.6480621	11.645397	-1.4573772	2.044735	0.0	11.5	-49.25	21.1875	-2.2651653	-0.123283096	-0.14058687
1277478634809	1.4573772	10.18802	-2.7240696	0.8394871	0.0	9.5625	-48.75	24.375	-2.1857436	-0.25875166	-0.14208421
1277478634849	0.19068487	8.076866	-1.9885708	-1.4864016	0.0	7.0625	-46.75	27.8125	-2.6666245	-0.24133974	-0.023604384
1277478634889	-0.50395286	6.782933	-0.23154591	-3.001082	0.0	5.3125	-45.5625	30.3125	-3.0748053	-0.034029577	0.074160926
1277478634929	-0.040861044	5.6252036	-0.46309182	-4.162269	0.0	4.3125	-44.5625	32.25	-3.002458	-0.08213707	0.007263795
1277478634969	0.313268	4.8216033	-1.9477097	-4.597085	0.0	4.3125	-43.5625	34.25	-2.7134478	-0.3831801	-0.06488056
1277478635009	-0.42223078	6.510526	-4.7943625	-1.7102842	0.0	5.3125	-43.3125	34.25	-2.1955245	-0.6337395	0.06476286
1277478635049	-0.23154591	10.337844	-6.3607025	2.333497	0.0	6.5625	-43.3125	33.75	-2.3899944	-0.55146956	0.022394149
1277478635089	1.6480621	11.454713	-7.504812	3.9864197	0.0	8.5625	-43.8125	33.0	-1.8833971	-0.57531625	-0.14289573
1277478635129	2.3426998	6.238119	-5.8567495	-0.93512917	0.0	9.8125	-44.5625	31.75	-1.513897	-0.72105074	-0.35924911
1277478635169	-0.50395286	10.760075	-2.6423476	1.2845707	0.0	9.8125	-45.5625	31.25	-2.7650504	-0.24055095	0.046801243
1277478635209	-5.7886477	18.38747	-0.14982383	9.471056	0.0	10.3125	-46.5	30.5625	3.0057554	-0.007771949	0.30499232
1277478635239	-3.0237172	6.0474343	-0.29964766	-3.0387764	0.0	10.3125	-47.5	29.8125	2.732187	-0.04428948	0.4636476
1277478635279	0.84446156	2.5606253	2.1111538	-6.3821955	0.0	9.8125	-47.75	29.0625	-2.6811929	0.66428137	-0.31855568
1277478635319	-1.1441092	9.697687	2.6014864	0.29888535	0.0	10.75	-48.5	27.8125	-3.0161536	0.26036352	0.1174347
1277478635359	2.070293	15.472715	-1.525479	5.878315	0.0	11.5	-48.75	26.625	-2.4584208	-0.09741138	-0.1330128
1277478635399	1.2666923	7.668256	-3.1054392	-1.4370384	0.0	11.0	-49.75	24.875	-1.8556559	-0.38012594	-0.16370815
1277478635439	-2.6014864	7.0553403	1.56634	-2.1255708	0.0	10.5625	-51.5	23.125	2.908055	0.20536229	0.35325876
1277478635479	-2.1792557	8.430995	1.607201	-0.9514866	0.0	10.5625	-52.75	21.4375	3.0454073	0.18251029	0.25294513
1277478635519	0.92618364	9.765789	-0.95342433	0.0491848	0.0	10.3125	-54.1875	18.9375	-2.2992852	-0.09688856	-0.09455679
1277478635559	1.4573772	9.697687	-0.14982383	0.001077652	0.0	11.25	-54.4375	16.5	-2.255895	-0.015276694	-0.14916466
1277478635599	1.2666923	10.079058	-1.2666923	0.43036175	0.0	13.25	-54.4375	13.3125	-1.8964431	-0.12405447	-0.1250202
1277478635649	3.8681788	11.836082	-1.1849703	2.7017403	0.0	14.25	-54.6875	11.3125	-1.7885705	-0.09487631	-0.3158703
1277478635689	2.3426998	10.923519	-1.6889231	1.492198	0.0	15.0	-54.4375	10.8125	-1.6930634	-0.15003978	-0.21126363
1277478635729	3.255263	11.876944	-0.61291564	2.5235643	0.0	15.75	-54.9375	10.8125	-1.8454615	-0.049728926	-0.26751307
1277478635769	-0.23154591	10.18802	1.920469	0.5633812	0.0	15.75	-55.1875	11.8125	-2.5568483	0.18626943	0.02272336
1277478635799	-4.7535014	11.413852	1.3075534	2.6264305	0.0	15.0	-54.6875	13.8125	2.7913888	0.105362125	0.39462164
1277478635839	-6.932757	13.6748295	1.9477097	5.6483707	0.0	13.25	-54.4375	17.0	2.647151	0.12636039	0.4692097
1277478635879	-3.7864566	12.489859	-0.53119355	3.255355	0.0	10.0625	-53.25	20.9375	2.840337	-0.040678293	0.29435563
1277478635919	3.9090397	11.917805	-1.8387469	2.8699293	0.0	6.0625	-52.0	25.625	-2.269691	-0.14556421	-0.3169429
1277478635959	2.5333846	10.882658	-2.3018389	1.6016254	0.0	2.375	-50.25	30.0625	-2.533201	-0.20316395	-0.22871752
1277478635999	-1.3756552	8.962189	-0.7218784	-0.71080685	0.0	-0.875	-47.5	34.0	2.88024	-0.0794471	0.1523067
1277478636039	-1.525479	6.0474343	0.6946377	-3.5312161	0.0	-3.375	-45.8125	37.4375	2.8098814	0.11091889	0.24709731
1277478636079	-0.42223078	3.214402	-0.7218784	-6.48524	0.0	-4.3125	-43.3125	39.875	2.8194432	-0.21908945	0.13060817
1277478636119	0.14982383	2.4925237	-2.6423476	-6.171114	0.0	-3.5625	-41.3125	41.875	0.6676653	-0.81366754	-0.06003705
1277478636159	1.7570249	5.284695	-5.175732	-2.2037992	0.0	-2.125	-40.8125	42.375	-1.9413414	-0.7488025	-0.32097715
1277478636199	3.7864566	16.208214	-6.5513873	8.080891	0.0	0.625	-40.3125	41.875	-2.7637732	-0.37498036	-0.22949757
1277478636239	1.2666923	11.34575	-8.076866	4.1778526	0.0	3.125	-40.5625	41.375	-2.5233495	-0.6157346	-0.111184224
1277478636279	0.84446156	8.62168	-5.938472	0.6962986	0.0	4.5625	-40.5625	40.125	-2.4623826	-0.6009302	-0.09763486
1277478636319	-0.46309182	17.120777	-0.29964766	7.3230095	0.0	5.3125	-40.5625	38.9375	-3.031784	-0.017493805	0.027041934
1277478636359	-2.2609777	9.724928	-2.4108016	0.46458244	0.0	5.0625	-40.3125	38.1875	2.9908423	-0.23692429	0.22843486
1277478636399	-1.3075534	1.4982382	2.3699405	-6.712942	0.0	5.0625	-39.8125	37.4375	2.7179453	0.87267596	0.71754134
1277478636439	-1.920469	8.158588	2.3426998	-1.1038342	0.0	5.3125	-40.5625	35.9375	3.0513582	0.27255055	0.23118372
1277478636479	0.3405087	16.43976	-3.405087	6.9854984	0.0	6.5625	-41.0625	35.0	-2.8636556	-0.20419456	-0.02070955
1277478636519	1.334794	7.082581	-0.95342433	-2.5365987	0.0	8.0625	-41.8125	33.5	-2.6317368	-0.13152295	-0.18627667
1277478636559	-1.3075534	6.3607025	0.5720546	-3.287794	0.0	9.0625	-42.8125	31.5	-3.1343157	0.08786686	0.2027431
1277478636599	-1.607201	9.384419	0.5720546	-0.2684288	0.0	9.8125	-43.5625	29.5625	-3.0696893	0.060010992	0.16961713
1277478636639	-0.10896278	8.962189	-1.879608	-0.6488323	0.0	10.3125	-44.3125	27.3125	-2.6349657	-0.20671535	0.012157456
1277478636679	0.50395286	8.430995	0.3405087	-1.3537464	0.0	10.5625	-44.5625	25.125	-2.6849048	0.040293947	-0.05970279
1277478636719	0.46309182	10.038197	-0.14982383	0.24333954	0.0	11.5	-45.3125	22.875	-2.59285	-0.014908411	-0.046100285
1277478636759	0.3405087	11.073342	-0.7627395	1.298152	0.0	12.5	-46.3125	20.6875	-2.4693284	-0.068739675	-0.03074062
1277478636799	0.88532263	11.536434	-0.53119355	1.7758913	0.0	13.5	-46.75	18.75	-2.344387	-0.045877665	-0.07659132
1277478636839	3.405087	11.876944	-1.7297841	2.6692686	0.0	15.0	-47.75	16.75	-1.9439589	-0.13909796	-0.27920818
1277478636879	2.982856	11.876944	-1.525479	2.533783	0.0	15.75	-47.5	16.0	-1.9486763	-0.12393333	-0.24605769
1277478636919	0.50395286	9.888372	0.95342433	0.14035416	0.0	16.0	-46.5	16.0	-2.406701	0.09599777	-0.050920133
1277478636959	-3.214402	10.501288	1.2258313	1.2437849	0.0	15.25	-45.8125	17.25	-3.0894914	0.11115937	0.29704002
1277478636989	-6.66035	16.780268	1.879608	8.344675	0.0	13.0	-44.3125	20.4375	2.9732218	0.10373808	0.37784457
1277478637029	-4.2495484	14.859799	-2.1111538	5.792365	0.0	9.5625	-43.8125	23.375	2.9763322	-0.13575552	0.27854177
1277478637069	4.5628166	11.795221	-2.8330324	3.1537743	0.0	5.8125	-42.8125	26.625	-2.2745776	-0.22037034	-0.3691069
1277478637109	3.636633	11.34575	-1.3756552	2.1868296	0.0	1.875	-41.0625	29.5625	-2.6205404	-0.11495325	-0.31018203
1277478637149	0.19068487	10.038197	-0.53119355	0.24739933	0.0	-1.375	-39.5625	32.0	3.1207223	-0.0528584	-0.018993644
1277478637189	-2.5333846	7.246025	-0.14982383	-2.1290617	0.0	-2.875	-37.125	34.25	2.7223039	-0.019515678	0.33633986
1277478637229	-1.7570249	3.3778462	-0.88532263	-5.897587	0.0	-3.375	-34.125	36.6875	2.5714502	-0.22846171	0.47964627
1277478637269	-0.3405087	2.1792557	-3.8273177	-5.3892455	0.0	-2.375	-31.6875	38.6875	0.76828784	-1.0479827	0.15499675
1277478637309	1.7297841	4.944186	-6.782933	-1.2366257	0.0	-0.375	-29.6875	39.875	-1.7889823	-0.9132134	-0.33655208
1277478637349	5.284695	9.534244	-6.469665	2.869563	0.0	1.625	-28.6875	40.625	-2.544196	-0.53562474	-0.50612766
1277478637389	5.012288	10.228881	-7.6273947	3.902113	0.0	3.375	-28.9375	40.875	-2.4820848	-0.59003276	-0.4556264
1277478637429	1.879608	5.5162406	-6.428804	-1.129591	0.0	5.3125	-29.4375	40.125	-2.0514858	-0.8344044	-0.32840237
1277478637469	-5.134871	11.795221	-10.147159	6.578068	0.0	6.8125	-29.6875	39.1875	2.711848	-0.66785884	0.41059172
1277478637509	-4.440233	14.410328	-4.440233	5.9124107	0.0	8.0625	-30.1875	38.4375	3.099404	-0.2863726	0.29889736
1277478637549	3.636633	-0.23154591	1.0351465	-6.0184793	0.0	8.3125	-31.4375	37.1875	-2.3893094	0.2767779	-1.6343809
1277478637589	2.5333846	7.43671	-0.9942854	-1.8876038	0.0	7.8125	-33.125	36.1875	-2.6311133	-0.12588845	-0.32832938
1277478637629	-0.08172209	15.431854	-0.88532263	5.650795	0.0	7.3125	-35.375	34.25	-2.9236	-0.057306193	0.005295626
1277478637670	-2.4108016	6.701211	-2.6014864	-2.2247028	0.0	7.3125	-37.625	32.25	2.8151245	-0.35023215	0.34533966
1277478637709	-2.1383946	6.510526	-1.7978859	-2.7220135	0.0	7.5625	-38.875	30.3125	2.8913205	-0.25657845	0.31735083
1277478637749	0.27240697	8.962189	-1.1441092	-0.76762295	0.0	8.0625	-40.0625	28.0625	-2.7551935	-0.12691481	-0.030385785
1277478637779	2.8738933	10.651112	-1.2666923	1.2978506	0.0	9.8125	-41.0625	26.625	-2.4045122	-0.11431901	-0.26354495
1277478637819	2.9147544	9.152874	-1.3756552	-0.10287094	0.0	10.3125	-41.5625	24.875	-2.2850626	-0.14224407	-0.30829844
1277478637859	0.10896278	8.049625	-1.0351465	-1.6900091	0.0	11.25	-42.3125	23.125	-2.5490644	-0.12788212	-0.013535553
1277478637899	-1.2258313	8.62168	0.313268	-1.0926285	0.0	11.75	-42.8125	21.9375	-2.9074578	0.035957627	0.14123349
1277478637939	-0.38136974	8.240311	0.7627395	-1.5223322	0.0	10.75	-43.3125	20.4375	-2.7975154	0.09220086	0.04624799
1277478637979	-0.19068487	9.112013	-0.46309182	-0.68088436	0.0	11.25	-44.3125	18.5	-2.5748143	-0.050767336	0.020923702
1277478638019	0.53119355	10.269742	0.14982383	0.47791195	0.0	11.25	-44.8125	16.5	-2.4726987	0.014568353	-0.051678084
1277478638059	1.1441092	11.182305	-0.3405087	1.439188	0.0	12.25	-45.5625	14.3125	-2.2276058	-0.03028327	-0.10195947
1277478638099	1.0351465	11.34575	-1.1168685	1.6408377	0.0	13.5	-45.8125	12.3125	-1.9936152	-0.09771996	-0.090984605
1277478638139	4.0180025	12.067628	-1.4982382	3.0002508	0.0	13.75	-46.0625	11.0625	-1.798054	-0.11725529	-0.3214119
1277478638179	3.336985	11.876944	0.50395286	2.5404634	0.0	14.5	-46.5	10.8125	-2.0100975	0.04082678	-0.27390173
1277478638219	-4.5628166	11.454713	0.08172209	2.523655	0.0	13.75	-46.5	12.0625	2.7977424	0.006627791	0.3790705
1277478638259	-8.771504	14.560152	1.56634	7.263521	0.0	12.5	-46.0625	14.75	2.5368474	0.091888145	0.5422059
1277478638299	-1.334794	11.182305	-0.9125633	1.491952	0.0	10.0625	-45.3125	18.9375	-2.8454597	-0.08085588	0.1188045
1277478638339	5.47538	10.501288	-2.7240696	2.3456087	0.0	6.8125	-44.0625	23.125	-2.0724106	-0.22608264	-0.48062128
1277478638379	1.56634	9.084772	-2.6423476	-0.21662903	0.0	4.0625	-42.0625	27.0625	-2.4954116	-0.27914196	-0.17073521
1277478638419	-0.6946377	8.158588	-2.3018389	-1.3011494	0.0	1.625	-40.3125	30.5625	3.044634	-0.2740468	0.08493705
1277478638459	-0.29964766	6.6331096	-1.4165162	-3.0173607	0.0	0.375	-38.625	33.0	3.0851502	-0.21018396	0.045143846
1277478638499	0.61291564	3.990762	-1.6480621	-5.445692	0.0	0.625	-36.875	35.25	-2.8238347	-0.38754094	-0.15239285
1277478638539	1.0351465	3.255263	-1.920469	-5.8879175	0.0	0.875	-35.875	36.1875	-2.4763222	-0.5121746	-0.30788007
1277478638579	0.6537767	6.1291566	-4.5219555	-2.161909	0.0	2.375	-35.875	35.4375	-2.4613068	-0.63293266	-0.10626487
1277478638619	2.3018389	13.906375	-6.932757	5.9015913	0.0	4.5625	-35.875	34.0	-2.543888	-0.45709723	-0.16403669
1277478638659	1.3756552	11.958665	-6.0474343	3.6645613	0.0	6.3125	-36.625	32.5	-2.46537	-0.46555123	-0.114530765
1277478638699	-3.486809	11.182305	-6.428804	3.5549107	0.0	8.5625	-37.375	31.5	2.8318024	-0.50195664	0.30226055
1277478638739	-3.5957718	15.241169	1.0351465	5.8871174	0.0	9.5625	-37.875	31.5	-3.1236546	0.066007	0.2316883
1277478638779	-0.29964766	7.43671	-1.1168685	-2.280573	0.0	9.3125	-38.375	31.75	-2.847842	-0.14894998	0.04027126
1277478638819	1.0760075	5.8976107	2.3426998	-3.3702035	0.0	9.0625	-38.875	31.25	-2.7832355	0.37253112	-0.18046314
1277478638859	-0.5720546	11.985906	0.6946377	2.212988	0.0	9.8125	-39.5625	30.3125	-2.9032094	0.057824124	0.047691084
1277478638899	-1.607201	13.375181	-2.6423476	3.921444	0.0	10.3125	-40.3125	28.8125	-2.880659	-0.19368611	0.11958954
1277478638939	0.23154591	6.701211	-2.4108016	-2.6812167	0.0	10.75	-41.3125	27.0625	-2.3331938	-0.3451497	-0.034539107
1277478638979	-0.9125633	6.851035	0.6946377	-2.8602858	0.0	11.5	-42.0625	25.375	-2.946416	0.1001676	0.13242131
1277478639019	-0.38136974	8.894087	0.8036005	-0.8681946	0.0	11.75	-43.3125	23.625	-2.7961552	0.09002529	0.04285277
1277478639059	0.84446156	9.302697	-2.070293	-0.23902798	0.0	12.5	-44.0625	21.4375	-2.1886795	-0.21811055	-0.09052788
1277478639099	0.5720546	8.349273	-0.08172209	-1.4374037	0.0	14.25	-44.8125	18.75	-2.3854606	-0.009764725	-0.06840859
1277478639139	-1.3075534	9.302697	-0.6537767	-0.38978767	0.0	15.25	-45.8125	16.0	-2.5383291	-0.069482066	0.13964158
1277478639179	0.3405087	11.454713	-0.9942854	1.6961756	0.0	15.75	-45.8125	13.8125	-2.0929854	-0.08654637	-0.029717766
1277478639209	4.5628166	10.378705	-1.3075534	1.6059093	0.0	16.5	-46.0625	12.0625	-1.8017948	-0.11482359	-0.414199
1277478639249	4.1814466	10.528529	-2.2609777	1.7452517	0.0	16.5	-46.0625	11.3125	-1.6910299	-0.19699508	-0.37805045
1277478639289	4.8216033	12.299174	-0.53119355	3.4145346	0.0	17.0	-46.0625	10.8125	-1.8492249	-0.04018827	-0.3736139
1277478639319	-2.9147544	12.299174	2.5333846	3.084568	0.0	16.5	-46.0625	11.5625	-2.8871765	0.19780762	0.2326949
1277478639359	-9.765789	12.258313	0.42223078	5.8718433	0.0	15.5	-46.5	13.0625	2.2743874	0.026933828	0.6727051
1277478639399	-7.3141265	14.818938	2.3426998	6.8842354	0.0	13.25	-46.5	15.75	2.7692013	0.14082302	0.45848733
1277478639439	-1.525479	13.443283	-1.7297841	3.8330383	0.0	10.3125	-45.8125	19.4375	-2.778156	-0.12716234	0.112991855
1277478639479	4.099725	11.032481	-2.5333846	2.2325125	0.0	7.3125	-45.3125	22.6875	-2.1175137	-0.21201338	-0.3557909
1277478639539	0.38136974	7.8861814	-1.6480621	-1.7410812	0.0	4.0625	-44.0625	26.625	-2.7946746	-0.20578231	-0.048321597
1277478639579	-0.53119355	6.782933	-0.61291564	-2.9753976	0.0	2.375	-42.5625	29.3125	3.1039572	-0.08984311	0.078153744
1277478639619	-0.53119355	3.1463003	-0.6946377	-6.541088	0.0	1.375	-41.3125	32.5	2.9063947	-0.21435387	0.16725394
1277478639659	-0.08172209	1.334794	-2.2201166	-7.21488	0.0	1.875	-39.8125	34.25	0.034084894	-1.0286486	0.061148163
1277478639699	0.9942854	5.09401	-5.6252036	-2.152863	0.0	3.125	-39.125	34.75	-1.1908447	-0.8256031	-0.1927636
1277478639739	2.9556155	14.818938	-7.1234417	6.8990383	0.0	5.3125	-39.3125	34.75	-2.4454873	-0.44051808	-0.19686525
1277478639779	1.2666923	12.721405	-6.238119	4.4184256	0.0	8.0625	-39.3125	33.25	-2.4025612	-0.4539621	-0.0992446
1277478639819	-2.9556155	7.273266	-7.43671	1.0072632	0.0	9.8125	-39.3125	33.5	1.051232	-0.7583139	0.38598314
1277478639859	-3.6774938	14.982383	-0.61291564	5.6326313	0.0	11.25	-39.5625	32.5	-3.093164	-0.039708894	0.24069603
1277478639899	-3.486809	11.604536	-2.5333846	2.5724096	0.0	11.75	-39.3125	32.0	3.138994	-0.20610695	0.29188746
1277478639939	0.8036005	6.4424243	3.5276701	-2.4178028	0.0	11.5	-39.8125	31.25	-2.7978055	0.49772948	-0.12409478
1277478639979	0.7218784	7.5865335	1.3756552	-2.062683	0.0	11.25	-41.3125	29.3125	-2.7437675	0.17858998	-0.094866976
1277478640019	-0.95342433	11.876944	-1.6889231	2.227603	0.0	11.25	-42.3125	28.5625	-2.8030686	-0.14080784	0.08010346
1277478640059	-0.95342433	10.228881	-2.3426998	0.73029804	0.0	11.0	-43.5625	27.3125	-2.7505205	-0.2242056	0.092940524
1277478640099	-0.61291564	6.5922484	-0.19068487	-3.1832247	0.0	10.75	-44.8125	25.875	-2.8806734	-0.028793443	0.09270868
1277478640139	-0.08172209	8.662541	1.4982382	-1.0151186	0.0	11.25	-45.3125	24.375	-2.8131704	0.1712542	0.009433683
1277478640179	0.5720546	9.275456	-2.5606253	-0.16724396	0.0	11.0	-45.8125	22.1875	-2.1699588	-0.26886916	-0.061596
1277478640219	0.5720546	8.771504	-0.9125633	-0.9692688	0.0	11.75	-46.75	19.6875	-2.3587754	-0.10344613	-0.06512517
1277478640259	1.5390993	9.615966	-1.1168685	-0.0044555664	0.0	12.75	-47.5	17.5	-2.1189845	-0.11418865	-0.1587105
1277478640289	0.23154591	11.032481	-1.6889231	1.35676	0.0	13.25	-48.25	15.0	-2.0589035	-0.15187414	-0.020984575
1277478640329	3.214402	10.800936	-0.8036005	1.491065	0.0	14.25	-48.5	13.3125	-1.9280316	-0.07118959	-0.2892572
1277478640369	5.5571017	10.760075	-1.56634	2.4045744	0.0	15.0	-48.0	12.0625	-1.7764618	-0.12862489	-0.47672534
1277478640409	2.5606253	13.443283	1.1168685	3.923829	0.0	15.0	-47.75	11.5625	-2.1389933	0.081432246	-0.1882215
1277478640449	-5.8567495	10.95076	1.2666923	2.6763449	0.0	15.0	-47.5	11.8125	2.6397283	0.101648375	0.4911186
1277478640489	-8.880466	12.9529505	1.334794	5.9547997	0.0	14.0	-47.5	14.3125	2.4434745	0.08478882	0.60099196
1277478640529	-5.8158884	13.021052	1.1441092	4.500039	0.0	11.25	-47.5	17.5	2.7374983	0.08005572	0.42006683
1277478640569	3.6774938	12.026767	-2.6832085	3.052847	0.0	8.0625	-47.0	21.4375	-2.083604	-0.2102003	-0.2967472
1277478640609	6.5513873	10.760075	-2.6423476	3.0650978	0.0	4.5625	-46.0625	26.125	-2.1440215	-0.20675258	-0.54690933
1277478640649	0.42223078	7.8589406	-1.2666923	-1.8350921	0.0	1.875	-44.5625	29.0625	-2.9470718	-0.15957789	-0.053674564
1277478640689	-1.9885708	6.891896	-0.14982383	-2.6320362	0.0	-0.125	-43.3125	31.75	2.7673106	-0.020884011	0.28090793
1277478640729	-1.0760075	4.7943625	-0.0	-4.893026	0.0	-0.375	-41.5625	33.75	2.868105	-0.0	0.22077356
1277478640769	0.27240697	2.6014864	-1.2666923	-6.900373	0.0	-0.625	-40.3125	34.25	-2.8793159	-0.4509792	-0.104331836
1277478640802	0.19068487	4.3312707	-3.718355	-4.0950456	0.0	0.875	-40.0625	34.25	-1.5582031	-0.7089242	-0.043996744
1277478640839	1.1441092	12.980191	-6.469665	4.741577	0.0	3.5625	-40.0625	33.5	-2.623526	-0.46084452	-0.0879155
1277478640879	0.14982383	15.322891	-5.6660647	6.530966	0.0	6.0625	-40.5625	32.0	-2.7572186	-0.35416892	-0.009777466
1277478640929	-2.9147544	4.2904096	-7.04172	-1.0608377	0.0	8.5625	-41.0625	31.5	0.9058079	-0.93593395	0.59674233
1277478640969	-1.879608	17.502148	-0.9942854	7.824196	0.0	9.5625	-41.0625	31.0625	-2.9646604	-0.056424584	0.10698296
1277478640999	-1.4573772	12.217452	0.95342433	2.5343018	0.0	10.0625	-41.3125	30.3125	-2.9904878	0.07733401	0.1187255
1277478641039	-0.0	4.399372	1.4982382	-5.159157	0.0	9.5625	-41.5625	30.5625	-2.919416	0.32823795	0.0
1277478641079	-0.8036005	6.0201936	2.5333846	-3.2258797	0.0	8.8125	-42.0625	29.5625	-3.0693233	0.39517286	0.13269971
1277478641119	-1.525479	12.026767	0.46309182	2.3253174	0.0	9.3125	-42.8125	28.5625	-3.014783	0.03818048	0.12616658
1277478641159	0.8036005	11.495573	-2.6014864	2.0069733	0.0	9.3125	-43.8125	27.0625	-2.5111725	-0.22203049	-0.06979168
1277478641189	-0.46309182	7.205164	-0.38136974	-2.5765543	0.0	9.0625	-44.8125	24.875	-2.8734088	-0.052772023	0.064183936
1277478641229	-1.920469	7.9270425	1.7297841	-1.4688835	0.0	9.3125	-45.8125	23.125	3.087916	0.20898156	0.23768839
1277478641269	-0.50395286	8.962189	-0.61291564	-0.8094034	0.0	8.8125	-47.0	20.9375	-2.8059547	-0.068175375	0.05617185
1277478641309	1.920469	9.534244	-1.56634	0.04441166	0.0	9.0625	-47.5	18.75	-2.1285052	-0.15967987	-0.19876881
1277478641349	1.2258313	10.038197	-0.88532263	0.34479523	0.0	10.5625	-48.5	16.0	-2.1976447	-0.08732242	-0.121515036
1277478641389	0.040861044	10.56939	-1.7297841	0.90343094	0.0	12.0	-49.25	13.5625	-1.9903703	-0.16222045	-0.0038659598
1277478641429	4.2086873	10.119919	-0.7627395	1.1800499	0.0	13.25	-49.25	11.8125	-1.8515093	-0.06947978	-0.39412194
1277478641469	4.7535014	9.724928	-2.0294318	1.20646	0.0	14.0	-49.0	11.3125	-1.6916125	-0.18533334	-0.45464393
1277478641509	3.255263	12.489859	-0.53119355	3.1113787	0.0	14.75	-48.75	12.0625	-1.9395065	-0.04113192	-0.25496042
1277478641549	-3.1463003	11.917805	2.2201166	2.7178135	0.0	14.75	-48.75	13.5625	-3.060515	0.1782041	0.25811112
1277478641579	-9.084772	16.3989	2.1792557	9.066772	0.0	12.75	-48.5	16.0	2.6203015	0.11572504	0.50589883
1277478641609	-7.04172	14.7916975	-1.1441092	6.6155643	0.0	10.0625	-48.5	19.1875	2.5013397	-0.06972487	0.44431198
1277478641649	0.23154591	11.795221	-2.2201166	2.1979237	0.0	6.5625	-47.75	22.4375	-2.626453	-0.18601002	-0.019627964
1277478641689	6.510526	10.732834	-1.879608	2.886403	0.0	3.125	-46.3125	25.625	-2.207076	-0.14862823	-0.5452576
1277478641729	1.9477097	7.9270425	-1.7297841	-1.4625664	0.0	1.125	-44.8125	28.3125	-2.5800073	-0.208821	-0.24093173
1277478641770	-1.3756552	6.469665	-0.14982383	-3.1906514	0.0	-0.125	-43.0625	30.5625	2.8440084	-0.022647623	0.2095113
1277478641809	-1.920469	4.7535014	0.6537767	-4.638343	0.0	-1.375	-41.3125	32.5	2.7166808	0.12683706	0.38395977
1277478641849	-0.50395286	2.1111538	-1.2666923	-7.2935944	0.0	-0.625	-40.3125	34.5	2.3630738	-0.5282755	0.23432457
1277478641889	0.6537767	4.440233	-5.366417	-2.8108277	0.0	1.875	-39.8125	35.25	-0.8029641	-0.8742909	-0.14618888
1277478641929	-0.19068487	16.167353	-6.0201936	7.446245	0.0	4.5625	-40.0625	34.5	-2.922124	-0.3564378	0.011793893
1277478641969	-3.1054392	13.143636	-4.2086873	4.339443	0.0	8.3125	-40.8125	33.25	3.0748174	-0.30208963	0.2320146
1277478642009	-5.6660647	9.466142	-6.3607025	2.9279747	0.0	10.3125	-41.3125	31.5	2.082003	-0.5229995	0.5393608
1277478642049	-3.568531	17.393185	-0.3405087	7.952099	0.0	10.0625	-42.0625	30.8125	-3.0948133	-0.019175313	0.20236015
1277478642089	1.9885708	4.630918	4.2086873	-3.2406116	0.0	9.8125	-41.5625	31.5	-2.6384308	0.6957719	-0.40560153
1277478642129	5.7477865	5.134871	4.8216033	-0.71534634	0.0	8.5625	-41.5625	32.5	-2.3846695	0.55901724	-0.8416591
1277478642169	1.8387469	15.4046135	-1.3075534	5.7623196	0.0	8.0625	-42.0625	31.25	-2.7032285	-0.08408362	-0.11880131
1277478642209	-5.202973	9.656827	-3.0237172	1.5717554	0.0	8.3125	-42.0625	29.8125	2.5257523	-0.26897323	0.49419364
1277478642249	-2.7513103	6.782933	-0.5720546	-2.4646382	0.0	8.3125	-43.3125	27.5625	2.7997737	-0.077994294	0.38534397
1277478642289	1.56634	9.00305	1.7297841	-0.50608635	0.0	8.8125	-44.5625	25.125	-2.6770923	0.18707632	-0.17225465
1277478642329	2.4108016	8.390134	-1.8387469	-0.885479	0.0	9.0625	-45.8125	23.875	-2.1767855	-0.20759842	-0.27979988
1277478642369	-0.0	8.771504	-0.84446156	-0.9945898	0.0	9.3125	-47.0	21.6875	-2.6425104	-0.095977485	0.0
1277478642409	1.56634	10.378705	-1.334794	0.7741165	0.0	10.5625	-48.0	19.1875	-2.2157538	-0.1264899	-0.14978825
1277478642449	1.8387469	9.575105	-1.3756552	0.03997612	0.0	11.75	-48.5	16.25	-2.011094	-0.1401668	-0.18972448
1277478642489	1.9477097	9.425281	-0.9125633	-0.13906193	0.0	13.0	-48.75	13.8125	-1.9685025	-0.094534844	-0.20377904
1277478642529	6.8237944	10.760075	-0.7627395	2.9575634	0.0	14.25	-49.0	12.5625	-1.8390973	-0.059791707	-0.5651714
1277478642569	0.7627395	14.056199	0.50395286	4.2792463	0.0	14.25	-49.25	12.3125	-2.2639637	0.035784762	-0.0542104
1277478642599	-7.9270425	13.102775	0.23154591	5.5091696	0.0	13.5	-49.25	13.8125	2.37763	0.015118662	0.54408026
1277478642639	-7.7772183	14.628253	1.607201	6.8382893	0.0	12.0	-49.25	16.5	2.607287	0.0967086	0.4886516
1277478642679	-4.2904096	13.184497	-1.7978859	4.1744432	0.0	9.0625	-48.75	20.4375	2.7073543	-0.12895116	0.3146056
1277478642733	4.903325	11.876944	-1.334794	3.1117887	0.0	6.0625	-47.5	24.875	-2.2819557	-0.10350945	-0.39152953
1277478642770	1.7297841	8.349273	-2.0294318	-1.0418854	0.0	3.125	-45.8125	29.0625	-2.5409386	-0.23366489	-0.2042877
1277478642809	-1.334794	6.66035	-0.38136974	-3.0031676	0.0	0.875	-43.5625	32.5	2.8906422	-0.056084473	0.19778879
1277478642849	-1.9885708	4.944186	0.6946377	-4.432461	0.0	0.875	-42.0625	34.5	2.779533	0.12961705	0.3824048
1277478642889	-0.6537767	3.3778462	-0.7627395	-6.282584	0.0	1.125	-40.3125	35.25	2.8927786	-0.21816385	0.19118446
1277478642929	0.84446156	3.3778462	-3.3642259	-4.9650617	0.0	3.125	-39.8125	35.0	-1.4810759	-0.7682252	-0.24497867
1277478642979	0.10896278	16.208214	-6.238119	7.560911	0.0	6.0625	-40.0625	34.0	-2.7917893	-0.36739147	-0.006722588
1277478643019	-3.214402	12.53072	-5.434519	4.2249327	0.0	9.0625	-40.5625	32.5	3.0481246	-0.39770794	0.25110728
1277478643059	-6.4015636	14.437569	-6.3607025	7.219269	0.0	12.0	-41.5625	31.25	2.7163162	-0.38287556	0.41734868
1277478643099	-2.1383946	16.657684	-1.3075534	7.038553	0.0	13.25	-42.0625	30.3125	-2.859355	-0.07769986	0.12767458
1277478643139	3.2961242	2.7649305	4.903325	-3.2834706	0.0	13.0	-42.3125	30.0625	-2.2479749	0.85060143	-0.8728153
1277478643179	2.2609777	2.6832085	4.5219555	-4.08304	0.0	12.25	-42.3125	29.8125	-2.3692684	0.91089547	-0.7002054
1277478643209	-2.3426998	14.519291	1.7297841	5.0018005	0.0	11.75	-42.3125	28.8125	-2.9984226	0.11707789	0.1599721
1277478643239	-3.8681788	13.824653	-6.3198414	5.8785095	0.0	11.75	-42.8125	27.5625	3.1115425	-0.41470343	0.272826
1277478643288	-0.46309182	7.4639506	-1.607201	-2.1575909	0.0	11.75	-43.3125	26.125	-2.6351206	-0.2116951	0.061964363
1277478643349	-0.88532263	9.00305	-0.23154591	-0.75721264	0.0	11.5	-43.8125	23.875	-2.836453	-0.025589567	0.09802072
1277478643389	0.95342433	8.539958	-0.7627395	-1.1798506	0.0	10.75	-45.0625	22.1875	-2.4315894	-0.08853072	-0.11118234
1277478643419	1.2258313	9.80665	0.27240697	0.080070496	0.0	10.75	-46.0625	19.4375	-2.4710538	0.0275563	-0.124354996
1277478643459	-0.040861044	10.228881	-2.070293	0.6297178	0.0	11.25	-47.25	16.5	-2.1213527	-0.19969758	0.0039946525
1277478643499	0.7627395	10.119919	-0.8036005	0.3737383	0.0	12.75	-48.25	14.75	-2.162527	-0.07901834	-0.07522789
1277478643539	4.5628166	9.575105	-0.9125633	0.8392267	0.0	14.5	-48.75	13.5625	-1.8637743	-0.08582521	-0.44469526
1277478643579	6.973618	11.114203	-2.7240696	3.5939999	0.0	15.25	-49.0	13.3125	-1.72973	-0.20470561	-0.5603599
1277478643619	2.6014864	12.980191	0.313268	3.4353752	0.0	15.75	-48.75	13.8125	-2.1068702	0.023659313	-0.19779912
1277478643649	-4.944186	11.304889	1.3756552	2.6085787	0.0	14.75	-48.75	15.25	2.8593447	0.111031845	0.41228402
1277478643679	-9.534244	14.628253	2.3426998	7.810837	0.0	13.0	-48.75	17.25	2.5512261	0.13337086	0.5776179
1277478643719	-8.539958	14.369467	-0.53119355	6.9174232	0.0	10.5625	-48.25	19.6875	2.4335868	-0.031767555	0.5362272
1277478643759	-0.9942854	11.264028	-1.4165162	1.5895529	0.0	8.0625	-47.5	23.125	-2.918318	-0.124619514	0.08804267
1277478643799	5.8567495	9.534244	-1.607201	1.4976149	0.0	5.3125	-46.5	25.875	-2.185425	-0.14265993	-0.55085754
1277478643839	1.5390993	7.5456724	-2.9556155	-1.5579128	0.0	2.875	-45.3125	28.3125	-2.3056731	-0.36645842	-0.20121102
1277478643879	-0.14982383	6.3607025	-0.84446156	-3.3883872	0.0	1.625	-44.0625	31.25	-3.118284	-0.13195427	0.023550248
1277478643922	-0.6946377	4.944186	-0.0	-4.8139057	0.0	0.625	-42.5625	32.75	2.981069	-0.0	0.13958225
1277478643959	-0.42223078	4.440233	-2.0294318	-4.9063907	0.0	1.625	-41.8125	34.0	2.9717147	-0.42700636	0.09480695
1277478643999	-0.08172209	6.932757	-3.8273177	-1.8871703	0.0	3.8125	-41.3125	33.75	-2.8068886	-0.5043962	0.011787273
1277478644039	-1.4573772	13.293459	-6.0474343	4.8702517	0.0	5.8125	-41.8125	32.0	-3.0382102	-0.4246891	0.10919507
1277478644079	0.6946377	13.484144	-4.3312707	4.3730736	0.0	8.5625	-42.8125	30.5625	-2.5548975	-0.31041646	-0.05146965
1277478644119	-2.4925237	13.797412	-8.076866	6.374111	0.0	9.5625	-43.5625	29.5625	-2.6823773	-0.52263457	0.17872396
1277478644159	-4.0180025	14.601013	-0.7627395	5.3563213	0.0	9.5625	-44.0625	29.8125	3.0520096	-0.050324008	0.26853964
1277478644189	0.7218784	3.405087	2.4108016	-5.57254	0.0	9.8125	-43.0625	31.0625	-2.7757008	0.6057468	-0.20890693
1277478644229	2.6832085	4.671779	2.6832085	-3.7879515	0.0	9.3125	-42.5625	32.0	-2.5442154	0.46208125	-0.52134115
1277478644269	1.7297841	14.669114	1.879608	5.083212	0.0	9.8125	-42.3125	31.75	-2.760194	0.12657176	-0.11737809
1277478644327	-3.759216	11.304889	-2.9556155	2.4680338	0.0	10.5625	-42.3125	30.3125	2.9677227	-0.24317925	0.3210275
1277478644369	-2.070293	7.7363577	1.2666923	-1.6985149	0.0	11.0	-44.0625	28.0625	3.119636	0.15686741	0.2614788
1277478644399	-0.38136974	8.008764	2.2201166	-1.4871149	0.0	11.5	-45.3125	25.375	-2.892463	0.2701291	0.047583107
1277478644440	1.6889231	9.043911	-2.6832085	-0.22310162	0.0	11.25	-46.0625	22.6875	-2.0313056	-0.283774	-0.18462041
1277478644479	2.0294318	8.921328	-0.27240697	-0.65335083	0.0	11.25	-47.0	20.6875	-2.3070402	-0.029764917	-0.22367455
1277478644519	1.1441092	9.00305	-1.2258313	-0.6487818	0.0	11.5	-47.75	18.0	-2.1616874	-0.1342585	-0.12640265
1277478644559	0.23154591	10.310603	-1.525479	0.61876297	0.0	12.5	-48.25	15.5	-2.1202543	-0.14685035	-0.022453291
1277478644599	2.152015	9.997335	-0.08172209	0.42000866	0.0	13.75	-48.75	13.5625	-2.0790915	-0.007991169	-0.21202357
1277478644639	7.1234417	9.847511	-2.1383946	2.5339184	0.0	15.5	-48.5	11.5625	-1.719799	-0.1741608	-0.62624216
1277478644679	5.7477865	13.021052	-0.6946377	4.4435215	0.0	16.25	-47.75	11.5625	-1.8486202	-0.048765242	-0.41569808
1277478644719	-4.944186	12.980191	1.4982382	4.1638565	0.0	16.0	-47.5	12.5625	3.032528	0.10744958	0.36393532
1277478644759	-9.997335	13.021052	1.920469	6.72159	0.0	14.5	-47.75	14.3125	2.4115963	0.11645625	0.6547851
1277478644799	-6.2789803	13.0619135	-0.53119355	4.6958103	0.0	11.25	-48.0	17.75	2.5533001	-0.03663602	0.44809613
1277478644839	0.42223078	12.299174	-1.1441092	2.5528383	0.0	7.5625	-48.0	21.4375	-2.643565	-0.09270202	-0.034316532
1277478644869	4.140586	10.841797	-1.879608	1.9501324	0.0	3.5625	-47.5	25.125	-2.2943614	-0.16056338	-0.36481455
1277478644909	0.95342433	8.430995	-2.6832085	-0.9077568	0.0	0.625	-45.8125	28.5625	-2.738508	-0.30628812	-0.11260723
1277478644949	-1.2258313	6.5922484	-0.10896278	-3.100513	0.0	-0.875	-44.8125	31.25	2.853356	-0.016248934	0.18385056
1277478644999	-0.6537767	3.6774938	-0.14982383	-6.068491	0.0	-1.375	-43.5625	32.75	2.859796	-0.04009032	0.17593963
1277478645039	0.9942854	2.152015	-2.9556155	-6.0177937	0.0	-0.375	-42.3125	34.0	-1.1021032	-0.89479554	-0.43280905
1277478645079	2.6423476	6.5513873	-5.8158884	-0.65639114	0.0	1.375	-42.0625	33.75	-1.663916	-0.68878317	-0.38337067
1277478645119	0.84446156	17.052675	-5.5162406	8.135918	0.0	3.5625	-41.8125	32.5	-2.8408635	-0.31250027	-0.049480345
1277478645159	-2.3018389	8.499097	-5.366417	0.5050688	0.0	6.5625	-42.0625	31.75	2.4001026	-0.5473418	0.2644884
1277478645199	-4.372132	10.038197	-6.891896	3.1308594	0.0	8.3125	-42.3125	30.8125	1.945084	-0.5617954	0.41077217
1277478645239	-4.4810944	18.0061	0.19068487	8.749647	0.0	9.5625	-42.5625	30.5625	3.1093762	0.0102762	0.24391048
1277478645279	0.50395286	4.5219555	4.6036777	-3.3339458	0.0	9.5625	-42.5625	30.5625	3.1093762	0.0102762	0.24391048
1277478645309	1.334794	2.4925237	4.2086873	-4.736404	0.0	9.0625	-42.8125	30.3125	-2.5785818	0.97924316	-0.49165753
1277478645339	-0.46309182	12.299174	3.255263	2.924448	0.0	9.0625	-43.3125	29.3125	-2.9557154	0.2585653	0.03763449
1277478645379	-0.50395286	14.9006605	-2.6014864	5.327793	0.0	9.3125	-44.3125	28.0625	-2.7689595	-0.17274971	0.033807956
1277478645419	-2.1383946	6.782933	-2.070293	-2.3994222	0.0	9.0625	-45.5625	26.625	2.7615325	-0.28326946	0.3053983
1277478645459	-3.445948	7.8180795	1.1168685	-1.190136	0.0	8.3125	-46.3125	25.125	2.7968988	0.12998526	0.41514888
1277478645489	0.040861044	9.084772	2.2201166	-0.4544487	0.0	7.8125	-47.25	23.625	-2.9108407	0.23967788	-0.004497721
1277478645519	2.8738933	9.847511	-1.3756552	0.54347897	0.0	7.5625	-48.0	21.6875	-2.2180617	-0.13330637	-0.28395343
1277478645559	2.7921712	9.656827	-3.486809	0.833292	0.0	7.8125	-48.5	19.4375	-1.7503209	-0.33387807	-0.2814636
1277478645599	2.9556155	8.240311	-0.38136974	-1.0440121	0.0	9.0625	-49.25	17.25	-2.1186175	-0.043536004	-0.3443845
1277478645639	1.879608	11.032481	-1.607201	1.4996166	0.0	10.3125	-50.0	14.5625	-1.9618826	-0.1426345	-0.1687501
1277478645679	2.3426998	10.651112	-1.1168685	1.1560965	0.0	10.75	-50.25	13.3125	-1.9497322	-0.102055594	-0.2165015
1277478645719	4.399372	10.269742	-1.9885708	1.5413227	0.0	11.75	-50.5	12.0625	-1.7180688	-0.17614524	-0.40473172
1277478645759	2.9147544	13.0619135	0.50395286	3.58601	0.0	11.25	-50.75	11.5625	-2.1147525	0.03763792	-0.21955204
1277478645799	-3.2961242	10.991621	2.4925237	1.9361286	0.0	10.75	-50.75	12.3125	2.9576373	0.21388721	0.2913431
1277478645829	-10.419566	14.519291	1.4573772	8.123802	0.0	9.0625	-50.25	14.0625	2.2515059	0.0813692	0.6224644
1277478645869	-8.430995	14.669114	0.313268	7.1156063	0.0	6.3125	-49.75	17.5	2.3306108	0.018513247	0.5216424
1277478645909	1.9477097	11.454713	-2.070293	1.9954748	0.0	3.375	-48.5	20.9375	-2.392654	-0.1763293	-0.16842481
1277478645949	7.3141265	9.724928	-2.2201166	2.5626507	0.0	-0.875	-47.0	25.125	-2.146468	-0.18046397	-0.6448443
1277478645990	1.334794	8.117727	-1.9885708	-1.3429871	0.0	-3.375	-45.3125	29.0625	-2.9171283	-0.23717114	-0.1629712
1277478646029	-1.920469	6.5513873	-0.19068487	-2.9769182	0.0	-5.3125	-43.0625	32.25	2.636469	-0.027923446	0.28515077
1277478646069	-0.95342433	4.440233	-0.3405087	-5.2524614	0.0	-5.8125	-41.3125	35.0	2.7195687	-0.07483809	0.21151227
1277478646109	0.9942854	2.1111538	-2.7513103	-6.1989803	0.0	-4.0625	-40.0625	36.1875	-1.1777682	-0.8673663	-0.44015324
1277478646149	2.0294318	6.0882955	-6.3607025	-0.77091694	0.0	-2.375	-40.0625	36.1875	-1.4201298	-0.78094345	-0.32175055
1277478646179	0.10896278	16.249075	-5.7886477	7.4430676	0.0	0.625	-40.5625	35.4375	-3.0962582	-0.34222007	-0.006705683
1277478646209	-2.5333846	14.47843	-4.862464	5.6751623	0.0	4.0625	-41.3125	34.75	2.9868252	-0.31948313	0.17322284
1277478646249	-2.8330324	5.325556	-5.8158884	-1.4273796	0.0	5.8125	-41.3125	34.25	1.3937501	-0.7671419	0.4888948
1277478646279	-5.012288	15.050485	-4.630918	6.718649	0.0	7.5625	-40.8125	34.0	2.8770483	-0.2840358	0.32147902
1277478646319	-2.9147544	14.601013	-1.1849703	5.129532	0.0	8.3125	-40.5625	33.75	-3.1346433	-0.07941902	0.19703674
1277478646359	1.920469	4.5628166	3.173541	-3.926271	0.0	8.0625	-40.3125	33.5	-2.6816232	0.57006055	-0.39838898
1277478646399	3.9499009	8.730643	4.440233	0.75467205	0.0	7.8125	-41.0625	33.0	-2.644493	0.43391255	-0.424863
1277478646439	-1.56634	11.958665	-0.7627395	2.2782516	0.0	7.8125	-42.5625	32.0	-3.0657766	-0.06315705	0.13023812
1277478646479	-5.47538	7.205164	-1.56634	-0.62255573	0.0	7.8125	-43.5625	30.5625	2.4308581	-0.171387	0.64982253
1277478646519	-2.9147544	8.349273	1.0351465	-0.9028492	0.0	7.8125	-44.5625	28.5625	2.9270735	0.11652245	0.3358753
1277478646559	1.4573772	9.888372	1.2258313	0.2634306	0.0	7.8125	-46.0625	26.875	-2.7185419	0.122032695	-0.14632948
1277478646599	2.9556155	9.697687	-2.5333846	0.6431742	0.0	7.0625	-46.75	24.625	-2.1573758	-0.2448731	-0.29583204
1277478646639	0.7218784	9.00305	-1.7570249	-0.6053915	0.0	6.8125	-47.75	22.6875	-2.467813	-0.1921348	-0.08001037
1277478646679	2.4925237	9.152874	-1.56634	-0.19201565	0.0	7.0625	-48.75	20.4375	-2.1489093	-0.16364144	-0.26587424
1277478646719	1.5390993	9.425281	-1.2258313	-0.17818165	0.0	7.8125	-49.0	18.25	-2.2304819	-0.12765968	-0.16186616
1277478646759	1.8387469	10.95076	-0.88532263	1.3326464	0.0	8.5625	-49.75	17.0	-2.238683	-0.07956134	-0.16635859
1277478646799	4.4810944	10.991621	-1.6889231	2.1828623	0.0	9.0625	-50.25	15.75	-1.9056273	-0.14133678	-0.38711184
1277478646829	0.42223078	11.604536	-3.1054392	2.2136364	0.0	9.3125	-50.25	15.0	-1.7139482	-0.26131365	-0.036368936
1277478646869	0.3405087	11.073342	0.08172209	1.2722273	0.0	9.3125	-50.0	15.5	-2.5420094	0.0073764543	-0.030740622
1277478646909	-2.8330324	11.985906	1.7978859	2.6400528	0.0	8.8125	-49.25	17.0	3.0275793	0.14495385	0.23210384
1277478646949	-8.62168	16.04477	-0.19068487	8.408848	0.0	5.8125	-48.5	19.4375	2.3867154	-0.010468467	0.49308044
1277478646989	-0.14982383	12.680544	-3.173541	3.2658396	0.0	2.625	-47.75	23.125	-2.9536412	-0.24521494	0.011814703
1277478647029	4.372132	9.765789	-1.8387469	1.0500145	0.0	-1.375	-46.75	26.375	-2.3787606	-0.17018607	-0.42093858
1277478647069	0.92618364	7.9270425	-1.3756552	-1.7079935	0.0	-4.8125	-45.5625	29.0625	-3.1172664	-0.17068978	-0.11631113
1277478647109	-0.95342433	7.668256	-1.6480621	-1.9055567	0.0	-6.0625	-44.0625	32.0	2.667716	-0.21012951	0.12369911
1277478647149	-0.61291564	5.09401	0.040861044	-4.675737	0.0	-6.8125	-42.5625	34.0	2.8092566	0.007963781	0.11974522
1277478647189	0.040861044	3.486809	-0.6946377	-6.251087	0.0	-6.8125	-41.0625	35.25	2.9073725	-0.19663107	-0.0117182145
1277478647229	0.8036005	5.09401	-4.140586	-3.1930914	0.0	-5.0625	-40.0625	35.9375	-2.7177503	-0.6765098	-0.15646458
1277478647269	0.50395286	13.143636	-6.1700177	4.721882	0.0	-2.875	-39.8125	35.25	3.0518274	-0.4386115	-0.038323198
1277478647309	0.5720546	12.108489	-6.0474343	3.7400913	0.0	-0.125	-40.0625	34.0	-3.0018904	-0.46275213	-0.047208995
1277478647353	-0.88532263	3.445948	-7.9270425	-1.1177864	0.0	2.375	-40.5625	33.5	0.33119082	-1.1489197	0.2514781
1277478647389	-5.706926	17.815414	-3.568531	9.237835	0.0	3.8125	-41.0625	32.75	2.7949162	-0.18849292	0.31000808
1277478647429	0.7627395	12.980191	2.4925237	3.4326782	0.0	4.8125	-40.8125	33.25	-2.9647214	0.1893969	-0.05869431
1277478647469	4.0180025	3.568531	3.8273177	-3.2091417	0.0	5.0625	-41.0625	34.0	-2.4521167	0.6188706	-0.8445749
1277478647509	1.8387469	10.119919	0.42223078	0.4876213	0.0	5.5625	-41.5625	33.0	-2.7847307	0.041027598	-0.17973505
1277478647549	-3.1463003	10.651112	-1.1441092	1.358222	0.0	5.5625	-42.3125	32.25	2.9063954	-0.10265421	0.287228
1277478647579	-4.9850473	9.765789	-1.879608	1.3178387	0.0	5.8125	-43.8125	31.0625	2.5827699	-0.16977571	0.47198075
1277478647609	-2.070293	10.18802	-0.61291564	0.6076441	0.0	5.5625	-44.8125	29.5625	3.0130203	-0.058887333	0.20047882
1277478647649	1.879608	8.390134	0.27240697	-1.2042389	0.0	5.5625	-45.8125	28.3125	-2.6617632	0.031671643	-0.22038718
1277478647689	2.9147544	7.4639506	-1.2666923	-1.6942606	0.0	5.5625	-46.3125	26.625	-2.3049443	-0.15678446	-0.3722995
1277478647729	0.10896278	9.956474	-1.607201	0.27929783	0.0	5.8125	-47.0	23.875	-2.7669897	-0.16003272	-0.010943475
1277478647769	0.3405087	8.853226	-0.50395286	-0.9325571	0.0	6.8125	-47.75	20.9375	-2.6984391	-0.056819793	-0.03844259
1277478647809	0.6537767	9.234595	-1.8387469	-0.36810398	0.0	8.0625	-48.25	18.5	-2.23047	-0.1960663	-0.07067854
1277478647852	2.7649305	10.310603	-0.88532263	0.9048939	0.0	10.0625	-49.5	16.5	-2.0841446	-0.08274565	-0.2619996
1277478647889	8.308413	13.143636	-1.2258313	5.791027	0.0	11.25	-49.75	15.0	-1.8948	-0.07867176	-0.5637061
1277478647929	1.2666923	13.375181	1.0760075	3.6713982	0.0	12.0	-49.5	14.75	-2.4111226	0.07991912	-0.09442306
1277478647969	-10.106298	12.14935	-0.6946377	6.011899	0.0	11.0	-49.75	15.75	2.102708	-0.043926988	0.6938555
1277478648009	-7.3958488	13.402422	1.607201	5.58512	0.0	8.3125	-49.0	18.25	2.5232847	0.10461019	0.5042466
1277478648049	-0.19068487	12.108489	-2.4925237	2.55719	0.0	4.8125	-48.0	22.6875	-2.828549	-0.202989	0.01574673
1277478648089	6.742072	11.75436	-2.1792557	3.9181328	0.0	0.625	-47.0	26.875	-2.2697363	-0.15945742	-0.52076685
1277478648129	2.2201166	9.697687	-2.4925237	0.44940758	0.0	-2.375	-45.3125	30.8125	-2.752657	-0.24548768	-0.22505437
1277478648169	-1.1168685	7.5456724	-0.50395286	-2.16214	0.0	-4.3125	-43.0625	33.5	2.8095737	-0.06597134	0.1469475
1277478648209	-1.56634	4.8216033	0.27240697	-4.729694	0.0	-5.8125	-41.5625	35.0	2.6804936	0.053681344	0.3141041
1277478648249	-0.61291564	3.0645783	-0.95342433	-6.5391855	0.0	-5.3125	-40.3125	36.1875	2.630413	-0.29610124	0.19739555
1277478648289	0.88532263	3.1054392	-3.6774938	-4.9126225	0.0	-3.8125	-39.8125	36.1875	-0.90631306	-0.8502189	-0.2777203
1277478648329	3.0237172	10.841797	-5.09401	2.5479584	0.0	-2.125	-40.3125	35.25	-2.636083	-0.42499536	-0.27198327
1277478648369	0.42223078	16.249075	-5.325556	7.298094	0.0	0.875	-41.0625	34.25	-3.0437305	-0.31661293	-0.025979064
1277478648409	-2.6014864	5.597963	-6.510526	-0.83492374	0.0	3.8125	-41.5625	33.0	1.1787733	-0.8120098	0.4350276
1277478648449	-5.938472	13.525005	-2.5606253	5.184948	0.0	5.3125	-42.0625	32.5	2.6938155	-0.17164563	0.4137304
1277478648489	-0.53119355	14.601013	1.1441092	4.84875	0.0	6.8125	-42.0625	32.75	-2.9958024	0.078146935	0.036364555
1277478648529	1.8387469	0.95342433	3.568531	-5.680584	0.0	7.3125	-41.8125	32.75	-2.1669898	1.0449011	-1.0924438
1277478648569	2.5606253	8.853226	3.3778462	0.008962631	0.0	6.8125	-42.8125	32.0	-2.7410476	0.35131198	-0.28154773
1277478648609	-1.9477097	14.7916975	-1.3756552	5.176017	0.0	7.0625	-43.3125	30.8125	-3.0910764	-0.09194594	0.13092266
1277478648649	-3.173541	8.19945	-1.525479	-0.8831177	0.0	7.0625	-44.0625	29.5625	2.7354455	-0.1717939	0.36928704
1277478648679	-1.0760075	8.158588	0.23154591	-1.5741558	0.0	6.8125	-45.5625	27.0625	-3.1135013	0.028129563	0.1311297
1277478648719	0.23154591	8.349273	2.3018389	-1.1427927	0.0	6.8125	-46.0625	24.875	-2.9215975	0.26891223	-0.027725358
1277478648759	0.5720546	7.6954966	-1.525479	-1.9405837	0.0	7.0625	-47.0	22.875	-2.4775844	-0.19516829	-0.07419981
1277478648799	0.6946377	9.847511	-0.46309182	0.07618618	0.0	7.5625	-48.25	19.6875	-2.5812771	-0.046875354	-0.07042277
1277478648839	0.10896278	10.228881	-1.2258313	0.49599743	0.0	9.3125	-49.0	17.25	-2.4258697	-0.11926471	-0.010652061
1277478648869	1.7570249	10.56939	-0.9942854	0.9538212	0.0	10.75	-49.5	14.75	-2.0753124	-0.092533655	-0.1647307
1277478648909	3.7864566	9.615966	-0.88532263	0.56580544	0.0	12.0	-50.0	13.0625	-1.8800082	-0.08545721	-0.3751222
1277478648949	7.8180795	11.876944	-1.4165162	4.4828796	0.0	13.25	-50.25	12.3125	-1.7947321	-0.09929273	-0.5821578
1277478648999	1.3756552	13.756551	2.8738933	4.3140574	0.0	13.75	-50.0	12.0625	-2.4304802	0.20495522	-0.09966865
1277478649039	-10.61025	11.563675	0.6946377	5.9025354	0.0	13.25	-50.75	13.3125	2.1295896	0.044232994	0.74242705
1277478649079	-8.812365	13.0619135	2.070293	6.0854073	0.0	11.0	-50.0	16.0	2.4347303	0.13064349	0.59351677
1277478649119	-2.3426998	11.34575	0.040861044	1.7785101	0.0	7.8125	-49.25	19.9375	3.0273373	0.0035270231	0.20362097
1277478649159	5.8976107	12.299174	-2.3018389	4.0262804	0.0	4.0625	-48.0	24.875	-2.1958447	-0.16718051	-0.44712386
1277478649199	4.0588636	10.378705	-3.0237172	1.7404175	0.0	0.375	-45.5625	29.5625	-2.37106	-0.26494914	-0.37278977
1277478649239	0.14982383	7.3141265	-0.53119355	-2.4717298	0.0	-1.625	-43.5625	32.5	3.116562	-0.072483264	-0.020481307
1277478649279	-0.61291564	5.7886477	0.08172209	-3.9850707	0.0	-2.625	-41.3125	34.75	2.947017	0.014038247	0.105489306
1277478649329	-0.8036005	4.4810944	-0.8036005	-5.183691	0.0	-2.375	-39.5625	35.9375	2.8275027	-0.17471568	0.17744514
1277478649369	-0.53119355	4.0180025	-3.173541	-4.6590414	0.0	-0.625	-38.875	36.4375	2.2875578	-0.6642996	0.13144118
1277478649409	1.8387469	9.615966	-4.630918	1.0235481	0.0	1.375	-39.3125	35.6875	-2.638224	-0.4418285	-0.18893737
1277478649449	0.23154591	14.669114	-5.597963	5.896016	0.0	4.0625	-40.3125	34.75	-2.8878968	-0.36451647	-0.015783276
1277478649489	-1.3075534	7.504812	-6.5513873	0.2408657	0.0	6.3125	-41.0625	33.5	0.4574949	-0.71027267	0.17249715
1277478649529	-0.46309182	8.853226	-3.3642259	-0.3244524	0.0	7.5625	-42.0625	32.25	-2.8009753	-0.36269364	0.052260067
1277478649569	-2.4925237	19.340895	-0.7218784	9.70755	0.0	8.5625	-42.5625	31.5	-3.0397885	-0.03700091	0.12816681
1277478649609	-1.9885708	10.923519	0.19068487	1.2980356	0.0	9.3125	-42.5625	31.0625	-3.093245	0.017172413	0.18007295
1277478649649	2.3699405	2.5333846	3.255263	-5.0494037	0.0	9.3125	-43.0625	31.0625	-2.4034755	0.7536085	-0.7520772
1277478649679	0.08172209	8.662541	1.879608	-0.94215775	0.0	10.5625	-43.8125	29.8125	-2.8632193	0.21365978	-0.009433682
1277478649719	-1.2666923	14.709975	-1.920469	5.082141	0.0	11.5	-44.0625	28.8125	-2.816554	-0.12934797	0.08589921
1277478649759	-1.9477097	8.812365	-2.4925237	-0.4437437	0.0	11.0	-45.3125	26.875	-3.0704396	-0.26946172	0.2175231
1277478649799	-2.0294318	6.5922484	1.7297841	-2.6954975	0.0	11.0	-46.5	24.875	3.0531385	0.24571455	0.2986441
1277478649839	-0.9942854	8.158588	2.2201166	-1.2931271	0.0	10.0625	-47.25	23.125	-3.0196846	0.2638252	0.12127176
1277478649869	1.8387469	10.460427	-3.8681788	1.4966383	0.0	9.5625	-48.5	20.4375	-1.7606351	-0.34927547	-0.17400359
1277478649909	1.4165162	9.575105	-0.84446156	-0.09056759	0.0	10.0625	-48.75	18.25	-2.2612755	-0.08702359	-0.14687213
1277478649949	0.27240697	9.888372	-1.7978859	0.24752808	0.0	10.75	-49.25	15.75	-2.0792904	-0.17978676	-0.027541244
1277478649989	3.214402	11.563675	-1.1849703	2.253828	0.0	12.25	-49.25	13.8125	-1.9307462	-0.09841112	-0.2711291
1277478650029	4.6036777	9.847511	-1.3075534	1.1421862	0.0	13.75	-49.5	12.5625	-1.800453	-0.11970967	-0.43730843
1277478650069	1.3756552	11.34575	-2.5333846	1.8996086	0.0	14.25	-49.5	12.0625	-1.6459256	-0.21813872	-0.12065952
1277478650109	0.27240697	11.114203	0.08172209	1.3111916	0.0	14.5	-49.25	12.3125	-2.2497768	0.0073506017	-0.0245049
1277478650149	-4.440233	11.958665	2.7240696	3.2373476	0.0	13.5	-49.25	15.0	2.966011	0.2103856	0.3555215
1277478650189	-6.932757	16.548723	0.27240697	8.13764	0.0	10.3125	-48.5	18.75	2.6993177	0.015181287	0.3967181
1277478650229	0.14982383	13.593107	-2.7921712	4.0710745	0.0	7.0625	-47.75	23.375	-2.6233027	-0.20258085	-0.011021598
1277478650269	5.8567495	10.501288	-2.2609777	2.4281607	0.0	2.875	-46.3125	27.3125	-2.2350166	-0.18586709	-0.5087488
1277478650309	2.1792557	8.240311	-2.1383946	-1.018897	0.0	-1.375	-44.8125	30.0625	-2.641409	-0.24580586	-0.25854373
1277478650349	-0.9125633	6.932757	-0.27240697	-2.8087864	0.0	-3.5625	-43.0625	32.75	2.855235	-0.038937	0.13087822
1277478650389	-1.7297841	4.399372	0.53119355	-5.049677	0.0	-4.3125	-41.5625	34.0	2.6725445	0.11189967	0.37462094
1277478650429	-0.14982383	2.1111538	-1.3756552	-7.2823987	0.0	-3.375	-40.5625	35.6875	2.4794686	-0.5763599	0.070848964
1277478650469	1.1849703	5.243834	-4.399372	-2.8599658	0.0	-0.875	-39.5625	36.1875	-1.9835062	-0.68581676	-0.22224134
1277478650509	1.3756552	14.982383	-5.9793324	6.3833656	0.0	2.375	-40.0625	35.4375	-2.8230295	-0.37827957	-0.09156145
1277478650549	0.08172209	12.830367	-5.47538	4.1434317	0.0	5.5625	-40.5625	34.75	-2.79378	-0.40334603	-0.0063693407
1277478650609	-6.510526	16.86199	-2.8738933	8.495615	0.0	7.5625	-41.5625	32.75	2.8442073	-0.15767646	0.36847225
1277478650649	-2.5333846	13.375181	0.7627395	3.827692	0.0	8.5625	-42.3125	32.0	-3.1259227	0.055971745	0.18719183
1277478650689	2.2609777	1.3756552	3.718355	-5.242594	0.0	8.8125	-42.3125	32.0	-2.2110617	0.95221853	-1.0241985
1277478650729	0.7218784	8.962189	3.8681788	-0.018660545	0.0	8.8125	-42.5625	31.0625	-2.8769345	0.4062817	-0.08037359
1277478650759	-1.4982382	14.47843	-1.3756552	4.8139544	0.0	9.3125	-43.3125	30.0625	-2.9573655	-0.094229564	0.1031137
1277478650789	-2.9556155	9.956474	-4.862464	1.6611576	0.0	10.3125	-44.5625	28.3125	2.7229898	-0.43786836	0.28856772
1277478650829	-2.3699405	6.5922484	-0.27240697	-2.7960463	0.0	10.0625	-45.3125	26.375	2.9074144	-0.038866203	0.34511653
1277478650869	-0.7218784	7.504812	3.2961242	-1.5781784	0.0	9.3125	-46.3125	25.125	-3.0265462	0.41214487	0.09589372
1277478650909	1.5390993	9.888372	-1.7978859	0.361001	0.0	8.8125	-47.0	23.625	-2.3351982	-0.17775877	-0.15440844
1277478650949	1.4982382	10.038197	-2.7921712	0.7198086	0.0	8.0625	-47.75	22.1875	-2.119378	-0.26846597	-0.14816001
1277478650991	1.3075534	9.466142	-0.5720546	-0.23352242	0.0	8.8125	-49.0	19.9375	-2.406574	-0.059791915	-0.13726093
1277478651029	0.38136974	9.847511	-0.7218784	0.07464695	0.0	9.8125	-50.0	17.75	-2.4465823	-0.07312016	-0.03870818
1277478651069	1.8387469	11.264028	-1.334794	1.6842585	0.0	10.75	-50.25	15.75	-2.065221	-0.11642372	-0.1618134
1277478651109	4.8216033	10.760075	-1.3075534	2.0566025	0.0	11.75	-50.5	13.5625	-1.8481011	-0.11044319	-0.42127383
1277478651149	4.0588636	11.917805	-2.3426998	2.9994688	0.0	12.25	-50.25	12.5625	-1.7267808	-0.18397199	-0.32825065
1277478651189	0.08172209	11.917805	0.42223078	2.1189127	0.0	12.5	-50.25	12.5625	-2.4108377	0.035412923	-0.006857035
1277478651229	-2.1792557	9.80665	1.0351465	0.29241276	0.0	12.0	-50.25	14.0625	-3.0994313	0.102679595	0.21866897
1277478651269	-7.6546354	14.9006605	2.1792557	7.086315	0.0	9.8125	-49.5	17.25	2.6052127	0.12936425	0.47455627
1277478651309	-4.5219555	12.9529505	-2.3426998	4.111512	0.0	7.3125	-48.75	20.9375	2.508447	-0.16912471	0.33587834
1277478651349	4.2904096	10.923519	-1.9477097	2.089755	0.0	4.0625	-47.25	24.875	-2.2665508	-0.16446294	-0.37425646
1277478651379	3.5957718	9.425281	-2.6423476	0.6215563	0.0	1.125	-45.8125	29.0625	-2.3558848	-0.2561775	-0.3644596
1277478651419	0.84446156	7.668256	-1.7297841	-1.900487	0.0	-0.875	-43.8125	31.75	-2.9604108	-0.22057356	-0.109682366
1277478651459	-1.334794	6.238119	0.040861044	-3.4271927	0.0	-2.125	-42.0625	34.25	2.8362105	0.0064051407	0.21079507
1277478651499	-1.7570249	3.214402	0.14982383	-6.1403217	0.0	-1.875	-40.8125	35.6875	2.6218526	0.040876195	0.5002369
1277478651539	-0.7218784	2.6832085	-3.214402	-5.5577564	0.0	-0.875	-39.5625	35.9375	1.1313822	-0.8579856	0.26281267
1277478651579	1.7297841	10.56939	-6.510526	2.7269487	0.0	1.625	-39.5625	35.6875	-2.4839938	-0.5462023	-0.16222164
1277478651609	1.56634	17.393185	-7.4639506	9.185108	0.0	4.0625	-40.0625	35.25	-2.7164972	-0.4039027	-0.08981255
1277478651649	-1.334794	7.3549876	-6.973618	0.41630745	0.0	6.0625	-40.3125	34.5	0.44757906	-0.7507026	0.17952757
1277478651689	-4.3312707	12.912089	-4.372132	4.4971075	0.0	7.8125	-40.8125	33.75	2.863887	-0.31063482	0.32364807
1277478651729	1.9885708	12.176591	0.53119355	2.5426788	0.0	8.0625	-41.3125	33.5	-2.7477033	0.043027237	-0.1618819
1277478651769	1.4982382	3.5957718	2.3426998	-5.261044	0.0	8.0625	-41.5625	33.25	-2.6763413	0.5414472	-0.3947911
1277478651809	-1.920469	8.730643	4.6036777	0.24850655	0.0	8.5625	-41.5625	32.25	3.129817	0.47556686	0.21652053
1277478651849	-5.407278	9.956474	1.7570249	1.6588268	0.0	9.5625	-42.5625	31.0625	2.8311753	0.15385103	0.49752384
1277478651889	-1.879608	9.234595	-4.944186	0.83551407	0.0	10.75	-43.5625	29.0625	-2.7819188	-0.48316553	0.20079692
1277478651929	-0.46309182	8.008764	3.718355	-0.96465206	0.0	11.5	-44.8125	26.875	-2.9398053	0.43403307	0.05775881
1277478651969	0.84446156	8.853226	0.6537767	-0.8892431	0.0	11.75	-46.5	24.375	-2.6135232	0.07338051	-0.095096916
1277478652009	2.9556155	11.114203	-5.134871	2.7881136	0.0	11.25	-47.5	22.1875	-1.688249	-0.41993254	-0.2599158
1277478652049	0.7627395	8.853226	-0.10896278	-0.919961	0.0	11.75	-48.25	20.1875	-2.4618628	-0.012261654	-0.085941635
1277478652089	-1.56634	9.915613	0.42223078	0.24079132	0.0	12.25	-48.75	17.0	-2.910408	0.04203609	0.1566724
1277478652129	1.879608	11.604536	-3.173541	2.3699484	0.0	13.0	-49.5	15.5	-1.7035711	-0.2636708	-0.16057728
1277478652169	4.8216033	9.80665	-0.42223078	1.1293688	0.0	13.75	-49.25	13.5625	-1.9115429	-0.038618784	-0.45695877
1277478652209	4.5628166	12.217452	-2.2201166	3.4226484	0.0	14.0	-49.75	12.3125	-1.7375941	-0.16861604	-0.3574261
1277478652249	0.313268	11.917805	0.8036005	2.1423235	0.0	14.25	-50.0	12.8125	-2.3738976	0.06730348	-0.026279662
1277478652289	-4.7535014	10.419566	0.61291564	1.6623869	0.0	13.5	-49.5	13.8125	2.6772845	0.053466365	0.42800546
1277478652329	-8.049625	15.023244	2.152015	7.372566	0.0	11.5	-49.75	16.75	2.6114073	0.12559848	0.49188465
1277478652369	-3.9090397	12.299174	-2.1383946	3.2747498	0.0	8.5625	-49.0	20.6875	2.6457126	-0.16420525	0.30773276
1277478652409	5.7477865	11.372991	-2.6014864	3.1991062	0.0	4.8125	-47.5	24.625	-2.129578	-0.20138422	-0.4679497
1277478652449	3.405087	8.921328	-1.920469	-0.06637764	0.0	1.875	-45.8125	28.5625	-2.3986948	-0.19846827	-0.36461368
1277478652489	-0.42223078	7.8180795	-0.9125633	-1.9241748	0.0	-0.125	-44.0625	31.75	3.047293	-0.11603134	0.053954553
1277478652529	-1.6889231	5.8567495	-0.0	-3.711244	0.0	-0.875	-42.3125	34.0	2.7876074	-0.0	0.28075513
1277478652569	-0.9125633	2.8738933	-0.6946377	-6.712372	0.0	-0.375	-40.8125	35.9375	2.6916454	-0.22642072	0.30746582
1277478652609	0.040861044	2.4925237	-2.9556155	-5.9401264	0.0	0.875	-40.0625	36.6875	-0.21672957	-0.87012815	-0.016391974
1277478652649	1.1441092	9.80665	-5.706926	1.5972252	0.0	2.875	-40.0625	36.1875	-2.5670984	-0.52410394	-0.11614163
1277478652679	0.8036005	17.883516	-6.5513873	9.256052	0.0	5.3125	-40.3125	35.25	-2.789062	-0.35082823	-0.044905055
1277478652719	-1.9885708	8.008764	-6.510526	0.7043762	0.0	8.0625	-41.3125	34.25	1.950616	-0.6679778	0.2433774
1277478652759	-4.3312707	10.269742	-5.202973	2.4936924	0.0	9.5625	-41.8125	33.25	2.5963216	-0.4367471	0.39911523
1277478652799	-0.46309182	16.276316	0.8036005	6.496071	0.0	10.5625	-41.8125	33.0	-2.8802862	0.049312398	0.028444208
1277478652839	-0.3405087	6.238119	0.23154591	-3.554955	0.0	10.3125	-42.3125	33.25	-2.9159603	0.037045773	0.05453104
1277478652879	0.8036005	6.6331096	4.1814466	-1.9244924	0.0	9.8125	-42.3125	32.75	-2.850054	0.5591846	-0.120562345
1277478652919	-1.1849703	11.073342	1.56634	1.4395266	0.0	9.8125	-43.3125	31.5	-3.0045707	0.13973182	0.10660538
1277478652959	-2.1383946	11.073342	-4.399372	2.298973	0.0	10.0625	-44.0625	30.0625	-3.0107505	-0.37193155	0.19076373
1277478652999	-2.1111538	7.668256	-0.3405087	-1.8458042	0.0	9.8125	-44.5625	28.0625	3.0510724	-0.042785984	0.26865515
1277478653039	-0.61291564	7.9270425	3.5957718	-1.0806408	0.0	9.5625	-45.8125	25.875	-3.0019424	0.42473042	0.07716605
1277478653079	2.2201166	9.425281	-2.1792557	0.1187706	0.0	9.5625	-46.5	23.875	-2.1767254	-0.22136657	-0.23133229
1277478653119	2.152015	9.888372	-1.7570249	0.4645815	0.0	9.5625	-47.75	21.1875	-2.167377	-0.17190818	-0.21428941
1277478653159	-0.5720546	10.760075	-0.88532263	1.0049295	0.0	10.3125	-48.5	18.25	-2.6428077	-0.08197831	0.053114556
1277478653199	-2.0294318	11.495573	-2.4925237	2.1298256	0.0	11.5	-49.0	16.0	-2.6429856	-0.21036384	0.17473981
1277478653239	5.407278	10.119919	-0.08172209	1.6675863	0.0	12.5	-49.5	14.0625	-1.9526103	-0.0071222843	-0.49072543
1277478653279	6.3607025	10.760075	-2.1111538	2.8698921	0.0	13.0	-49.75	13.8125	-1.7757512	-0.16731982	-0.5338788
1277478653329	-0.040861044	12.176591	0.61291564	2.3854246	0.0	14.0	-50.5	13.5625	-2.4314597	0.050292842	0.0033556924
1277478653369	-4.399372	9.847511	1.0351465	1.0284538	0.0	13.25	-50.25	14.3125	2.7281966	0.09568229	0.42014763
1277478653409	-7.9270425	13.947236	1.607201	6.316206	0.0	11.25	-50.25	16.75	2.53254	0.09985047	0.5168294
1277478653449	-4.5900574	13.211738	-1.8387469	4.3000736	0.0	8.0625	-49.25	19.6875	2.5638783	-0.13071738	0.33437693
1277478653489	5.175732	11.917805	-2.4108016	3.4082747	0.0	3.8125	-47.5	23.625	-2.1774564	-0.18345758	-0.40970936
1277478653529	4.5628166	9.302697	-2.4925237	0.85037327	0.0	0.375	-46.0625	27.0625	-2.2508726	-0.23607215	-0.45600522
1277478653569	0.3405087	7.6273947	-1.1441092	-2.0864115	0.0	-2.125	-43.8125	30.8125	3.1345463	-0.14874397	-0.04461324
1277478653609	-1.3756552	6.6331096	-0.19068487	-3.0297093	0.0	-3.375	-41.8125	33.25	2.7894874	-0.028141024	0.20449324
1277478653649	-1.2258313	3.718355	-0.6537767	-5.8372355	0.0	-3.5625	-40.3125	35.4375	2.634824	-0.16545746	0.3184502
1277478653689	-0.29964766	2.5606253	-1.920469	-6.591873	0.0	-2.875	-38.875	37.1875	2.3270528	-0.64023995	0.116491474
1277478653729	0.19068487	5.597963	-5.243834	-2.1338835	0.0	-1.125	-38.875	37.1875	-2.8044662	-0.75245714	-0.034050096
1277478653769	2.5333846	16.317177	-6.510526	7.9431458	0.0	1.625	-39.5625	36.1875	-2.7651522	-0.3755609	-0.15402897
1277478653809	-0.46309182	12.830367	-6.1700177	4.4377127	0.0	4.3125	-40.5625	35.25	-2.9430103	-0.4479903	0.036077756
1277478653839	-3.2961242	4.671779	-6.973618	-0.7888174	0.0	6.5625	-41.8125	33.75	1.1697364	-0.88405186	0.614434
1277478653879	-3.445948	16.04477	-0.6946377	6.6186867	0.0	8.0625	-42.5625	32.25	3.1069028	-0.042303238	0.21155708
1277478653919	-1.7978859	12.067628	2.1111538	2.5754738	0.0	8.3125	-43.0625	32.0	-3.093526	0.17133722	0.14789635
1277478653959	0.3405087	5.938472	1.3756552	-3.7014213	0.0	8.0625	-43.0625	31.0625	-2.8836024	0.22727567	-0.057276733
1277478653999	-0.88532263	7.246025	1.6889231	-2.3139114	0.0	7.3125	-43.8125	30.5625	-3.0927358	0.22736178	0.121577874
1277478654039	-2.5333846	10.882658	-0.6537767	1.3861017	0.0	6.5625	-44.3125	29.5625	3.0065553	-0.058443986	0.22871752
1277478654079	0.23154591	11.413852	-0.14982383	1.6105337	0.0	6.8125	-44.8125	28.3125	-2.870013	-0.013123037	-0.020283613
1277478654119	1.334794	7.1234417	-0.040861044	-2.559115	0.0	6.5625	-46.3125	26.875	-2.6291053	-0.0056379526	-0.1852325
1277478654159	-0.7218784	8.771504	0.08172209	-1.0051117	0.0	6.5625	-47.25	24.625	-3.0356758	0.009285111	0.08211309
1277478654199	0.3405087	8.894087	-0.46309182	-0.89400864	0.0	6.5625	-48.25	22.1875	-2.7377512	-0.05198239	-0.038266152
1277478654239	0.50395286	10.269742	-1.334794	0.56172657	0.0	6.0625	-49.5	19.4375	-2.5617309	-0.12909532	-0.04903229
1277478654279	0.88532263	10.337844	-1.0351465	0.6205425	0.0	6.5625	-50.25	16.5	-2.386527	-0.099437535	-0.08543056
1277478654319	3.214402	11.34575	-1.6889231	2.1059856	0.0	7.8125	-51.0	14.3125	-1.9081625	-0.14225508	-0.2760785
1277478654361	4.440233	11.563675	-1.0760075	2.626855	0.0	8.8125	-51.25	12.8125	-1.8936057	-0.08664935	-0.36662123
1277478654399	4.2495484	11.536434	-2.070293	2.6606712	0.0	10.0625	-51.0	12.0625	-1.7364445	-0.16683038	-0.35293567
1277478654439	0.84446156	10.61025	0.8036005	0.867445	0.0	10.75	-50.5	12.8125	-2.413112	0.07535642	-0.0794218
1277478654479	-3.6774938	9.575105	0.38136974	0.45746422	0.0	10.0625	-50.25	14.3125	2.6519384	0.037164193	0.36669713
1277478654519	-8.267551	14.519291	1.879608	7.0068913	0.0	7.8125	-49.75	17.25	2.4695048	0.112025484	0.51762944
1277478654559	-3.405087	13.252599	-1.6480621	3.975299	0.0	4.5625	-49.25	20.9375	2.6586845	-0.119868055	0.25149715
1277478654599	6.0474343	11.454713	-2.7921712	3.4439392	0.0	0.625	-48.5	24.875	-2.1550941	-0.21231197	-0.4857512
1277478654639	3.405087	9.888372	-2.4925237	0.944499	0.0	-2.875	-46.75	28.3125	-2.5095916	-0.23396663	-0.3316349
1277478654679	0.53119355	8.117727	-1.2258313	-1.5797234	0.0	-4.5625	-44.8125	31.5	3.0751362	-0.14955926	-0.06534308
