#timestamp	accel_x	accel_y	accel_z	accel_mag	temperature	mag_x	mag_y	mag_z	azimuth	pitch	roll
1276778262806	3.3778462	2.5606253	9.615966	0.7020817	0.0	-7.25	-0.9375	-46.5	0.2734685	1.1556201	-0.9221539
1276778262844	4.944186	1.4573772	8.730643	0.3320408	0.0	-7.0	-1.1875	-46.0	0.04848093	1.0374712	-1.2841485
1276778262885	4.671779	1.607201	7.8180795	-0.5583544	0.0	-7.75	-1.1875	-45.75	0.077877045	1.0072265	-1.2394558
1276778262924	4.0588636	1.879608	8.771504	0.03949642	0.0	-8.75	-2.1875	-45.5	0.13164504	1.0992272	-1.1371125
1276778262964	4.862464	1.607201	8.240311	-0.10462093	0.0	-10.25	-1.9375	-44.75	0.09254361	1.0147315	-1.2515689
1276778262994	4.7943625	1.0760075	7.246025	-1.051733	0.0	-12.0	-1.4375	-44.75	0.08062038	0.97491115	-1.3500228
1276778263034	4.4810944	1.4165162	7.7772183	-0.7197447	0.0	-12.5	-1.4375	-45.25	0.18467946	1.0272325	-1.2646265
1276778263075	4.440233	1.7297841	8.853226	0.2475748	0.0	-12.75	-1.4375	-45.75	0.296556	1.0770168	-1.199313
1276778263114	4.7943625	1.6480621	8.308413	-0.07362747	0.0	-11.75	-1.1875	-45.5	0.1918273	1.0229175	-1.2397003
1276778263144	5.053149	1.6480621	8.349273	0.09086418	0.0	-10.5	-1.1875	-45.75	0.13349386	1.0039017	-1.2555287
1276778263186	5.134871	1.9477097	8.771504	0.5422516	0.0	-9.75	-1.6875	-46.0	0.11570066	1.011405	-1.2082521
1276778263224	4.440233	2.3699405	8.730643	0.2708702	0.0	-9.25	-1.6875	-45.5	0.18925793	1.0478439	-1.0805206
1276778263265	3.7864566	2.3699405	8.430995	-0.26539516	0.0	-8.75	-1.6875	-46.25	0.22081916	1.0835723	-1.0115505
1276778263304	3.486809	2.7921712	8.812365	0.0732193	0.0	-8.0	-2.4375	-46.5	0.21634279	1.1016433	-0.89557916
1276778263344	3.5957718	2.6014864	8.471856	-0.24267387	0.0	-7.25	-3.4375	-46.5	0.1000491	1.0882343	-0.94448197
1276778263384	2.4108016	2.3699405	8.62168	-0.5458746	0.0	-6.0	-3.9375	-46.75	0.13223487	1.1971127	-0.79394495
1276778263424	2.5606253	3.2961242	9.00305	0.11686516	0.0	-4.9375	-5.4375	-46.5	0.043592088	1.1366847	-0.6604707
1276778263464	2.9147544	3.568531	8.19945	-0.4012699	0.0	-4.9375	-6.9375	-46.5	-0.03671062	1.05883	-0.68489754
1276778263504	2.5333846	3.5276701	8.499097	-0.26216793	0.0	-4.6875	-7.4375	-46.25	-0.04010912	1.098382	-0.62280136
1276778263545	2.6832085	3.3778462	8.580819	-0.2024889	0.0	-4.9375	-8.4375	-46.75	-0.111416616	1.104964	-0.67128927
1276778263586	2.9556155	3.405087	8.049625	-0.5802336	0.0	-5.75	-8.9375	-47.25	-0.108544916	1.0602018	-0.7148516
1276778263624	2.9556155	3.486809	8.349273	-0.28804398	0.0	-6.0	-9.1875	-47.25	-0.10342406	1.0699008	-0.70313185
1276778263664	3.173541	3.2961242	8.499097	-0.15416622	0.0	-6.25	-9.1875	-47.25	-0.14558728	1.0769345	-0.766453
1276778263704	3.2961242	3.173541	8.499097	-0.15416622	0.0	-6.75	-9.1875	-46.75	-0.15657152	1.0769345	-0.8043433
1276778263744	3.486809	3.445948	8.430995	-0.054005623	0.0	-7.5	-8.4375	-46.5	-0.053437896	1.0441208	-0.791292
1276778263784	3.636633	3.405087	8.539958	0.08024025	0.0	-8.5	-7.9375	-46.5	0.001161637	1.042696	-0.81826836
1276778263838	3.990762	3.0645783	8.240311	-0.15157223	0.0	-10.0	-6.9375	-46.25	0.042825177	1.0226063	-0.9159259
1276778263874	4.0588636	2.982856	8.117727	-0.25315285	0.0	-10.75	-6.6875	-46.0	0.07210942	1.01544	-0.93702996
1276778263914	4.2086873	2.8738933	8.240311	-0.11773777	0.0	-11.5	-6.9375	-45.5	0.060257867	1.0169138	-0.97167486
1276778263944	4.2086873	2.982856	8.19945	-0.1194706	0.0	-12.25	-6.9375	-45.25	0.11575251	1.0092313	-0.95423007
1276778263975	4.2495484	2.9147544	8.117727	-0.1914568	0.0	-12.0	-7.1875	-44.5	0.07120598	1.0051836	-0.969598
1276778264014	4.2495484	2.982856	8.158588	-0.13614559	0.0	-12.5	-7.4375	-44.25	0.0946722	1.0040587	-0.9587809
1276778264054	4.2086873	3.0237172	8.076866	-0.21020985	0.0	-12.75	-7.4375	-44.0	0.12218347	1.0003356	-0.9477971
1276778264094	4.2086873	3.1054392	8.076866	-0.18414783	0.0	-12.5	-7.1875	-43.5	0.14005153	0.9961282	-0.9351075
1276778264134	4.3312707	3.0237172	7.7363577	-0.43894005	0.0	-13.0	-7.4375	-44.0	0.10710468	0.9717145	-0.9613378
1276778264174	4.140586	3.2961242	8.117727	-0.116119385	0.0	-13.25	-6.9375	-44.25	0.23374134	0.9930523	-0.89846694
1276778264214	4.2086873	3.173541	8.076866	-0.16195393	0.0	-13.0	-7.1875	-44.5	0.17221837	0.99258435	-0.9247112
1276778264254	4.2904096	3.255263	8.076866	-0.0989151	0.0	-12.75	-6.9375	-45.0	0.1658249	0.9827088	-0.9217313
1276778264294	4.2086873	3.2961242	8.117727	-0.086826324	0.0	-12.5	-6.6875	-45.5	0.18078706	0.9884459	-0.9064012
1276778264334	4.140586	3.336985	8.076866	-0.13629913	0.0	-12.0	-7.4375	-45.5	0.1298325	0.98853195	-0.89245546
1276778264365	4.1814466	3.1054392	7.7772183	-0.44644833	0.0	-12.0	-6.9375	-45.75	0.11261903	0.98068994	-0.9320023
1276778264404	4.099725	3.0237172	7.9679036	-0.34947872	0.0	-12.25	-6.9375	-46.0	0.12909323	1.0019537	-0.9353165
1276778264434	4.4810944	3.0237172	7.6954966	-0.40219688	0.0	-12.25	-7.1875	-45.75	0.060744084	0.95841616	-0.9772033
1276778264474	4.5219555	3.0237172	7.6273947	-0.4381876	0.0	-12.0	-6.4375	-45.75	0.08472441	0.951275	-0.98140484
1276778264514	4.0588636	3.445948	8.349273	0.09583855	0.0	-12.0	-6.4375	-45.5	0.21269372	1.0031132	-0.86688703
1276778264554	3.9499009	3.5957718	8.62168	0.33557224	0.0	-12.25	-6.4375	-45.25	0.2730806	1.0161334	-0.8322952
1276778264594	4.099725	3.173541	8.390134	0.056079865	0.0	-12.0	-5.9375	-45.25	0.20696226	1.0172981	-0.91205734
1276778264634	4.0588636	3.0237172	7.8861814	-0.43599892	0.0	-12.5	-5.4375	-45.5	0.22775523	1.0002075	-0.93052447
1276778264684	4.0180025	3.1054392	7.7363577	-0.55249786	0.0	-12.5	-5.1875	-45.25	0.24916196	0.98993033	-0.9128113
1276778264725	3.759216	3.405087	7.8861814	-0.43018055	0.0	-12.0	-5.4375	-45.25	0.28140542	0.9992414	-0.83478767
1276778264778	3.2961242	3.9499009	8.240311	-0.09228611	0.0	-12.0	-6.4375	-45.5	0.3634064	1.0126917	-0.6954163
1276778264814	2.7240696	4.1814466	7.8589406	-0.49708557	0.0	-11.0	-7.6875	-45.75	0.3439007	1.0050321	-0.57740504
1276778264884	0.88532263	4.399372	5.9793324	-2.3306427	0.0	-9.5	-8.4375	-46.5	0.3686814	0.9269669	-0.19858606
1276778264928	0.10896278	4.5219555	4.2904096	-3.5722642	0.0	-6.25	-8.4375	-46.75	0.21255127	0.7589842	-0.024091722
1276778264964	-0.9125633	4.7535014	5.5571017	-2.4371233	0.0	-1.6875	-8.6875	-46.75	0.13362895	0.8542293	0.18966945
1276778264994	-2.2201166	5.09401	6.238119	-1.4524908	0.0	3.5625	-9.1875	-46.25	0.017293027	0.8430993	0.41100693
1276778265024	-3.568531	3.990762	8.662541	0.37668037	0.0	8.625	-10.1875	-45.75	0.028436752	1.0172375	0.7296003
1276778265055	-7.5865335	5.012288	6.3607025	1.2900639	0.0	12.375	-10.9375	-45.5	0.08237108	0.610413	0.98694825
1276778265094	1.1168685	5.175732	7.8861814	-0.30783653	0.0	14.875	-9.4375	-45.5	-0.6832098	0.9795166	-0.21253063
1276778265125	1.7978859	0.46309182	10.269742	0.62955856	0.0	16.4375	-5.4375	-44.75	-0.39777282	1.3919475	-1.3187003
1276778265164	-6.469665	-0.8036005	8.19945	0.66871643	0.0	18.4375	0.5625	-43.25	0.13586722	0.8990504	1.694374
1276778265194	-7.014479	-3.2961242	10.56939	3.2998123	0.0	19.9375	6.5625	-41.25	0.32289758	0.9380828	2.0100777
1276778265225	-2.9147544	-3.2961242	10.732834	1.7930889	0.0	20.9375	10.5625	-39.0	2.1236818	1.181734	2.417521
1276778265264	-3.0645783	-1.9885708	10.460427	1.2733583	0.0	22.1875	11.5625	-38.5	2.925249	1.2347965	2.14639
1276778265364	-3.255263	0.6946377	11.645397	2.3051014	0.0	22.6875	10.0625	-38.25	-2.1141016	1.292394	1.3605604
1276778265415	-3.9771416	1.0351465	10.61025	1.5716887	0.0	24.1875	7.3125	-37.75	-2.0277886	1.2012618	1.3161716
1276778265476	-4.1814466	-1.0760075	9.112013	0.27655697	0.0	26.0	6.5625	-37.4375	3.1264727	1.1282918	1.8226609
1276778265517	-1.6889231	-0.95342433	5.9793324	-3.5206423	0.0	27.0	6.8125	-36.4375	2.6675835	1.2571441	2.084716
1276778265554	-3.2961242	0.38136974	9.575105	0.32708168	0.0	27.5	6.8125	-36.1875	-2.497569	1.2372112	1.4556061
1276778265585	-6.932757	1.1168685	10.119919	2.51095	0.0	27.25	7.0625	-35.9375	-1.6319783	0.9641805	1.4110686
1276778265634	-5.597963	0.6946377	9.575105	1.3065109	0.0	27.0	5.0625	-35.9375	-2.0471256	1.0384144	1.4473398
1276778265664	-3.255263	1.1441092	9.043911	-0.12687492	0.0	26.25	3.8125	-36.4375	-2.2007837	1.2063185	1.2328175
1276778265694	-2.8738933	0.7627395	8.62168	-0.6866493	0.0	25.25	4.0625	-36.9375	-2.3385882	1.2386957	1.3113742
1276778265725	-2.982856	0.38136974	8.812365	-0.49533272	0.0	22.9375	4.5625	-38.75	-2.4212582	1.2419462	1.4436324
1276778265754	-3.2961242	0.3405087	9.466142	0.22271824	0.0	20.6875	6.0625	-39.5	-2.1876156	1.2340729	1.4678557
1276778265794	-3.2961242	0.38136974	9.656827	0.40433407	0.0	19.6875	6.8125	-40.5	-2.0414522	1.2398317	1.4556061
1276778265834	-3.405087	0.42223078	9.575105	0.3646593	0.0	17.1875	8.6875	-22.0625	-2.1872861	1.226709	1.4474261
1276778265865	-3.5276701	0.53119355	9.888372	0.7055588	0.0	17.9375	8.9375	-21.3125	-2.1898887	1.2245582	1.42134
1276778265904	-4.1814466	0.23154591	10.501288	1.4988871	0.0	18.9375	8.9375	-21.3125	-2.3165326	1.19133	1.5154783
1276778265935	-4.7943625	0.19068487	12.108489	3.2178574	0.0	19.4375	8.4375	-20.5625	-2.406019	1.1935152	1.5310446
1276778265964	-4.7126403	0.38136974	12.980191	4.007827	0.0	20.1875	8.4375	-20.0625	-2.4196498	1.2214828	1.4900475
1276778266004	-4.5900574	0.0	12.53072	3.5382948	0.0	20.4375	7.9375	-20.0625	-2.568138	1.219671	1.5707964
1276778266044	-4.2086873	0.0	11.34575	2.2945518	0.0	20.6875	7.6875	-19.8125	-2.59041	1.2155825	1.5707964
1276778266084	-5.6252036	-1.607201	8.539958	0.5450115	0.0	20.9375	8.1875	-19.8125	-2.8576758	0.9701743	1.849096
1276778266124	-4.440233	-0.61291564	8.430995	-0.25819397	0.0	20.4375	8.4375	-20.5625	-2.5997207	1.0821507	1.7079663
1276778266164	-3.0645783	-0.42223078	6.973618	-2.1776748	0.0	19.6875	9.6875	-21.0625	-2.5593784	1.1532735	1.707712
1276778266204	-3.1463003	-0.08172209	7.43671	-1.7313461	0.0	18.1875	10.1875	-22.0625	-2.2832022	1.1704347	1.5967646
1276778266244	-1.9885708	0.08172209	7.7772183	-1.7788095	0.0	16.6875	10.4375	-23.0625	-2.304484	1.3202649	1.5297235
1276778266284	-1.6480621	0.08172209	7.273266	-2.348555	0.0	14.625	10.6875	-23.5625	-2.2124243	1.3477026	1.5212501
1276778266324	-3.255263	-0.23154591	9.112013	-0.12785244	0.0	13.625	10.4375	-24.0625	-2.088485	1.2268776	1.6418065
1276778266364	-3.3642259	0.040861044	9.656827	0.41949272	0.0	12.875	10.6875	-24.0625	-1.9337535	1.2355443	1.5586512
1276778266404	-4.140586	-0.27240697	8.662541	-0.20153236	0.0	13.125	11.1875	-23.5625	-1.7899507	1.1240724	1.6364912
1276778266444	-4.862464	-0.61291564	8.962189	0.40804672	0.0	14.375	11.6875	-23.3125	-1.8311884	1.0703776	1.6961855
1276778266484	-3.0645783	-0.6537767	8.894087	-0.37670612	0.0	14.625	12.4375	-22.8125	-2.3129973	1.2320589	1.7809789
1276778266524	-1.7978859	-0.29964766	10.038197	0.39568138	0.0	14.625	13.5	-22.5625	-2.4178028	1.3911786	1.735945
1276778266564	-3.214402	0.040861044	10.56939	1.2407961	0.0	13.375	14.0	-23.0625	-1.96621	1.2755381	1.5580852
1276778266604	-1.1849703	-0.46309182	9.00305	-0.71415234	0.0	11.625	14.5	-23.0625	-2.5116198	1.430413	1.9433506
1276778266644	-0.88532263	-1.2258313	9.765789	0.075510025	0.0	10.125	15.75	-23.5625	-3.073554	1.4171797	2.5161076
1276778266684	-1.9885708	-1.4165162	10.038197	0.5241928	0.0	9.625	16.75	-23.8125	-2.527607	1.3322079	2.1897488
1276778266724	-1.0760075	-2.1111538	9.234595	-0.2728939	0.0	8.625	18.5	-22.8125	-3.0907922	1.3196205	2.670233
1276778266764	-1.4165162	-2.3426998	9.234595	-0.17480183	0.0	8.125	20.5	-22.5625	-2.893676	1.2825936	2.5977602
1276778266804	-1.7297841	-2.2201166	9.043911	-0.33493423	0.0	7.875	21.75	-21.5625	-2.6857858	1.2690988	2.4797006
1276778266844	-2.1792557	-2.1111538	9.466142	0.13387108	0.0	7.375	23.25	-20.3125	-2.4597027	1.2606151	2.3403227
1276778266884	-1.525479	-2.8330324	8.390134	-0.82068825	0.0	7.875	24.0	-20.3125	-2.8697064	1.2045926	2.6476512
1276778266934	-2.4925237	-3.7864566	8.158588	-0.47324276	0.0	8.375	24.25	-19.5625	-2.6634407	1.0636367	2.5594232
1276778266974	-3.1054392	-2.9147544	9.466142	0.57349396	0.0	9.125	24.5	-19.0625	-2.4322767	1.1480045	2.3245308
1276778267014	0.040861044	-2.4925237	8.349273	-1.0931721	0.0	9.375	25.0	-19.3125	2.6501675	1.2806501	-3.1252007
1276778267054	-3.3642259	-1.7297841	9.343558	0.27363968	0.0	9.375	25.5	-19.0625	-2.1250095	1.1861033	2.0457156
1276778267094	-3.445948	-1.920469	8.430995	-0.4983511	0.0	8.375	26.25	-19.8125	-2.0503392	1.133147	2.0792363
1276778267124	-1.56634	-1.9885708	9.656827	0.1764431	0.0	7.375	26.5	-20.3125	-2.6413927	1.3144314	2.4744146
1276778267154	-0.7627395	-1.6889231	9.084772	-0.53479385	0.0	6.375	25.5	-21.0625	-2.9234002	1.369571	2.7173982
1276778267184	-0.9125633	-2.3699405	7.9679036	-1.4438229	0.0	5.375	25.25	-21.8125	-2.9158535	1.2622508	2.7740338
1276778267224	-1.1849703	-2.6423476	9.193735	-0.16761875	0.0	5.125	23.75	-22.0625	-2.8370597	1.2656494	2.7200255
1276778267264	-2.1111538	-2.3426998	8.921328	-0.34434032	0.0	4.0625	23.0	-22.8125	-2.3004272	1.2310152	2.4081354
1276778267304	-2.1792557	-1.2666923	9.00305	-0.4573946	0.0	3.8125	22.75	-23.3125	-1.989386	1.2978085	2.0973148
1276778267344	-1.9885708	-0.84446156	8.580819	-0.95803547	0.0	3.3125	22.0	-23.5625	-1.8552802	1.3241466	1.9723768
1276778267384	-2.7513103	-1.334794	9.152874	-0.1564436	0.0	4.0625	22.0	-23.5625	-1.8470101	1.2483531	2.0224922
1276778267424	-3.0237172	-3.0645783	10.378705	1.4295425	0.0	5.625	22.0	-23.3125	-2.2468264	1.1775898	2.3629057
1276778267464	-2.4108016	-3.6774938	9.847511	0.97803307	0.0	6.125	22.75	-23.0625	-2.554021	1.1508273	2.5613217
1276778267504	-2.8738933	-2.6832085	9.956474	0.89803314	0.0	6.875	23.0	-22.8125	-2.3029852	1.1946973	2.3218942
1276778267544	-2.7240696	-1.6480621	9.343558	0.064455986	0.0	6.875	23.25	-22.5625	-2.1058927	1.2423862	2.1148841
1276778267584	-3.1463003	0.3405087	9.084772	-0.18645096	0.0	6.375	23.25	-22.5625	-1.412502	1.235593	1.4629908
1276778267624	-3.255263	-0.88532263	10.460427	1.1843042	0.0	7.125	22.25	-22.3125	-1.8326123	1.2588259	1.8363402
1276778267654	-3.3642259	-2.4516625	11.304889	2.2403069	0.0	7.875	21.25	-22.8125	-2.2359955	1.2179763	2.2005548
1276778267694	-2.5333846	-2.6832085	11.413852	2.188918	0.0	8.875	18.75	-23.5625	-2.6332736	1.258094	2.3849072
1276778267734	-2.2201166	-1.9477097	10.310603	0.918602	0.0	10.375	15.25	-24.8125	-2.721028	1.2918242	2.290928
1276778267784	-1.920469	-1.3756552	9.80665	0.28052044	0.0	11.125	10.9375	-25.8125	-2.8779244	1.3344088	2.1923864
1276778267824	-1.1168685	1.0760075	8.62168	-1.0465956	0.0	11.875	4.6875	-26.5625	-1.6149647	1.3928198	0.8040296
1276778267854	-1.3075534	2.8330324	8.240311	-0.99537945	0.0	11.875	-0.0625	-27.3125	-1.1383379	1.2088268	0.43240777
1276778267884	-2.6423476	3.636633	8.962189	0.2197113	0.0	11.625	-5.0625	-27.5625	-1.1880146	1.1058875	0.6283508
1276778267914	-2.4108016	4.140586	8.008764	-0.47408772	0.0	10.875	-9.0625	-28.0625	-1.0171573	1.0316608	0.52725595
1276778267954	-1.525479	4.7126403	6.6331096	-1.5281115	0.0	9.625	-11.3125	-27.8125	-0.7880929	0.92936736	0.31305513
1276778267994	-0.7627395	6.2108784	5.8567495	-1.2358685	0.0	8.625	-14.125	-27.5625	-0.6080979	0.75232625	0.12219518
1276778268034	-1.607201	4.8216033	8.308413	-0.06700611	0.0	7.375	-16.125	-26.0625	-2.2196298	1.0218043	0.32175052
1276778268074	-2.1111538	4.372132	6.701211	-1.5314617	0.0	6.625	-18.875	-24.8125	2.1725564	0.94380367	0.44984666
1276778268114	-0.95342433	1.5390993	6.973618	-2.6018467	0.0	6.875	-21.625	-23.5625	2.7955854	1.3167852	0.5546121
1276778268154	0.53119355	9.084772	4.0180025	0.14119339	0.0	6.625	-22.875	-22.5625	-0.60185724	0.41578358	-0.058404263
1276778268194	-1.56634	8.499097	5.053149	0.204463	0.0	6.125	-24.125	-22.0625	-0.24838878	0.52909696	0.18224989
1276778268234	-1.3075534	7.205164	5.243834	-0.79988194	0.0	5.125	-24.875	-21.5625	-0.21527007	0.6214447	0.17952077
1276778268274	-0.6537767	7.3958488	5.053149	-0.82554054	0.0	3.0625	-25.125	-21.0625	-0.2577968	0.59757817	0.08816861
1276778268314	-0.040861044	7.014479	5.6660647	-0.78950596	0.0	1.5625	-26.125	-20.3125	-1.9850117	0.67945063	0.005825177
1276778268354	0.23154591	7.43671	6.3607025	-0.018044472	0.0	6.0625	-27.125	-17.0	-2.1558564	0.7073302	-0.031125475
1276778268394	-0.29964766	8.308413	5.7477865	0.3006029	0.0	6.0625	-28.625	-15.75	-2.1704936	0.60489947	0.036049947
1276778268424	-1.2258313	6.2108784	1.879608	-3.2028184	0.0	6.5625	-30.625	-13.75	-0.11853466	0.28861403	0.19486392
1276778268464	-0.0	9.112013	3.255263	-0.13062191	0.0	7.0625	-33.625	-10.9375	-1.7131689	0.3431186	0.0
1276778268504	0.88532263	8.117727	1.5390993	-1.4970093	0.0	8.5625	-36.625	-7.6875	-1.4922273	0.18629421	-0.108631074
1276778268544	-0.9125633	9.084772	2.070293	-0.44438744	0.0	9.3125	-38.4375	-4.1875	-2.2719235	0.22297473	0.10011396
1276778268584	-0.61291564	9.302697	1.334794	-0.38871384	0.0	9.8125	-40.4375	-1.4375	-2.122228	0.14220777	0.06579071
1276778268624	0.14982383	10.923519	0.10896278	1.1184397	0.0	10.0625	-41.1875	0.8125	-1.6852744	0.009973794	-0.013714851
1276778268664	-1.525479	12.258313	0.53119355	2.5576324	0.0	9.8125	-41.1875	1.5625	-2.1976876	0.042975165	0.123807944
1276778268694	-3.1054392	11.032481	-2.4108016	1.9053679	0.0	9.3125	-41.4375	0.5625	0.2699689	-0.20732199	0.27438197
1276778268726	-4.2086873	8.281172	0.3405087	-0.5111246	0.0	8.0625	-40.1875	-1.4375	1.571671	0.03663966	0.47020486
1276778268764	-2.982856	5.706926	4.099725	-2.1728978	0.0	5.3125	-39.4375	-3.6875	2.4677656	0.56693894	0.48162106
1276778268804	1.4573772	8.19945	4.2495484	-0.45712662	0.0	2.0	-38.6875	-6.4375	-2.4883785	0.47183362	-0.17590384
1276778268844	2.6423476	5.47538	7.082581	-0.47258663	0.0	-1.0	-36.375	-8.4375	-2.4935594	0.8614512	-0.4496205
1276778268884	-0.38136974	6.782933	4.862464	-1.4521799	0.0	-3.75	-34.875	-10.1875	2.6934264	0.6212099	0.056165766
1276778268924	-1.879608	6.5513873	5.6252036	-0.9694271	0.0	-4.5	-33.625	-10.9375	2.2662275	0.6899975	0.27939767
1276778268964	0.38136974	7.273266	8.19945	1.160428	0.0	-3.75	-33.625	-9.6875	3.0365427	0.8445044	-0.05238648
1276778269004	-2.070293	9.915613	5.47538	1.7079182	0.0	-2.5	-35.375	-8.1875	2.3210974	0.49555233	0.20583418
1276778269044	-3.255263	8.921328	4.0180025	0.50505066	0.0	-0.0	-37.375	-6.1875	2.1280181	0.4002566	0.3498738
1276778269084	-2.9147544	6.5513873	4.903325	-1.1199322	0.0	1.5	-39.1875	-5.1875	2.4117033	0.5997817	0.41861007
1276778269124	-3.7864566	7.6273947	2.8330324	-0.8322153	0.0	2.25	-39.6875	-4.6875	1.9965982	0.3211712	0.46078637
1276778269164	-3.9771416	7.6954966	4.7126403	0.054754257	0.0	3.5	-40.6875	-2.9375	2.3526447	0.49824807	0.47700828
1276778269204	-4.399372	8.049625	4.2086873	0.28611946	0.0	5.0625	-40.9375	-1.4375	2.3392968	0.4301424	0.5001762
1276778269244	-4.4810944	9.615966	4.944186	1.897707	0.0	8.5625	-41.1875	0.3125	2.6402154	0.43611655	0.4360842
1276778269284	-4.1814466	8.349273	4.7943625	0.690053	0.0	11.3125	-41.6875	1.8125	2.7540221	0.47433773	0.46429992
1276778269324	-4.7126403	6.2108784	3.405087	-1.2990885	0.0	12.5625	-41.1875	1.3125	2.4330943	0.41178137	0.64909154
1276778269364	-6.238119	7.8861814	-0.53119355	0.26251793	0.0	12.5625	-41.1875	1.0625	1.5037452	-0.052778967	0.66924065
1276778269404	-4.8216033	8.158588	3.636633	0.34399128	0.0	11.8125	-41.1875	2.0625	2.570367	0.3664103	0.5337644
1276778269444	-3.8681788	9.343558	3.445948	0.876956	0.0	12.0625	-41.6875	3.0625	2.8634188	0.32841736	0.3925118
1276778269484	-2.6014864	9.697687	0.38136974	0.24115086	0.0	12.8125	-42.6875	5.3125	-2.9559252	0.037964664	0.2620879
1276778269524	-4.9850473	10.147159	0.19068487	1.5005102	0.0	13.8125	-43.9375	7.5625	2.444345	0.016864879	0.45664343
1276778269564	-4.903325	10.228881	1.1168685	1.5915956	0.0	14.0625	-45.1875	9.8125	2.6962094	0.09814348	0.44700038
1276778269604	-3.8681788	10.269742	2.152015	1.3764429	0.0	13.3125	-46.1875	12.625	2.9665267	0.1936426	0.36022332
1276778269644	-3.8273177	10.528529	1.6889231	1.5225487	0.0	12.8125	-46.6875	15.125	2.9669106	0.1496348	0.34866711
1276778269705	-5.012288	10.079058	1.7978859	1.592597	0.0	13.0625	-47.1875	17.875	2.7879314	0.15838103	0.4614831
1276778269744	-5.7886477	9.615966	1.7570249	1.5539122	0.0	13.8125	-47.4375	20.375	2.711236	0.15528333	0.5418763
1276778269784	-5.243834	7.246025	0.88532263	-0.81852055	0.0	15.625	-46.6875	22.875	2.648669	0.09865907	0.6264452
1276778269824	-2.2201166	3.336985	1.0351465	-5.667095	0.0	19.125	-45.6875	25.875	2.8945768	0.25274456	0.5870601
1276778269864	0.14982383	-0.8036005	0.53119355	-8.831772	0.0	22.625	-44.1875	28.375	1.4209127	0.5762484	-2.9572682
1276778269904	1.56634	-4.7943625	-2.1792557	-4.312245	0.0	25.6875	-42.9375	28.875	2.9044611	-0.40784475	-2.8258197
1276778269944	3.336985	-2.982856	-3.486809	-4.132962	0.0	27.1875	-42.4375	27.875	-2.8863995	-0.66182524	-2.3002186
1276778269984	1.8387469	9.656827	-0.50395286	0.036584854	0.0	25.1875	-42.9375	26.625	-2.2160723	-0.051220283	-0.18815668
1276778270014	-6.4015636	19.041246	8.008764	11.819477	0.0	20.375	-44.1875	26.625	-3.0195298	0.3793623	0.32432348
1276778270044	-9.80665	19.57244	11.536434	14.938856	0.0	15.125	-45.6875	27.875	2.9944918	0.48499417	0.4644823
1276778270084	-7.6546354	18.196785	8.662541	11.751551	0.0	11.0625	-46.9375	29.625	2.9702048	0.41350478	0.39818776
1276778270124	-2.4516625	10.651112	1.5390993	1.2308159	0.0	8.8125	-47.9375	30.125	3.082539	0.13989908	0.22623841
1276778270164	-1.879608	8.894087	-0.53119355	-0.7006149	0.0	8.8125	-48.4375	28.875	3.087969	-0.058367368	0.2082679
1276778270194	-2.7240696	8.281172	0.92618364	-1.0398846	0.0	9.5625	-48.1875	27.875	2.9618194	0.105844654	0.317798
1276778270234	-2.1792557	8.499097	3.5276701	-0.34999847	0.0	9.8125	-48.1875	28.125	3.086184	0.38227892	0.2510027
1276778270274	-1.920469	8.853226	4.5219555	0.3183632	0.0	9.8125	-47.9375	29.375	3.1296906	0.46297544	0.21361355
1276778270314	-1.7297841	8.962189	2.7649305	-0.26946926	0.0	9.5625	-48.4375	30.625	-3.1367846	0.2941335	0.1906646
1276778270354	-1.9477097	9.084772	1.3756552	-0.41414928	0.0	9.3125	-48.4375	30.625	3.1136575	0.14699191	0.21119572
1276778270384	-2.1111538	8.430995	0.88532263	-1.0703783	0.0	9.3125	-48.4375	30.375	3.0641525	0.101512976	0.24535874
1276778270414	-1.8387469	7.9679036	1.1441092	-1.5496855	0.0	9.3125	-48.1875	29.625	3.0928867	0.1390102	0.22679883
1276778270454	-1.525479	8.049625	2.070293	-1.356226	0.0	9.8125	-47.6875	29.625	-3.1228557	0.24751224	0.1872883
1276778270494	-1.7570249	8.62168	2.3018389	-0.71165276	0.0	10.0625	-47.6875	30.375	-3.133509	0.2558713	0.20103854
1276778270534	-2.3426998	8.853226	1.7570249	-0.48168468	0.0	10.0625	-47.6875	30.375	-3.133509	0.2558713	0.20103854
1276778270564	-2.2609777	9.00305	1.6480621	-0.37887	0.0	9.8125	-47.9375	31.125	3.0865536	0.17571191	0.24604629
1276778270604	-1.6889231	9.112013	1.6889231	-0.38679314	0.0	9.0625	-47.9375	31.125	-3.1371663	0.1802687	0.1832714
1276778270634	-1.4165162	9.084772	1.6889231	-0.4582777	0.0	8.3125	-47.9375	30.875	-3.1204498	0.18166246	0.15467657
1276778270674	-1.607201	9.043911	1.6480621	-0.4743662	0.0	8.0625	-47.9375	30.875	3.1300607	0.17752899	0.17587474
1276778270704	-1.7978859	8.771504	1.6480621	-0.70237637	0.0	8.0625	-47.9375	30.125	3.0966663	0.18202421	0.20216879
1276778270734	-1.6480621	8.730643	1.7297841	-0.75499916	0.0	8.3125	-47.9375	30.375	3.1230898	0.19228421	0.18657215
1276778270774	-1.56634	8.853226	1.5390993	-0.6851444	0.0	8.3125	-47.9375	29.875	3.1371799	0.16954413	0.175111
1276778270814	-1.607201	9.275456	1.6889231	-0.24267387	0.0	8.0625	-48.1875	29.875	3.1341531	0.17752309	0.17157105
1276778270854	-1.3756552	9.384419	1.9477097	-0.12401962	0.0	7.5625	-48.4375	30.125	-3.1299806	0.2025369	0.1455526
1276778270894	-1.6889231	9.575105	1.8387469	0.08860588	0.0	7.0625	-48.4375	30.125	3.1039097	0.18690741	0.17459105
1276778270935	-1.56634	9.302697	1.4573772	-0.26109886	0.0	6.8125	-48.4375	30.625	3.1065032	0.15327552	0.16681021
1276778270974	-1.3756552	9.234595	1.2258313	-0.3900242	0.0	7.0625	-48.1875	30.375	3.138449	0.13054784	0.14788008
1276778271015	-1.607201	9.112013	1.2258313	-0.4731331	0.0	7.0625	-48.1875	30.125	3.1025836	0.13171701	0.17458692
1276778271054	-1.4573772	9.152874	1.7297841	-0.37843704	0.0	6.8125	-47.6875	29.625	3.121287	0.18451414	0.15790066
1276778271094	-1.2666923	9.00305	1.879608	-0.52266693	0.0	7.3125	-47.9375	29.375	-3.1270187	0.2038663	0.1397784
1276778271124	-1.4573772	8.853226	1.7570249	-0.66385555	0.0	6.8125	-48.6875	29.125	3.110408	0.19337891	0.16315217
1276778271164	-1.7978859	9.043911	1.5390993	-0.45819855	0.0	6.8125	-48.4375	29.125	3.0665977	0.16538979	0.1962368
1276778271204	-1.56634	9.084772	1.334794	-0.4917059	0.0	7.3125	-48.9375	29.125	3.1107323	0.14379096	0.17073521
1276778271244	-1.4165162	8.921328	1.4982382	-0.6501589	0.0	6.5625	-48.6875	29.375	3.1104379	0.16436487	0.15746415
1276778271284	-1.4165162	9.152874	1.920469	-0.3478012	0.0	6.5625	-47.9375	29.875	3.1199372	0.20445558	0.15354379
1276778271324	-1.4982382	9.193735	1.8387469	-0.31188965	0.0	6.5625	-48.4375	30.125	3.107936	0.1948905	0.1615429
1276778271364	-1.4573772	9.00305	1.7297841	-0.5238161	0.0	5.8125	-48.1875	30.375	3.0911634	0.18743786	0.16048384
1276778271404	-1.2666923	8.962189	1.56634	-0.62085915	0.0	6.5625	-48.1875	30.125	3.1351216	0.17135504	0.14040737
1276778271444	-1.56634	9.193735	1.56634	-0.3498211	0.0	6.5625	-48.1875	29.625	3.0980468	0.16639738	0.16875009
1276778271474	-1.4982382	9.302697	1.607201	-0.24798965	0.0	6.3125	-47.6875	29.125	3.1049097	0.16894333	0.15968296
1276778271514	-1.3756552	9.384419	1.607201	-0.18673134	0.0	6.8125	-47.6875	28.625	3.1367378	0.16785727	0.1455526
1276778271554	-1.525479	9.466142	1.7570249	-0.058724403	0.0	5.8125	-47.9375	28.375	3.0900555	0.18123657	0.1597774
1276778271594	-1.334794	9.343558	1.7978859	-0.19852066	0.0	4.75	-48.1875	28.875	3.0851946	0.18823089	0.14189705
1276778271634	-1.4165162	9.234595	1.6889231	-0.3126135	0.0	4.5	-48.4375	29.125	3.0641034	0.17884493	0.15220597
1276778271664	-1.4982382	9.084772	1.4982382	-0.47806358	0.0	3.75	-48.6875	29.375	3.027375	0.16130581	0.16344634
1276778271694	-1.3075534	9.112013	1.4165162	-0.4929514	0.0	4.0	-48.4375	29.875	3.0626168	0.15268208	0.1425248
1276778271724	-1.2258313	9.152874	1.334794	-0.47608566	0.0	4.25	-48.6875	29.875	3.0800989	0.14354856	0.13313632
1276778271764	-1.3075534	9.043911	1.4982382	-0.54669666	0.0	4.5	-48.6875	30.375	3.07534	0.16251197	0.14358339
1276778271804	-1.334794	9.043911	1.607201	-0.5245657	0.0	4.75	-48.6875	30.375	3.0788834	0.17402796	0.1465325
1276778271844	-1.3756552	9.043911	1.6889231	-0.50411224	0.0	5.0625	-48.9375	30.125	3.080593	0.1825676	0.15095136
1276778271884	-1.3075534	9.112013	1.7297841	-0.44018745	0.0	5.5625	-48.6875	29.875	3.1049078	0.1857447	0.1425248
1276778271924	-1.4165162	9.084772	1.56634	-0.47964573	0.0	5.8125	-49.1875	29.125	3.0920768	0.16873556	0.15467657
1276778271964	-1.334794	9.043911	1.4165162	-0.55567646	0.0	6.0625	-48.9375	29.125	3.1100104	0.1537255	0.1465325
1276778272004	-1.3756552	9.043911	1.4165162	-0.54969215	0.0	5.5625	-48.4375	29.375	3.0927145	0.15362535	0.15095134
1276778272044	-1.56634	9.152874	1.4573772	-0.4070511	0.0	5.0625	-48.1875	29.125	3.0552816	0.15567477	0.16948913
1276778272084	-1.334794	9.084772	1.4573772	-0.509408	0.0	4.25	-47.4375	29.625	3.0684261	0.15740287	0.14588276
1276778272124	-1.2666923	8.962189	1.607201	-0.61380386	0.0	3.75	-47.4375	29.875	3.0641835	0.17573483	0.14040737
1276778272154	-1.3756552	8.894087	1.3075534	-0.7123165	0.0	4.0	-47.9375	29.875	3.0493143	0.14427674	0.15345477
1276778272184	-1.334794	9.043911	1.1168685	-0.596797	0.0	4.0	-48.1875	30.375	3.0562882	0.12156809	0.1465325
1276778272214	-1.3075534	9.234595	1.1168685	-0.41331005	0.0	4.25	-47.9375	30.875	3.0726197	0.11918199	0.1406579
1276778272254	-1.3756552	9.234595	1.3075534	-0.37903786	0.0	4.25	-47.9375	31.375	3.065956	0.13914257	0.14788008
1276778272294	-1.3075534	9.275456	1.2258313	-0.35961628	0.0	3.75	-47.6875	32.125	3.0643883	0.13012524	0.14004636
1276778272334	-1.1849703	9.343558	1.334794	-0.294137	0.0	4.0	-47.4375	32.625	3.0903218	0.14078441	0.12614872
1276778272374	-1.4165162	9.275456	1.2258313	-0.34391975	0.0	4.0	-47.6875	32.125	3.056491	0.12990816	0.1515457
1276778272414	-1.4165162	9.234595	0.9942854	-0.41128635	0.0	4.0	-47.6875	31.375	3.0514526	0.10602577	0.15220597
1276778272454	-1.334794	9.234595	0.88532263	-0.43417835	0.0	4.0	-48.1875	30.625	3.0580528	0.09460092	0.1435486
1276778272494	-1.3075534	9.193735	1.2258313	-0.43984032	0.0	4.0	-47.9375	29.875	3.0640469	0.13124615	0.14127478
1276778272534	-1.4573772	9.234595	1.2258313	-0.37773895	0.0	3.5	-47.9375	30.125	3.0307999	0.13037677	0.15652613
1276778272564	-1.4982382	9.193735	1.3075534	-0.40031338	0.0	3.75	-48.1875	30.375	3.0319233	0.13945933	0.16154292
1276778272594	-1.4982382	9.084772	1.2666923	-0.51244164	0.0	4.0	-47.6875	30.625	3.0384598	0.13671383	0.16344634
1276778272624	-1.4165162	9.00305	1.3075534	-0.59952736	0.0	3.75	-47.9375	31.125	3.0423312	0.14249717	0.15605803
1276778272654	-1.4573772	9.152874	1.2258313	-0.45776176	0.0	4.0	-47.9375	31.125	3.0453076	0.13149919	0.15790068
1276778272684	-1.56634	9.152874	1.1849703	-0.4454174	0.0	3.75	-47.9375	31.375	3.0240805	0.12692322	0.16948913
1276778272714	-1.4165162	9.193735	1.1441092	-0.43433666	0.0	4.0	-47.9375	31.625	3.0519874	0.122378536	0.15287197
1276778272754	-1.334794	9.275456	1.2258313	-0.3558073	0.0	4.0	-48.1875	31.125	3.0635092	0.13007249	0.1429248
1276778272794	-1.56634	9.466142	1.2258313	-0.13380527	0.0	3.75	-48.1875	31.125	3.0293777	0.12707083	0.16398183
1276778272834	-1.7297841	9.425281	1.1168685	-0.15908718	0.0	4.0	-48.4375	31.125	3.01064	0.116027065	0.18150619
1276778272864	-1.525479	9.302697	1.1168685	-0.31377602	0.0	3.5	-48.4375	30.875	3.021561	0.11792649	0.16253586
1276778272914	-1.4982382	9.043911	1.3756552	-0.5368347	0.0	3.5	-47.9375	31.375	3.0271814	0.14895175	0.16417164
1276778272954	-1.4165162	8.962189	1.4165162	-0.6233034	0.0	4.0	-47.9375	31.125	3.0492566	0.15486667	0.15675797
1276778272995	-1.4982382	9.00305	1.2666923	-0.59230614	0.0	3.75	-47.4375	30.875	3.0318427	0.13790631	0.16490333
1276778273034	-1.4165162	9.00305	0.9942854	-0.6387701	0.0	4.0	-47.6875	30.375	3.0440733	0.10866688	0.15605803
1276778273074	-1.2258313	9.152874	0.92618364	-0.5257244	0.0	4.0	-48.1875	30.125	3.0718098	0.09996071	0.13313633
1276778273114	-1.3756552	9.302697	0.8036005	-0.36851597	0.0	3.75	-48.1875	30.375	3.0447335	0.08524721	0.14681305
1276778273144	-1.56634	9.234595	0.61291564	-0.42012596	0.0	3.75	-48.4375	30.625	3.0117502	0.065343894	0.16801743
1276778273184	-1.4573772	9.00305	0.50395286	-0.672493	0.0	3.5	-48.1875	31.625	3.0182123	0.055200372	0.16048384
1276778273224	-1.7297841	9.193735	0.313268	-0.44635868	0.0	2.75	-48.4375	31.875	2.9568632	0.033474013	0.185974
1276778273264	-1.8387469	9.575105	0.313268	-0.051561356	0.0	2.5	-48.9375	32.375	2.9444652	0.032118812	0.18972446
1276778273304	-1.6889231	9.80665	1.0351465	0.19806767	0.0	2.5	-48.6875	32.875	2.9889789	0.10365134	0.17054917
1276778273344	-1.9885708	9.575105	0.19068487	-0.025371552	0.0	2.75	-48.4375	33.125	2.9344463	0.019496117	0.20477046
1276778273384	-2.2201166	8.962189	-0.6946377	-0.5474787	0.0	3.5	-47.9375	33.875	2.8788533	-0.07509214	0.24283198
1276778273424	-1.525479	8.662541	-1.9885708	-0.78882694	0.0	3.75	-47.4375	34.125	2.9456232	-0.22234306	0.17431338
1276778273464	-1.4165162	9.507003	-1.879608	-0.012644768	0.0	3.5	-46.9375	35.125	3.006716	-0.19311215	0.14790902
1276778273504	-1.9477097	8.662541	2.7649305	-0.50729275	0.0	3.25	-46.9375	36.625	2.9965892	0.30188963	0.22116478
1276778273544	-1.3075534	9.80665	7.7772183	2.7776737	0.0	2.5	-46.6875	37.125	3.078008	0.66620696	0.13255154
1276778273584	-2.2609777	11.917805	-7.504812	4.4575815	0.0	1.5	-46.6875	36.375	2.314789	-0.5540411	0.18748617
1276778273624	-0.88532263	8.812365	-2.1383946	-0.6954317	0.0	0.5	-47.1875	35.875	2.9664319	-0.23690899	0.10012773
1276778273664	-1.4982382	9.084772	1.1441092	-0.5283537	0.0	-0.5	-46.6875	34.875	2.9433742	0.12362493	0.16344634
1276778273704	-1.1168685	9.00305	-1.4982382	-0.6117048	0.0	-1.5	-46.4375	35.375	2.8846478	-0.16367127	0.12342389
1276778273735	-1.4982382	8.076866	-1.2258313	-1.5010405	0.0	-2.75	-45.9375	37.375	2.7917366	-0.14813192	0.18341273
1276778273774	-0.08172209	6.973618	-2.4108016	-2.4276261	0.0	-4.25	-45.1875	38.4375	2.923668	-0.33282056	0.011718214
1276778273814	1.1849703	6.4015636	-2.4516625	-2.8500113	0.0	-6.3125	-44.9375	39.6875	-3.0486736	-0.36015636	-0.18303461
1276778273854	0.14982383	6.4015636	-1.2258313	-3.2870545	0.0	-8.5625	-44.1875	40.4375	2.9061432	-0.18914844	-0.023399984
1276778273894	0.7627395	5.134871	-2.8330324	-3.8927054	0.0	-11.3125	-43.1875	39.9375	2.8039188	-0.49956387	-0.14746286
1276778273934	2.0294318	5.284695	-2.1111538	-3.764832	0.0	-14.0625	-42.6875	39.1875	-3.0385184	-0.3569559	-0.3666556
1276778273974	2.5606253	7.3549876	-2.982856	-1.4669809	0.0	-17.875	-41.9375	36.875	2.9729898	-0.3657725	-0.33502412
1276778274014	1.879608	12.367276	-2.6014864	2.9702892	0.0	-22.375	-40.1875	34.875	2.576611	-0.20504166	-0.15082812
1276778274054	2.3699405	9.997335	-2.4516625	0.7562084	0.0	-25.9375	-37.9375	35.125	2.543712	-0.23423831	-0.23276062
1276778274094	4.0588636	9.275456	4.0180025	1.0861368	0.0	-28.6875	-35.875	34.875	2.9023292	0.37779102	-0.41248748
1276778274124	3.0237172	11.536434	-0.84446156	2.1493235	0.0	-29.9375	-34.625	33.375	2.5553994	-0.07068979	-0.25633553
1276778274154	1.6480621	11.563675	-3.1463003	2.290204	0.0	-30.1875	-35.125	31.125	2.2445087	-0.26311794	-0.14156725
1276778274184	3.214402	11.645397	0.53119355	2.285902	0.0	-29.4375	-36.375	28.125	2.5839756	0.04394147	-0.2693174
1276778274214	2.2201166	9.656827	4.8216033	1.2129269	0.0	-28.6875	-37.375	26.625	2.7114954	0.45287094	-0.22597459
1276778274254	-0.7627395	8.662541	5.366417	0.41195202	0.0	-27.6875	-38.1875	27.375	2.5068092	0.55290496	0.08782382
1276778274294	2.5333846	12.067628	4.099725	3.1877108	0.0	-25.1875	-39.4375	25.875	2.7343643	0.32098383	-0.20692731
1276778274334	3.9499009	10.038197	2.4925237	1.264925	0.0	-22.375	-41.4375	21.625	2.9646895	0.2270746	-0.3748792
1276778274374	-1.0351465	5.829509	4.862464	-2.1451712	0.0	-18.125	-43.4375	16.625	2.5514019	0.6875735	0.1757383
1276778274414	0.7627395	3.173541	-1.4982382	-6.215292	0.0	-12.3125	-45.6875	10.8125	0.12998807	-0.43033877	-0.23586962
1276778274454	-0.46309182	3.990762	-1.1168685	-5.6367545	0.0	-7.3125	-46.9375	7.5625	1.1966739	-0.2711513	0.11552427
1276778274494	-9.997335	17.774553	5.829509	11.403362	0.0	-5.0625	-47.6875	6.5625	2.121138	0.2784306	0.5123531
1276778274534	-3.759216	10.760075	1.6889231	1.7156487	0.0	-5.8125	-47.6875	7.3125	2.1392217	0.14710867	0.3361109
1276778274564	-0.5720546	6.510526	4.140586	-2.0698128	0.0	-8.0625	-47.9375	11.0625	2.801204	0.56471854	0.08764104
1276778274604	-0.84446156	9.507003	7.082581	2.0786	0.0	-10.3125	-48.1875	15.375	2.7962708	0.63840276	0.08859271
1276778274644	-1.1441092	9.343558	4.440233	0.6013632	0.0	-11.0625	-47.9375	20.375	2.7266617	0.44074878	0.121842444
1276778274674	-2.7921712	9.997335	0.040861044	0.5733595	0.0	-10.5625	-48.1875	23.125	2.359659	0.0039365236	0.27235162
1276778274704	-2.3018389	9.656827	-0.38136974	0.12804699	0.0	-10.3125	-47.9375	22.875	2.3565078	-0.038397092	0.2339974
1276778274737	-1.920469	9.575105	0.42223078	-0.03172779	0.0	-10.3125	-47.6875	21.875	2.4551785	0.04320875	0.1979426
1276778274774	-0.95342433	9.00305	0.88532263	-0.7100725	0.0	-10.0625	-47.6875	19.125	2.5735202	0.097479105	0.10550691
1276778274814	-1.1441092	8.580819	-0.9942854	-1.0929804	0.0	-9.8125	-47.6875	17.625	2.2239063	-0.11435547	0.13255154
1276778274844	-2.6014864	9.00305	0.5720546	-0.41783333	0.0	-9.5625	-47.6875	17.125	2.292177	0.060967125	0.28129426
1276778274874	-2.9556155	9.152874	1.1441092	-0.12059116	0.0	-9.5625	-47.6875	17.125	2.292177	0.060967125	0.28129426
1276778274904	-2.3018389	8.499097	0.6946377	-0.97400475	0.0	-9.5625	-47.6875	17.875	2.3456392	0.07872565	0.2644884
1276778274944	-1.4573772	9.043911	1.1441092	-0.57489777	0.0	-9.3125	-47.4375	18.375	2.5296547	0.124251425	0.15977107
1276778274974	-1.1441092	9.234595	0.84446156	-0.463212	0.0	-9.0625	-47.4375	18.625	2.5630703	0.09050368	0.12326568
1276778275014	-1.7570249	9.697687	1.1849703	0.11990166	0.0	-8.5625	-47.4375	19.125	2.5359035	0.119659156	0.17923547
1276778275055	-2.3699405	9.384419	1.1849703	-0.055337906	0.0	-8.3125	-47.1875	19.875	2.4771273	0.12182013	0.24736774
1276778275104	-1.6480621	8.62168	0.50395286	-1.0144119	0.0	-8.3125	-47.4375	20.125	2.4962199	0.057349358	0.18887477
1276778275134	-1.1849703	9.302697	-0.8036005	-0.39441872	0.0	-8.3125	-46.9375	20.375	2.429226	-0.08548239	0.12669691
1276778275164	-1.6480621	9.697687	-0.040861044	0.030163765	0.0	-8.3125	-47.1875	20.375	2.4683342	-0.004153902	0.16833557
1276778275194	-2.1111538	9.425281	2.2609777	0.113274574	0.0	-8.3125	-47.1875	20.625	2.5932267	0.22994389	0.22035141
1276778275224	-1.920469	8.730643	2.4516625	-0.5371847	0.0	-8.8125	-47.1875	20.875	2.60925	0.267673	0.21652053
1276778275255	-1.2666923	8.853226	0.38136974	-0.8551388	0.0	-9.0625	-47.6875	21.125	2.5431435	0.042616848	0.14211243
1276778275294	-1.920469	9.997335	-0.8036005	0.40514183	0.0	-9.0625	-47.4375	21.125	2.3471274	-0.07877484	0.18978615
1276778275334	-3.5957718	9.152874	0.92618364	0.07072258	0.0	-9.5625	-47.4375	21.375	2.333742	0.09390617	0.3743336
1276778275364	-2.5333846	9.343558	1.1849703	-0.05348301	0.0	-9.5625	-47.4375	21.125	2.4516618	0.121796854	0.2647713
1276778275394	-1.607201	9.384419	0.95342433	-0.23798084	0.0	-9.0625	-47.4375	20.625	2.5465894	0.09980583	0.16961713
1276778275424	-0.6537767	8.730643	-0.42223078	-1.0413876	0.0	-9.3125	-47.1875	20.625	2.5325975	-0.04818957	0.074743494
1276778275464	-2.1383946	8.812365	0.46309182	-0.7267294	0.0	-8.8125	-47.4375	19.875	2.4121494	0.051023882	0.2380571
1276778275504	-3.2961242	10.528529	1.3756552	1.3112087	0.0	-8.3125	-47.1875	19.375	2.4090223	0.12405174	0.3034004
1276778275544	-0.88532263	9.00305	3.5276701	-0.09669876	0.0	-8.5625	-46.9375	18.875	2.7759154	0.37181243	0.09802071
1276778275584	-0.9125633	8.921328	1.9477097	-0.62969875	0.0	-8.5625	-47.1875	17.375	2.6797056	0.21386589	0.10193555
1276778275624	-3.6774938	10.841797	3.445948	2.14923	0.0	-9.0625	-46.6875	15.125	2.4123363	0.29236954	0.32701764
1276778275664	-4.0588636	10.923519	2.9147544	2.2055702	0.0	-9.0625	-46.4375	13.375	2.316217	0.24509563	0.35576108
1276778275694	-3.214402	9.275456	2.2609777	0.267004	0.0	-7.8125	-46.4375	10.5625	2.2846615	0.22637312	0.3335973
1276778275724	-3.0237172	8.308413	1.920469	-0.758955	0.0	-5.5625	-46.1875	8.5625	2.2558358	0.21388766	0.3490342
1276778275754	-3.1463003	8.662541	0.14982383	-0.58920574	0.0	-2.5	-46.4375	7.5625	1.9966503	0.016255094	0.3483922
1276778275794	-4.399372	10.079058	-0.46309182	1.2004538	0.0	-0.0	-46.9375	6.8125	1.8308741	-0.042084508	0.41155943
1276778275834	-3.2961242	8.730643	2.1111538	-0.23870754	0.0	1.0	-47.1875	7.3125	2.393501	0.22247949	0.36099136
1276778275874	-1.0760075	4.9850473	1.9885708	-4.3328123	0.0	1.5	-47.6875	8.0625	2.8049555	0.37179285	0.21258558
1276778275914	-2.3426998	7.5865335	0.9942854	-1.8046293	0.0	1.25	-47.6875	9.0625	2.422238	0.124576256	0.29950786
1276778275944	-2.6423476	7.43671	0.92618364	-1.8603005	0.0	1.0	-47.9375	8.8125	2.3201685	0.11682013	0.3413987
1276778275974	-2.3426998	7.8180795	1.5390993	-1.5012636	0.0	0.75	-47.4375	9.3125	2.5094845	0.18639077	0.2911371
1276778276014	-2.5333846	8.730643	0.95342433	-0.6660166	0.0	0.5	-46.9375	9.3125	2.4079938	0.104496226	0.28241572
1276778276054	-2.4925237	8.390134	-0.46309182	-1.0418634	0.0	0.25	-47.4375	9.3125	2.0499005	-0.052860107	0.28877386
1276778276104	-3.8681788	9.915613	2.3018389	1.0828238	0.0	-0.25	-47.4375	11.8125	2.444506	0.2129887	0.37195146
1276778276134	-1.9477097	8.499097	0.10896278	-1.0865536	0.0	-1.0	-47.9375	13.375	2.4445906	0.012495918	0.22527678
1276778276164	-2.6014864	9.00305	1.1441092	-0.36569595	0.0	-2.0	-48.6875	15.375	2.5045662	0.12148436	0.28129426
1276778276194	-2.8738933	9.00305	2.9556155	0.09536171	0.0	-2.75	-48.9375	17.375	2.6170685	0.30310634	0.30898917
1276778276224	-3.1054392	10.147159	3.0645783	1.2387209	0.0	-3.5	-48.6875	17.625	2.6047816	0.28114265	0.29698908
1276778276254	-2.4925237	8.894087	0.92618364	-0.5235863	0.0	-3.75	-48.9375	17.375	2.4864974	0.09993761	0.27323592
1276778276294	-1.6480621	8.308413	-0.9942854	-1.278202	0.0	-4.0	-48.6875	17.125	2.2815003	-0.1168503	0.19581877
1276778276334	-2.070293	9.697687	-1.0760075	0.16776848	0.0	-4.25	-48.4375	16.375	2.2390852	-0.108087055	0.2103259
1276778276364	-3.1054392	8.430995	-0.0	-0.82191753	0.0	-4.25	-48.6875	15.875	2.2223306	-0.0	0.35291553
1276778276394	-2.1111538	8.62168	2.6423476	-0.54531384	0.0	-4.5	-48.6875	16.625	2.6404884	0.28932938	0.24014059
1276778276434	-0.50395286	9.697687	2.2609777	0.16386223	0.0	-4.5	-48.6875	17.125	2.8929515	0.22875635	0.051919594
1276778276474	-3.3642259	9.724928	0.7627395	0.51197433	0.0	-5.3125	-48.6875	17.875	2.3600233	0.073986195	0.33305186
1276778276514	-2.3699405	9.193735	-0.7627395	-0.28178024	0.0	-6.3125	-48.4375	17.875	2.2328465	-0.08016456	0.25228542
1276778276554	-0.84446156	8.390134	0.040861044	-1.3740273	0.0	-6.8125	-48.1875	17.375	2.5587978	0.0048456104	0.10031154
1276778276594	-1.0351465	8.62168	1.4165162	-1.0082741	0.0	-8.0625	-48.1875	17.375	2.633594	0.16170122	0.11949122
1276778276634	-1.4573772	9.656827	1.9477097	0.15185547	0.0	-9.0625	-47.9375	17.375	2.5875332	0.19685142	0.14978643
1276778276664	-0.84446156	8.921328	0.84446156	-0.8057442	0.0	-10.0625	-47.6875	17.875	2.5618398	0.093957804	0.0943753
1276778276694	-0.29964766	9.847511	-0.23154591	0.048139572	0.0	-11.3125	-47.6875	18.375	2.5050209	-0.023497937	0.030419385
1276778276724	-0.9125633	9.575105	0.53119355	-0.17350101	0.0	-12.3125	-46.9375	18.125	2.460302	0.05517024	0.09501883
1276778276764	-0.53119355	9.043911	1.0351465	-0.6882067	0.0	-13.5625	-46.1875	18.875	2.5444915	0.113767534	0.058667537
1276778276804	-1.0351465	10.18802	2.6014864	0.75909615	0.0	-15.125	-45.9375	19.375	2.5554323	0.2487771	0.1012568
1276778276844	0.19068487	8.962189	1.1849703	-0.76445293	0.0	-16.625	-44.6875	19.125	2.579175	0.13142696	-0.021273388
1276778276885	1.1849703	9.507003	0.8036005	-0.19244003	0.0	-18.125	-44.4375	19.625	2.6518393	0.08368229	-0.124002315
1276778276924	0.19068487	9.112013	1.7978859	-0.517004	0.0	-18.625	-43.6875	19.125	2.5660672	0.19476557	-0.020923702
1276778276964	0.7218784	8.962189	1.6889231	-0.65818596	0.0	-19.125	-43.1875	19.125	2.6182203	0.18567783	-0.0803736
1276778277004	0.61291564	9.507003	1.56634	-0.15200424	0.0	-19.875	-43.1875	19.625	2.5708392	0.16295718	-0.06438082
1276778277044	-0.23154591	8.390134	1.0760075	-1.3446321	0.0	-20.875	-42.6875	19.625	2.4153142	0.1275025	0.0275904
1276778277084	0.23154591	9.384419	1.2258313	-0.3396759	0.0	-21.625	-43.1875	18.875	2.441068	0.1298496	-0.024668435
1276778277124	2.8738933	10.882658	2.4925237	1.7217569	0.0	-21.875	-42.9375	18.125	2.791276	0.21792802	-0.25818598
1276778277154	0.95342433	8.62168	1.6889231	-0.96952057	0.0	-22.125	-43.1875	18.125	2.5640142	0.19229971	-0.110137016
1276778277194	-0.9125633	9.343558	1.4982382	-0.2998333	0.0	-21.375	-42.4375	17.875	2.3274775	0.15825596	0.09735886
1276778277234	1.0351465	9.384419	2.3426998	-0.07900429	0.0	-21.125	-42.1875	18.375	2.6200204	0.24321996	-0.109860666
1276778277274	1.3756552	8.281172	1.2666923	-1.316966	0.0	-20.625	-42.4375	18.375	2.6484776	0.14976291	-0.16461521
1276778277314	-0.27240697	10.378705	1.4982382	0.68317604	0.0	-20.125	-42.1875	17.875	2.409967	0.14331785	0.026240695
1276778277386	0.313268	9.112013	1.4982382	-0.56697273	0.0	-19.375	-43.1875	17.875	2.515892	0.16287178	-0.034366135
1276778277424	-0.50395286	9.656827	1.879608	0.044299126	0.0	-18.875	-43.4375	17.375	2.4431338	0.19198191	0.052138876
1276778277464	0.7218784	8.580819	1.4165162	-1.0797901	0.0	-18.375	-43.1875	17.125	2.5948029	0.16303816	-0.08392936
1276778277504	-0.5720546	10.501288	0.95342433	0.7533369	0.0	-17.875	-43.6875	17.375	2.3786638	0.09040962	0.054420922
1276778277544	-0.7218784	8.62168	1.9477097	-0.9382763	0.0	-17.625	-43.9375	16.875	2.4522378	0.22142927	0.083533436
1276778277584	-0.27240697	9.112013	2.152015	-0.43999958	0.0	-16.375	-44.6875	16.875	2.5539217	0.23182377	0.029886466
1276778277624	-0.7218784	9.193735	1.7978859	-0.41099834	0.0	-15.875	-45.6875	16.875	2.4823868	0.1925404	0.07835775
1276778277654	-0.8036005	8.580819	0.95342433	-1.1357069	0.0	-14.8125	-46.1875	15.875	2.3971584	0.11017902	0.09337843
1276778277684	-0.46309182	9.084772	0.5720546	-0.6921129	0.0	-13.5625	-46.6875	15.375	2.4236214	0.06280416	0.05093043
1276778277714	-0.29964766	10.079058	1.4982382	0.3875599	0.0	-12.8125	-46.6875	14.625	2.5531015	0.14750382	0.029720975
1276778277744	0.27240697	9.00305	2.4925237	-0.46096706	0.0	-12.0625	-46.9375	14.375	2.7594025	0.26997072	-0.030247958
1276778277784	-0.61291564	8.689782	2.152015	-0.8334036	0.0	-11.5625	-47.1875	14.625	2.610564	0.2421863	0.070416294
1276778277824	-1.525479	9.656827	1.6480621	0.10785961	0.0	-11.8125	-47.4375	14.375	2.4196484	0.1670025	0.15667431
1276778277864	-2.6014864	9.765789	1.7570249	0.45129776	0.0	-12.8125	-47.4375	14.625	2.293705	0.17213303	0.26034197
1276778277904	-2.2609777	9.534244	2.7649305	0.3746395	0.0	-12.8125	-46.9375	14.625	2.4047153	0.27502376	0.23284169
1276778277944	-2.5333846	9.956474	3.445948	1.0295839	0.0	-11.8125	-46.6875	14.125	2.4341948	0.32362172	0.2491587
1276778277984	-3.214402	9.888372	3.8273177	1.2730904	0.0	-10.0625	-46.9375	13.875	2.419977	0.35270107	0.3142942
1276778278024	-0.95342433	8.008764	1.9885708	-1.4998016	0.0	-7.0625	-47.4375	12.875	2.650111	0.24173684	0.118489966
1276778278064	-2.5333846	9.847511	3.1463003	0.83716106	0.0	-3.75	-47.6875	10.8125	2.5621161	0.3000825	0.25180116
1276778278104	-4.3312707	9.697687	1.6480621	0.9414263	0.0	-1.0	-47.6875	9.0625	2.223636	0.15394285	0.42004725
1276778278144	-2.7240696	7.8861814	2.1792557	-1.1833353	0.0	1.0	-47.1875	6.3125	2.4499097	0.25548708	0.33259165
1276778278184	-4.0588636	8.076866	3.3778462	-0.1567812	0.0	3.0	-46.4375	3.8125	2.3669784	0.3576145	0.46566918
1276778278224	-4.944186	7.3549876	2.5606253	-0.58181286	0.0	5.3125	-46.1875	1.5625	2.1163218	0.28127363	0.5918389
1276778278264	-4.4810944	7.6273947	2.6832085	-0.56235695	0.0	7.0625	-45.4375	-0.1875	2.1964834	0.294494	0.5311776
1276778278304	-3.7864566	7.0553403	2.6423476	-1.3747416	0.0	9.5625	-44.4375	-0.6875	2.3736172	0.31874475	0.49255887
1276778278344	-5.284695	8.117727	2.9147544	0.3087492	0.0	11.5625	-43.6875	-1.4375	2.2313747	0.29229453	0.57708263
1276778278384	-4.903325	6.469665	1.7297841	-1.5065708	0.0	13.0625	-42.9375	-1.6875	2.0010924	0.20994462	0.64853466
1276778278424	-6.0474343	7.5865335	2.8738933	0.31195736	0.0	14.5625	-42.4375	-2.1875	2.1524518	0.28798482	0.6729869
1276778278464	-3.9771416	5.829509	1.2258313	-2.6440048	0.0	15.125	-42.4375	-2.6875	1.9693979	0.17198892	0.59870887
1276778278504	-4.7126403	5.8567495	3.718355	-1.4199553	0.0	14.8125	-42.4375	-2.6875	2.3976362	0.45934775	0.6775706
1276778278544	-3.7864566	5.243834	2.3426998	-2.9274573	0.0	14.5625	-42.1875	-2.6875	2.3214211	0.34750035	0.6253902
1276778278584	-5.7477865	7.8589406	2.7921712	0.32232857	0.0	14.5625	-42.4375	-2.1875	2.201473	0.27927798	0.6314703
1276778278624	-5.8158884	6.4424243	3.214402	-0.55128574	0.0	14.8125	-41.6875	-1.6875	2.210775	0.35469195	0.7343315
1276778278664	-5.325556	6.2789803	3.7864566	-0.7443991	0.0	15.625	-41.4375	-0.9375	2.409801	0.43105263	0.70342267
1276778278694	-4.7943625	7.246025	3.8273177	-0.3124857	0.0	16.125	-41.1875	-0.4375	2.642766	0.41492704	0.5845244
1276778278724	-6.3198414	6.742072	2.6423476	-0.19530582	0.0	16.125	-40.6875	-0.6875	2.1511807	0.27850613	0.75308406
1276778278764	-5.407278	6.238119	3.255263	-0.9325571	0.0	16.125	-41.1875	-1.1875	2.3352642	0.3755967	0.7141738
1276778278804	-4.5628166	6.701211	3.759216	-0.87036324	0.0	15.625	-41.1875	-2.1875	2.5721781	0.4341823	0.597788
1276778278844	-5.6660647	7.082581	3.214402	-0.18378067	0.0	14.8125	-41.1875	-3.1875	2.2236135	0.3405842	0.6747409
1276778278874	-5.366417	6.701211	3.718355	-0.45085907	0.0	14.3125	-40.9375	-3.9375	2.2906854	0.4087241	0.6752365
1276778278914	-3.759216	5.8976107	3.9090397	-1.794528	0.0	13.3125	-40.9375	-4.4375	2.5618432	0.5096716	0.56747603
1276778278954	-4.2904096	7.014479	4.7126403	-0.32933426	0.0	12.8125	-40.4375	-4.9375	2.5808475	0.52043176	0.548942
1276778278994	-5.284695	7.3549876	2.5606253	-0.39492035	0.0	12.0625	-40.9375	-5.1875	1.9714215	0.27554086	0.6230467
1276778279034	-5.8567495	7.246025	3.8273177	0.26582527	0.0	11.0625	-41.1875	-5.1875	2.0959	0.3897724	0.6797637
1276778279074	-3.568531	6.5922484	3.9090397	-1.3524942	0.0	10.3125	-41.6875	-4.9375	2.5136237	0.48067847	0.49615645
1276778279114	-3.759216	7.8180795	3.405087	-0.48738575	0.0	9.3125	-42.4375	-3.9375	2.4380221	0.37404263	0.44819945
1276778279144	-5.284695	7.5865335	3.759216	0.17409134	0.0	8.5625	-42.9375	-2.4375	2.20392	0.38617402	0.60843295
1276778279184	-3.173541	7.3549876	3.6774938	-0.99239063	0.0	8.0625	-43.6875	-1.1875	2.6137521	0.43038526	0.4073477
1276778279224	-3.2961242	7.3549876	4.5628166	-0.5449238	0.0	7.3125	-44.1875	0.0625	2.6520662	0.5151357	0.42131287
1276778279264	-4.903325	8.894087	4.862464	1.4534979	0.0	6.3125	-44.4375	0.3125	2.4282155	0.44652018	0.50384206
1276778279304	-3.5957718	7.3141265	4.0180025	-0.7198267	0.0	5.3125	-44.4375	0.3125	2.4773145	0.45802662	0.45692125
1276778279344	-4.2495484	8.240311	2.982856	-0.06710148	0.0	4.0	-44.1875	-0.1875	2.2099638	0.31126413	0.47613052
1276778279384	-4.2086873	7.7772183	1.607201	-0.81881046	0.0	3.0	-43.1875	-1.6875	1.8628792	0.17978647	0.49602774
1276778279424	-3.255263	7.668256	2.5606253	-1.0913944	0.0	1.75	-42.9375	-2.4375	2.1295762	0.29820985	0.40145683
1276778279464	-2.3699405	7.8861814	3.255263	-0.9519787	0.0	0.75	-42.6875	-3.1875	2.380526	0.37646174	0.29193208
1276778279504	-2.6014864	8.158588	5.6660647	0.46148396	0.0	-0.5	-42.6875	-3.1875	2.5427318	0.5845337	0.30867285
1276778279544	-4.3312707	8.771504	4.671779	1.0342321	0.0	-2.0	-42.6875	-2.6875	2.1551836	0.44553515	0.45866632
1276778279584	-6.742072	8.689782	-0.6946377	1.2138023	0.0	-2.5	-42.4375	-2.4375	1.4131453	-0.0630735	0.6598484
1276778279624	-2.7240696	8.812365	3.255263	-0.025286674	0.0	-2.75	-42.1875	-1.1875	2.2436943	0.33927402	0.29980177
1276778279654	-0.6537767	8.281172	3.1054392	-0.93822384	0.0	-1.5	-42.9375	-0.1875	2.8228474	0.35775045	0.07878396
1276778279694	-2.3018389	7.8861814	3.214402	-0.9849329	0.0	0.25	-44.1875	1.3125	2.513076	0.37296018	0.28399307
1276778279724	-5.434519	8.894087	3.1463003	1.0808649	0.0	1.5	-45.9375	3.3125	2.1468127	0.29316372	0.5484875
1276778279764	-5.012288	7.1234417	3.173541	-0.5363846	0.0	2.25	-47.1875	3.8125	2.1685946	0.3494015	0.61316
1276778279804	-3.6774938	6.851035	2.6832085	-1.5810652	0.0	2.75	-47.1875	4.0625	2.30144	0.3322838	0.49263632
1276778279844	-2.8738933	5.8976107	1.9477097	-2.963066	0.0	4.0	-47.1875	3.8125	2.3307116	0.28859305	0.45343438
1276778279874	-1.3756552	4.6036777	1.0760075	-4.8828235	0.0	5.0625	-46.6875	2.5625	2.5469582	0.22030856	0.29037073
1276778279904	-0.61291564	4.3312707	0.6537767	-5.3836427	0.0	6.0625	-46.4375	1.5625	3.08216	0.14835632	0.14057605
1276778279944	2.7649305	4.2086873	-0.6537767	-4.728726	0.0	7.0625	-46.1875	-0.1875	-1.4229305	-0.12910718	-0.581251
1276778280004	-0.9125633	17.774553	2.152015	8.120945	0.0	6.0625	-45.9375	0.0625	-2.558354	0.12032942	0.05129596
1276778280064	-5.5571017	8.008764	7.4639506	2.4706554	0.0	2.0	-45.9375	7.3125	2.4466898	0.65347224	0.60660505
1276778280094	-9.956474	8.008764	10.038197	6.442568	0.0	-2.0	-45.6875	14.375	2.221059	0.6658972	0.89339185
1276778280124	-2.9147544	8.076866	-1.6889231	-1.0554199	0.0	-6.5625	-46.1875	21.375	2.108107	-0.19421123	0.34633166
1276778280154	-4.0180025	9.697687	-1.2258313	0.76180077	0.0	-10.3125	-46.1875	26.375	2.2442005	-0.11625135	0.39279494
1276778280194	-3.336985	9.152874	-0.42223078	-0.055298805	0.0	-10.5625	-46.6875	24.875	2.299014	-0.04331326	0.3496071
1276778280234	-1.8387469	8.539958	-0.53119355	-1.0548477	0.0	-10.8125	-47.1875	22.875	2.3480427	-0.06073266	0.2120734
1276778280274	-1.6889231	8.962189	-0.46309182	-0.6749611	0.0	-11.0625	-47.4375	21.375	2.3415146	-0.05073438	0.18626538
1276778280314	-1.4982382	9.507003	-0.7218784	-0.15528107	0.0	-10.5625	-47.9375	19.875	2.3126106	-0.074865356	0.15630758
1276778280354	-1.4982382	9.615966	-0.08172209	-0.0743227	0.0	-10.3125	-47.9375	19.125	2.388417	-0.008397072	0.1545646
1276778280384	-1.607201	9.425281	0.7627395	-0.21494675	0.0	-9.8125	-47.6875	19.875	2.4946966	0.079604805	0.16889574
1276778280414	-1.7978859	9.152874	1.2258313	-0.39866638	0.0	-9.0625	-47.6875	21.875	2.5608563	0.13066845	0.19395913
1276778280454	-1.9885708	9.084772	1.2666923	-0.42091656	0.0	-9.3125	-47.4375	23.875	2.5658498	0.13537242	0.21549183
1276778280494	-1.879608	9.00305	0.8036005	-0.5744448	0.0	-9.5625	-47.1875	25.375	2.5635228	0.087153465	0.20581825
1276778280534	-2.1111538	9.466142	0.3405087	-0.10197353	0.0	-9.0625	-47.1875	26.625	2.5451198	0.035094276	0.21943057
1276778280574	-2.070293	9.466142	0.10896278	-0.11614895	0.0	-9.3125	-47.1875	26.875	2.5303562	0.011244524	0.21531479
1276778280614	-1.6480621	9.343558	0.040861044	-0.3187704	0.0	-9.0625	-47.4375	26.625	2.5722656	0.0043066707	0.17458904
1276778280644	-1.7297841	9.302697	-0.0	-0.34449768	0.0	-8.3125	-47.1875	26.875	2.5829418	-0.0	0.18384472
1276778280684	-2.3018389	9.275456	0.3405087	-0.24377918	0.0	-8.8125	-46.9375	26.625	2.5272975	0.0356149	0.24325037
1276778280724	-2.6832085	9.193735	0.61291564	-0.20977402	0.0	-9.0625	-46.1875	27.125	2.512551	0.06390966	0.28396475
1276778280764	-2.1792557	9.302697	0.92618364	-0.20731926	0.0	-8.3125	-45.4375	27.625	2.6127055	0.09663452	0.23011118
1276778280804	-2.2201166	9.425281	0.8036005	-0.090138435	0.0	-8.0625	-45.6875	27.625	2.608558	0.08279921	0.23133229
1276778280844	-2.3426998	9.275456	0.6537767	-0.21760654	0.0	-7.3125	-45.9375	27.625	2.5998745	0.068232484	0.24739578
1276778280874	-2.6832085	9.302697	0.50395286	-0.11161232	0.0	-7.0625	-46.6875	26.625	2.5413926	0.05200393	0.28081173
1276778280914	-2.7513103	9.112013	0.3405087	-0.282238	0.0	-6.8125	-47.4375	26.625	2.51856	0.035758775	0.2932386
1276778280954	-2.6832085	8.921328	0.313268	-0.48528576	0.0	-6.5625	-47.1875	26.125	2.5168958	0.033613857	0.292157
1276778280994	-2.5333846	8.771504	0.38136974	-0.66866493	0.0	-6.0625	-47.4375	25.375	2.531904	0.04174668	0.28116846
1276778281034	-2.4108016	9.384419	0.6946377	-0.09264946	0.0	-4.75	-47.9375	25.375	2.6167512	0.07157001	0.2514566
1276778281074	-1.9885708	10.147159	0.92618364	0.57492256	0.0	-4.25	-47.6875	24.875	2.7088013	0.08933296	0.19352062
1276778281114	-1.334794	10.337844	0.84446156	0.65116024	0.0	-4.25	-47.6875	24.625	2.7920878	0.08083738	0.12840684
1276778281144	-1.1849703	9.234595	0.84446156	-0.45812035	0.0	-4.0	-47.4375	24.375	2.8037539	0.09045425	0.12762119
1276778281184	-1.1168685	8.19945	1.1441092	-1.4527674	0.0	-3.5	-46.4375	24.875	2.8361657	0.13738717	0.13537945
1276778281224	-0.61291564	7.7772183	1.2666923	-1.903151	0.0	-3.25	-45.9375	25.125	2.9313717	0.160964	0.07864656
1276778281264	0.19068487	7.7772183	1.2666923	-1.9246454	0.0	-2.5	-45.4375	25.375	3.098796	0.16140679	-0.024513477
1276778281304	0.50395286	8.771504	2.1792557	-0.7544451	0.0	-2.75	-44.9375	25.625	3.1368906	0.24313137	-0.057390325
1276778281344	-0.5720546	9.384419	4.140586	0.46656895	0.0	-3.25	-44.9375	25.125	2.9967773	0.41484335	0.06088258
1276778281384	0.19068487	9.384419	2.7921712	-0.013800621	0.0	-3.75	-44.6875	23.625	3.06151	0.28913525	-0.02031651
1276778281424	0.040861044	8.921328	3.8273177	-0.0989151	0.0	-4.75	-44.6875	22.125	3.02242	0.40525645	-0.0045801206
1276778281464	-0.23154591	8.349273	3.2961242	-0.8273182	0.0	-5.3125	-44.1875	20.125	2.956372	0.37586686	0.02772536
1276778281504	-1.4165162	9.425281	3.214402	0.2519188	0.0	-6.8125	-43.6875	17.375	2.7255974	0.32527408	0.1491726
1276778281544	-2.7240696	10.460427	3.2961242	1.4940367	0.0	-8.0625	-43.1875	16.125	2.536575	0.29597718	0.2547583
1276778281584	-3.405087	9.915613	2.6832085	1.015254	0.0	-8.3125	-42.9375	14.375	2.3898182	0.25055572	0.33078894
1276778281624	-3.2961242	8.499097	2.1792557	-0.43391132	0.0	-8.3125	-42.9375	13.375	2.3192806	0.23465765	0.36996296
1276778281654	-2.982856	7.6273947	1.607201	-1.4605331	0.0	-7.3125	-42.6875	12.875	2.295022	0.19377919	0.37278572
1276778281694	-2.6423476	8.008764	0.7627395	-1.3388243	0.0	-6.3125	-43.1875	11.8125	2.2348187	0.09019726	0.31868625
1276778281734	-2.4925237	8.049625	0.38136974	-1.3713322	0.0	-5.8125	-42.6875	12.0625	2.2206688	0.045226485	0.30028147
1276778281774	-2.8738933	8.771504	0.7627395	-0.5448828	0.0	-5.5625	-42.4375	13.125	2.2918339	0.082446925	0.31661758
1276778281814	-3.2961242	10.147159	2.2201166	1.0909729	0.0	-5.3125	-42.6875	14.875	2.460361	0.20516106	0.31408015
1276778281854	-0.53119355	13.6748295	5.134871	4.8101215	0.0	-5.3125	-42.9375	18.875	2.9312613	0.35895917	0.0388251
1276778281884	1.4165162	8.812365	6.0474343	0.97461796	0.0	-5.0625	-43.9375	21.875	-3.0955865	0.5954973	-0.15937854
1276778281924	-0.9942854	6.8237944	1.3075534	-2.7879272	0.0	-5.0625	-44.4375	23.625	2.7914975	0.18738984	0.14469033
1276778281964	-1.2258313	6.238119	-0.53119355	-3.4270763	0.0	-5.8125	-44.6875	23.625	2.519858	-0.08336125	0.19403422
1276778282004	-2.2201166	9.765789	-0.3405087	0.21410275	0.0	-6.3125	-44.4375	21.875	2.4771888	-0.033986893	0.22353688
1276778282044	-2.9147544	11.114203	0.53119355	1.6956749	0.0	-6.5625	-43.4375	19.875	2.4670465	0.04619784	0.25647902
1276778282084	-2.6423476	8.117727	0.61291564	-1.2477274	0.0	-6.5625	-43.4375	18.875	2.4034438	0.071672656	0.3146871
1276778282124	-3.255263	8.049625	0.50395286	-1.1091118	0.0	-6.0625	-43.4375	19.125	2.3420575	0.05797448	0.38429317
1276778282154	-2.7921712	10.18802	0.6946377	0.77987385	0.0	-5.8125	-43.6875	19.875	2.4901407	0.06566246	0.267496
1276778282194	-1.3075534	10.228881	1.607201	0.62995815	0.0	-5.3125	-44.1875	21.375	2.7683704	0.15461174	0.12714005
1276778282224	-1.4982382	9.915613	2.4108016	0.50722694	0.0	-5.0625	-44.4375	23.375	2.8006518	0.23592608	0.14996448
1276778282254	-1.920469	9.275456	1.7570249	-0.17288494	0.0	-4.5	-44.4375	25.375	2.7524624	0.1834085	0.20416366
1276778282284	-1.4982382	8.662541	0.8036005	-0.97884655	0.0	-3.75	-44.6875	26.375	2.7833984	0.09115682	0.17126168
1276778282314	-0.95342433	8.390134	0.9942854	-1.304182	0.0	-3.75	-45.1875	27.625	2.8774157	0.11720898	0.113150984
1276778282354	-2.1111538	8.580819	1.7978859	-0.7889004	0.0	-3.5	-45.4375	28.125	2.7663884	0.2007169	0.24124037
1276778282384	-3.445948	9.275456	1.6889231	0.23133373	0.0	-3.5	-45.6875	27.625	2.6306167	0.16905737	0.3557096
1276778282424	-2.9556155	9.425281	1.1441092	0.13722038	0.0	-3.25	-46.1875	27.875	2.6634278	0.11531211	0.30387196
1276778282464	-0.9125633	9.534244	0.8036005	-0.1951809	0.0	-3.0	-46.1875	27.625	2.9101715	0.08370621	0.095423594
1276778282504	-1.0760075	9.112013	0.88532263	-0.5887127	0.0	-3.0	-45.9375	26.375	2.8747082	0.09619174	0.11754236
1276778282544	-1.2258313	9.043911	0.53119355	-0.6645956	0.0	-2.75	-45.9375	26.375	2.8435285	0.05813714	0.13472116
1276778282574	-1.9477097	8.812365	0.95342433	-0.73138905	0.0	-2.75	-44.9375	26.375	2.759053	0.10525174	0.2175231
1276778282614	-3.1054392	8.921328	1.2258313	-0.2810793	0.0	-3.25	-44.9375	25.875	2.619114	0.12904635	0.33497366
1276778282644	-3.1463003	8.771504	1.2666923	-0.40223598	0.0	-2.75	-45.1875	26.375	2.6293867	0.13510187	0.34440038
1276778282684	-2.4516625	8.962189	1.1441092	-0.4450016	0.0	-3.25	-44.9375	26.125	2.692671	0.12251866	0.26702344
1276778282714	-1.1849703	9.343558	0.95342433	-0.34011745	0.0	-3.5	-45.1875	25.625	2.8450048	0.100886315	0.12614872
1276778282754	-0.88532263	9.084772	0.9942854	-0.62484837	0.0	-2.5	-44.6875	26.125	2.923337	0.108501464	0.09714453
1276778282794	-1.56634	8.853226	1.1168685	-0.7468252	0.0	-2.75	-44.4375	26.125	2.818996	0.12359145	0.175111
1276778282824	-2.4925237	8.689782	1.1441092	-0.69435215	0.0	-2.0	-44.6875	26.125	2.7138393	0.12588885	0.27933443
1276778282864	-2.8330324	8.771504	0.95342433	-0.5398073	0.0	-1.5	-44.6875	26.375	2.6810744	0.10306794	0.31240502
1276778282906	-2.4108016	9.152874	0.88532263	-0.30029106	0.0	-2.0	-44.9375	25.875	2.7191038	0.09326466	0.25754344
1276778282954	-1.8387469	8.962189	0.8036005	-0.62255573	0.0	-2.25	-45.1875	25.875	2.7774324	0.08761118	0.20235902
1276778282984	-1.7570249	8.580819	0.92618364	-0.99895954	0.0	-2.0	-45.1875	25.625	2.7904763	0.105351016	0.2019701
1276778283024	-2.3018389	9.112013	1.0760075	-0.34699726	0.0	-2.0	-45.4375	25.625	2.7357795	0.113993764	0.24743913
1276778283064	-2.6832085	9.343558	1.0351465	-0.03049469	0.0	-1.5	-45.4375	26.375	2.715504	0.10608368	0.27964684
1276778283104	-2.5333846	8.853226	1.0351465	-0.5400877	0.0	-1.0	-45.1875	27.125	2.742722	0.11194135	0.27870598
1276778283134	-2.2609777	9.084772	0.95342433	-0.39632988	0.0	-1.5	-44.9375	28.125	2.7781506	0.101491034	0.24392009
1276778283164	-2.070293	9.384419	0.92618364	-0.15205193	0.0	-1.75	-44.6875	28.625	2.8073535	0.096079625	0.21713169
1276778283194	-1.7297841	9.043911	0.8036005	-0.5638008	0.0	-1.5	-44.6875	28.625	2.8451507	0.08705285	0.18898264
1276778283224	-1.7570249	9.043911	0.8036005	-0.5586643	0.0	-1.5	-44.4375	27.875	2.836039	0.08700438	0.19188678
1276778283264	-2.1111538	9.152874	0.8036005	-0.37914562	0.0	-1.0	-44.4375	27.875	2.8061638	0.08534357	0.22669016
1276778283304	-2.5606253	9.275456	0.88532263	-0.14359188	0.0	-1.0	-44.4375	27.875	2.8061638	0.08534357	0.22669016
1276778283344	-2.7921712	9.234595	0.92618364	-0.114809036	0.0	-1.5	-44.6875	27.375	2.7111633	0.09570928	0.29362044
1276778283384	-2.5606253	9.084772	0.95342433	-0.31987476	0.0	-1.75	-44.9375	27.875	2.7328312	0.100670315	0.27473179
1276778283414	-2.2609777	8.853226	0.92618364	-0.62245464	0.0	-2.0	-44.9375	27.375	2.7494907	0.101017095	0.25004008
1276778283454	-2.1111538	9.084772	0.8036005	-0.44524956	0.0	-1.5	-44.9375	27.125	2.7799642	0.085947685	0.22833124
1276778283494	-1.920469	8.962189	0.6946377	-0.61472225	0.0	-1.0	-44.6875	27.875	2.8204033	0.07564252	0.21109335
1276778283534	-2.0294318	8.962189	0.7627395	-0.5859566	0.0	-1.0	-44.4375	28.125	2.8125222	0.08281503	0.22268823
1276778283574	-2.3426998	9.275456	0.7627395	-0.20956135	0.0	-1.0	-44.4375	28.875	2.7888067	0.079560034	0.2473958
1276778283614	-2.4108016	9.343558	0.92618364	-0.11274147	0.0	-1.0	-44.4375	29.125	2.7917104	0.095688805	0.2525102
1276778283644	-2.3699405	9.193735	1.0351465	-0.25610542	0.0	-1.25	-44.6875	28.875	2.7866447	0.10859946	0.25228542
1276778283684	-2.2609777	8.962189	0.9942854	-0.5103369	0.0	-1.25	-44.4375	28.375	2.7885392	0.10715978	0.24712306
1276778283714	-2.2609777	9.043911	0.7627395	-0.45324898	0.0	-1.5	-44.6875	27.875	2.767207	0.0816374	0.24497867
1276778283744	-2.3018389	9.152874	0.6537767	-0.3461542	0.0	-1.25	-44.9375	27.625	2.7624302	0.06916109	0.24637875
1276778283784	-2.3426998	9.084772	0.53119355	-0.40965652	0.0	-1.25	-44.9375	27.375	2.7460623	0.05655818	0.2523729
1276778283824	-2.4516625	8.689782	0.61291564	-0.75686455	0.0	-1.25	-45.1875	27.125	2.719306	0.067778975	0.27498427
1276778283864	-2.4108016	8.853226	0.7218784	-0.6027012	0.0	-1.75	-44.4375	27.125	2.7270298	0.07851201	0.26586148
1276778283904	-2.4516625	8.962189	0.8036005	-0.48049068	0.0	-2.25	-43.6875	26.625	2.7146003	0.08627327	0.26702347
1276778283944	-2.3699405	9.234595	0.95342433	-0.22524166	0.0	-2.75	-43.4375	26.125	2.7212229	0.0996727	0.2512156
1276778283984	-2.4108016	9.384419	-0.3405087	-0.111536026	0.0	-2.5	-43.9375	26.125	2.6448834	-0.035128903	0.25145662
1276778284024	-2.6832085	8.812365	1.3075534	-0.5025072	0.0	-2.25	-44.1875	26.125	2.6991975	0.14100128	0.29556385
1276778284064	-2.3699405	8.894087	1.4982382	-0.48108768	0.0	-2.0	-44.6875	27.125	2.7614014	0.16135858	0.26041177
1276778284104	-2.4108016	8.962189	1.1441092	-0.4556198	0.0	-1.5	-44.9375	27.375	2.7571273	0.12265848	0.2627767
1276778284144	-2.3699405	9.043911	0.5720546	-0.4398899	0.0	-1.75	-44.6875	27.875	2.7373486	0.06111087	0.25628558
1276778284184	-2.4108016	9.043911	0.23154591	-0.44406986	0.0	-1.25	-44.9375	28.125	2.7287445	0.024733515	0.26050866
1276778284214	-2.6832085	8.894087	0.42223078	-0.5070448	0.0	-1.0	-45.1875	27.625	2.6988723	0.0454187	0.2930015
1276778284254	-2.8738933	8.771504	0.6946377	-0.5502424	0.0	-1.25	-44.9375	28.125	2.6890557	0.0751146	0.31661758
1276778284294	-2.8738933	8.962189	0.7627395	-0.36409473	0.0	-0.75	-44.6875	28.625	2.7192066	0.080864914	0.3103094
1276778284334	-2.6832085	9.00305	0.84446156	-0.37438488	0.0	-0.5	-44.6875	28.625	2.7528436	0.08964907	0.28965148
1276778284374	-2.6014864	8.894087	0.8036005	-0.5051298	0.0	-0.75	-44.6875	29.625	2.7614887	0.08650237	0.28455842
1276778284404	-2.5606253	9.084772	0.61291564	-0.34802723	0.0	-0.25	-44.4375	30.125	2.7832172	0.0648451	0.27473176
1276778284434	-2.5606253	9.084772	0.5720546	-0.3505869	0.0	-0.5	-44.4375	30.375	2.777512	0.060533028	0.27473179
1276778284474	-2.5606253	9.302697	0.61291564	-0.13852501	0.0	-0.25	-44.4375	31.125	2.7993073	0.06343804	0.26860443
1276778284514	-2.3018389	9.112013	0.7218784	-0.38070965	0.0	-0.0	-43.4375	30.875	2.838419	0.0766593	0.24743912
1276778284554	-2.3699405	9.112013	0.6946377	-0.3658924	0.0	0.75	-43.9375	30.625	2.8439245	0.07364515	0.25445205
1276778284594	-2.3426998	8.921328	0.6946377	-0.55673885	0.0	1.25	-44.1875	30.875	2.8553329	0.075167455	0.25679758
1276778284634	-2.1383946	8.962189	0.6537767	-0.56971455	0.0	1.75	-43.9375	31.125	2.8974435	0.07083776	0.23422255
1276778284664	-1.9885708	9.466142	0.61291564	-0.11449242	0.0	2.25	-44.6875	31.375	2.939586	0.06328053	0.2070611
1276778284694	-1.7570249	9.384419	0.7218784	-0.23191357	0.0	2.25	-44.1875	31.875	2.9744506	0.07546569	0.18508504
1276778284724	-2.070293	8.921328	0.7218784	-0.6198492	0.0	2.75	-43.9375	31.875	2.9383087	0.078658864	0.22802503
1276778284754	-2.6014864	8.730643	0.7218784	-0.66810703	0.0	2.75	-43.9375	31.625	2.8649902	0.079075105	0.28959513
1276778284784	-2.7921712	8.662541	0.6946377	-0.6787605	0.0	2.5	-43.9375	32.125	2.8367157	0.07617423	0.3118124
1276778284824	-2.6832085	8.580819	0.61291564	-0.795228	0.0	2.25	-43.9375	32.375	2.8395822	0.06806797	0.3030656
1276778284864	-2.9556155	9.275456	0.5720546	-0.054881096	0.0	2.0	-44.4375	31.625	2.8139746	0.058695324	0.308477
1276778284894	-2.9556155	9.343558	0.5720546	0.009917259	0.0	1.5	-44.6875	31.375	2.7994869	0.058307435	0.3063672
1276778284934	-2.9556155	9.084772	0.8036005	-0.21944427	0.0	1.75	-44.4375	30.875	2.803364	0.08391855	0.31453696
1276778284974	-2.6423476	8.662541	0.84446156	-0.71078587	0.0	2.0	-44.6875	31.125	2.833941	0.09297405	0.2960664
1276778285014	-1.920469	9.043911	0.88532263	-0.5187912	0.0	2.5	-44.4375	31.875	2.9549148	0.09546536	0.20924129
1276778285054	-1.6889231	9.534244	0.6946377	-0.09908676	0.0	2.5	-44.1875	32.375	2.994626	0.07161755	0.17532408
1276778285094	-2.1383946	9.343558	0.6537767	-0.19924545	0.0	2.25	-44.6875	32.375	2.9247558	0.06810188	0.22498822
1276778285134	-2.8330324	8.921328	0.7627395	-0.41527462	0.0	1.75	-44.4375	31.875	2.8190553	0.08130657	0.30748555
1276778285174	-2.982856	8.689782	0.6946377	-0.59294987	0.0	1.25	-44.4375	31.875	2.7796638	0.07546343	0.33065793
1276778285204	-2.6832085	9.00305	0.6537767	-0.38954163	0.0	1.5	-44.6875	31.875	2.8269522	0.06948024	0.2896515
1276778285234	-2.3018389	9.112013	0.6537767	-0.38568115	0.0	1.5	-44.6875	31.875	2.8269522	0.06948024	0.2896515
1276778285274	-2.3426998	9.084772	0.7218784	-0.39695072	0.0	1.5	-44.6875	31.625	2.8701894	0.07679187	0.2523729
1276778285314	-2.6832085	8.894087	0.7627395	-0.4853754	0.0	1.75	-44.4375	31.125	2.8291216	0.081919394	0.2930015
1276778285354	-2.8738933	8.771504	0.7218784	-0.54815865	0.0	1.25	-44.4375	30.125	2.779164	0.07804855	0.31661758
1276778285384	-2.9147544	8.894087	0.7218784	-0.4193344	0.0	1.0	-44.1875	29.875	2.7717016	0.07697534	0.31668848
1276778285417	-2.7513103	8.921328	0.7218784	-0.44284153	0.0	1.25	-44.1875	30.125	2.8004873	0.07716896	0.2991425
1276778285454	-2.4516625	8.921328	0.6946377	-0.5285435	0.0	0.5	-44.6875	29.875	2.8103254	0.074938595	0.26818877
1276778285494	-2.4925237	8.921328	0.6946377	-0.517663	0.0	1.0	-44.6875	30.375	2.8229213	0.07485065	0.27244234
1276778285534	-2.7240696	8.921328	0.7218784	-0.45080948	0.0	1.0	-44.9375	30.125	2.7920048	0.07723481	0.29635188
1276778285574	-2.7921712	8.962189	0.6946377	-0.39391613	0.0	0.75	-44.9375	29.625	2.772735	0.07386481	0.3020193
1276778285614	-2.5333846	9.084772	0.7627395	-0.34446812	0.0	1.0	-44.6875	29.875	2.8211792	0.080696814	0.2719518
1276778285654	-2.3699405	9.084772	0.8036005	-0.38351536	0.0	0.75	-44.6875	29.875	2.8361223	0.08538324	0.2551824
1276778285694	-2.4108016	9.084772	0.88532263	-0.36584282	0.0	0.5	-44.4375	30.125	2.8312438	0.09391415	0.25938892
1276778285734	-2.6014864	9.00305	0.92618364	-0.38961983	0.0	0.5	-45.4375	30.625	2.8059714	0.09851125	0.28129426
1276778285764	-2.6423476	9.084772	0.92618364	-0.30018425	0.0	0.5	-45.4375	30.625	2.8059714	0.09851125	0.28129426
1276778285794	-2.4516625	9.084772	0.88532263	-0.3553257	0.0	0.5	-45.4375	30.625	2.8059714	0.09851125	0.28129426
1276778285824	-2.3426998	9.084772	0.6946377	-0.39900208	0.0	0.75	-45.1875	30.625	2.8387337	0.07390481	0.2523729
1276778285864	-2.2201166	9.043911	0.6537767	-0.4713049	0.0	1.0	-44.1875	30.375	2.8621116	0.07008978	0.24072185
1276778285894	-2.2609777	8.921328	0.7218784	-0.57500744	0.0	1.0	-43.6875	29.875	2.8548799	0.078276	0.24820909
1276778285924	-2.4516625	9.084772	0.6946377	-0.3712778	0.0	1.5	-43.4375	29.625	2.8481438	0.07368726	0.26358604
1276778285964	-2.4925237	8.894087	0.7218784	-0.54173946	0.0	1.5	-43.4375	29.875	2.8403232	0.07799436	0.27323592
1276778286004	-2.5333846	9.00305	0.6946377	-0.42819214	0.0	1.75	-43.4375	29.625	2.8423293	0.07413526	0.27429885
1276778286044	-2.6014864	9.302697	0.7627395	-0.11698151	0.0	1.5	-43.9375	29.625	2.8357031	0.078798294	0.27268285
1276778286084	-2.3699405	9.302697	0.84446156	-0.16974735	0.0	0.5	-44.4375	29.125	2.8321445	0.087740436	0.24945216
1276778286124	-2.0294318	9.084772	0.95342433	-0.44926357	0.0	0.25	-44.4375	28.625	2.8620589	0.10206715	0.21977988
1276778286154	-1.6889231	8.921328	0.84446156	-0.6876774	0.0	-0.75	-44.4375	28.375	2.869638	0.09273777	0.18709877
1276778286194	-1.2666923	8.962189	0.7218784	-0.72664833	0.0	-1.25	-43.9375	28.375	2.9128711	0.079586	0.14040737
1276778286224	-1.0760075	9.302697	0.6537767	-0.41913795	0.0	-2.0	-43.4375	28.875	2.925551	0.06969966	0.11515447
1276778286264	-1.56634	9.193735	0.7218784	-0.4525442	0.0	-2.5	-43.6875	28.875	2.845059	0.07724916	0.16875009
1276778286304	-2.6014864	9.112013	0.6537767	-0.3080225	0.0	-3.0	-44.1875	28.875	2.6989105	0.06888301	0.27810222
1276778286344	-2.9147544	8.894087	0.5720546	-0.42966652	0.0	-3.5	-44.9375	28.375	2.6301575	0.061044157	0.31668848
1276778286384	-3.405087	8.689782	0.53119355	-0.458436	0.0	-3.5	-45.4375	27.875	2.5598457	0.056853622	0.3734604
1276778286424	-3.3642259	8.853226	0.313268	-0.3305874	0.0	-3.5	-45.1875	26.875	2.541115	0.0330649	0.36314702
1276778286464	-1.2258313	9.615966	0.5720546	-0.09600067	0.0	-3.25	-45.1875	26.375	2.8420913	0.05894416	0.12679486
1276778286504	-0.9125633	9.765789	0.6537767	0.02344799	0.0	-3.5	-44.9375	26.625	2.8875244	0.06655678	0.093174346
1276778286544	-2.2201166	8.962189	1.2258313	-0.49255276	0.0	-3.5	-44.1875	26.875	2.7306027	0.13199323	0.24283198
1276778286574	-3.1054392	8.894087	1.3756552	-0.28609562	0.0	-4.0	-44.4375	27.375	2.6318502	0.14500076	0.33592427
1276778286614	-2.9556155	8.853226	1.0351465	-0.4158678	0.0	-4.5	-44.1875	27.625	2.621945	0.110454515	0.322212
1276778286654	-2.2609777	8.962189	0.6537767	-0.54056835	0.0	-4.0	-44.6875	27.625	2.6901295	0.07061457	0.24712306
1276778286694	-1.7570249	9.084772	0.5720546	-0.53586483	0.0	-3.75	-45.1875	27.125	2.7508361	0.061744314	0.1910446
1276778286734	-1.879608	8.962189	0.50395286	-0.63562393	0.0	-3.0	-45.1875	26.875	2.7458732	0.054978237	0.20673017
1276778286774	-2.0294318	9.112013	0.42223078	-0.4618311	0.0	-2.75	-44.9375	26.125	2.7238064	0.0451988	0.2191437
1276778286814	-2.2609777	9.084772	0.53119355	-0.42969608	0.0	-3.0	-44.1875	25.625	2.6895397	0.056679178	0.24392009
1276778286854	-2.5606253	9.112013	0.7218784	-0.31419563	0.0	-3.0	-44.1875	25.875	2.6681693	0.07612109	0.273951
1276778286894	-2.7240696	9.00305	0.92618364	-0.35502148	0.0	-3.25	-44.1875	25.625	2.647808	0.09814947	0.29381463
1276778286934	-2.6014864	9.084772	0.9942854	-0.30457592	0.0	-3.25	-44.6875	26.125	2.6717799	0.104830675	0.27889362
1276778286974	-2.2201166	9.084772	0.92618364	-0.40878773	0.0	-2.75	-45.1875	26.375	2.7277758	0.09871282	0.23968022
1276778287014	-2.0294318	9.084772	0.8036005	-0.4633398	0.0	-2.75	-45.1875	26.125	2.743047	0.0861145	0.21977988
1276778287054	-2.070293	9.084772	0.8036005	-0.45437908	0.0	-3.25	-44.9375	26.625	2.73118	0.086031795	0.22405973
1276778287094	-2.2201166	9.152874	0.7627395	-0.3575344	0.0	-3.0	-44.6875	26.625	2.7199757	0.08080864	0.23796368
1276778287134	-2.3426998	9.152874	0.7218784	-0.3311844	0.0	-3.0	-43.9375	26.625	2.7070315	0.07625784	0.250573
1276778287164	-2.3699405	9.193735	0.7218784	-0.28496456	0.0	-2.75	-43.6875	26.875	2.7162616	0.07588696	0.25228542
1276778287204	-2.1792557	9.043911	0.7218784	-0.47591686	0.0	-2.5	-43.9375	26.375	2.7350833	0.077443056	0.23645616
1276778287244	-2.1383946	9.112013	0.6946377	-0.42134094	0.0	-2.75	-43.4375	26.125	2.733391	0.07408104	0.23050737
1276778287284	-2.2201166	9.084772	0.7218784	-0.4267187	0.0	-2.25	-43.6875	26.375	2.739435	0.07703606	0.23968022
1276778287324	-2.3699405	9.152874	0.7627395	-0.32121468	0.0	-2.25	-43.9375	26.375	2.72316	0.080498554	0.2533642
1276778287364	-2.3699405	9.043911	0.84446156	-0.41931534	0.0	-2.5	-44.1875	26.625	2.7192311	0.090079315	0.2562856
1276778287394	-2.3426998	9.043911	0.84446156	-0.4261551	0.0	-2.25	-44.9375	27.375	2.7338402	0.09014517	0.253465
1276778287424	-2.2609777	9.112013	0.8036005	-0.38398743	0.0	-3.0	-44.6875	27.375	2.725131	0.08538752	0.24321935
1276778287464	-2.1792557	9.084772	0.92618364	-0.4183569	0.0	-2.75	-44.4375	27.625	2.7512295	0.09881376	0.23543158
1276778287504	-2.2201166	9.084772	0.95342433	-0.40606403	0.0	-2.0	-43.9375	28.125	2.7753563	0.10159648	0.23968022
1276778287544	-2.1383946	9.112013	0.9942854	-0.39441776	0.0	-1.75	-43.9375	28.125	2.794338	0.10583504	0.23050736
1276778287584	-1.9477097	9.084772	0.92618364	-0.469388	0.0	-1.0	-43.9375	28.375	2.8375943	0.09935559	0.2111957
1276778287784	-2.1111538	9.112013	0.92618364	-0.4075241	0.0	-1.25	-44.1875	28.125	2.8071172	0.0986995	0.22767201
1276778287814	-2.1111538	9.152874	0.95342433	-0.36519432	0.0	-1.75	-44.4375	27.625	2.789411	0.101155184	0.22669016
1276778287854	-2.0294318	9.043911	1.0351465	-0.4802122	0.0	-1.75	-44.1875	26.875	2.7943535	0.111219704	0.22074097
1276778287894	-2.070293	9.112013	0.9942854	-0.40965652	0.0	-2.0	-44.9375	25.875	2.7673924	0.106007315	0.22341199
1276778287934	-2.1383946	9.112013	0.9942854	-0.39441776	0.0	-2.0	-44.9375	25.125	2.7497356	0.10583504	0.23050736
1276778287974	-2.070293	9.112013	0.9942854	-0.40965652	0.0	-2.5	-44.4375	24.625	2.7411022	0.106007315	0.22341199
1276778288014	-2.070293	8.962189	0.95342433	-0.5591669	0.0	-2.5	-44.6875	24.125	2.727504	0.10328449	0.22702083
1276778288055	-2.1111538	9.00305	0.92618364	-0.51312065	0.0	-3.25	-43.9375	23.875	2.700451	0.09982469	0.2303316
1276778288094	-2.1383946	9.00305	0.9942854	-0.49986553	0.0	-4.0	-44.1875	23.375	2.6711812	0.10703875	0.23319769
1276778288134	-2.2609777	9.00305	0.95342433	-0.47520065	0.0	-4.0	-44.4375	23.125	2.6476822	0.102351844	0.24604627
1276778288174	-2.2201166	8.962189	0.95342433	-0.52447605	0.0	-4.25	-43.9375	22.875	2.6437664	0.10289711	0.24283196
1276778288214	-2.2609777	9.084772	0.92618364	-0.3990507	0.0	-3.75	-44.4375	22.875	2.6512408	0.09861032	0.24392009
1276778288244	-2.2201166	9.043911	0.88532263	-0.45223713	0.0	-3.75	-43.9375	23.125	2.6594589	0.0947841	0.24072185
1276778288274	-2.3018389	9.112013	0.92618364	-0.3628664	0.0	-4.25	-44.1875	22.875	2.6339695	0.09823126	0.24743913
1276778288314	-2.3018389	9.043911	0.9942854	-0.42158794	0.0	-4.75	-44.6875	22.875	2.6203182	0.10614259	0.24922642
1276778288354	-2.3018389	9.043911	0.95342433	-0.42582893	0.0	-5.3125	-44.6875	22.875	2.6023765	0.10181129	0.24922644
1276778288384	-2.2201166	9.112013	0.88532263	-0.3863802	0.0	-5.3125	-44.6875	22.375	2.6012537	0.094119504	0.2389907
1276778288414	-2.1792557	9.084772	0.88532263	-0.42229939	0.0	-4.25	-44.6875	22.625	2.639759	0.09448082	0.23543158
1276778288444	-2.1383946	9.043911	0.88532263	-0.47129536	0.0	-4.25	-44.6875	22.125	2.6361787	0.09497819	0.23218164
1276778288474	-2.1383946	9.043911	0.8036005	-0.47869015	0.0	-4.25	-45.1875	21.875	2.6235278	0.08625658	0.23218164
1276778288514	-2.1111538	9.084772	0.92618364	-0.4339304	0.0	-4.0	-45.4375	21.875	2.6431065	0.09897849	0.22833124
1276778288554	-2.1792557	9.112013	0.8036005	-0.40326214	0.0	-4.25	-45.6875	21.625	2.6127436	0.085562974	0.23475336
1276778288594	-2.2609777	9.084772	0.88532263	-0.40298557	0.0	-4.25	-45.4375	21.625	2.6084573	0.09428619	0.24392009
1276778288634	-2.3426998	9.00305	0.88532263	-0.46176147	0.0	-4.5	-44.4375	21.375	2.5896611	0.094881006	0.25456643
1276778288674	-2.2609777	9.043911	0.84446156	-0.44622993	0.0	-4.75	-44.4375	21.625	2.5956006	0.090339035	0.24497867
1276778288714	-2.2609777	9.084772	0.7218784	-0.41696358	0.0	-5.3125	-43.9375	21.875	2.578744	0.07695586	0.24392007
1276778288754	-2.3018389	9.193735	0.6946377	-0.30371666	0.0	-5.5625	-43.9375	22.125	2.5718737	0.073162444	0.2453272
1276778288784	-2.1792557	9.112013	0.6946377	-0.4119463	0.0	-5.3125	-43.9375	22.625	2.6009436	0.074006826	0.23475334
1276778288814	-2.2201166	9.084772	0.7218784	-0.4267187	0.0	-5.3125	-43.9375	22.875	2.6013393	0.07703606	0.23968022
1276778288854	-2.2201166	9.112013	0.7627395	-0.39710903	0.0	-4.75	-44.1875	23.625	2.6313612	0.08114926	0.23899071
1276778288894	-2.070293	9.193735	0.84446156	-0.34493828	0.0	-4.5	-43.9375	24.375	2.6769497	0.08936932	0.2214907
1276778288937	-1.9885708	9.275456	0.8036005	-0.28644657	0.0	-4.25	-44.1875	24.625	2.696209	0.08451057	0.21119362
1276778288974	-1.920469	9.084772	0.6946377	-0.495162	0.0	-3.5	-44.1875	24.875	2.7195184	0.07466944	0.20832723
1276778289014	-1.9885708	9.152874	0.6946377	-0.41452408	0.0	-3.25	-44.4375	24.375	2.711214	0.07402717	0.21393712
1276778289054	-2.0294318	9.112013	0.61291564	-0.45127583	0.0	-3.25	-44.9375	24.625	2.7003305	0.06556178	0.2191437
1276778289094	-2.070293	9.112013	0.6946377	-0.43662262	0.0	-3.5	-45.4375	24.625	2.6898835	0.07420208	0.22341199
1276778289134	-2.070293	9.112013	0.7218784	-0.43456364	0.0	-4.0	-45.4375	25.125	2.6844409	0.077100664	0.223412
1276778289174	-2.0294318	9.193735	0.8036005	-0.35735798	0.0	-4.0	-45.1875	25.625	2.7045658	0.08514631	0.21725674
1276778289214	-1.9885708	9.193735	0.6537767	-0.3776207	0.0	-3.75	-44.6875	26.125	2.717408	0.069392264	0.21301484
1276778289244	-2.0294318	9.152874	0.5720546	-0.4140501	0.0	-3.5	-44.1875	26.625	2.7226915	0.060942534	0.2181962
1276778289274	-2.0294318	9.084772	0.61291564	-0.4778061	0.0	-3.5	-44.1875	26.375	2.72006	0.0657485	0.21977988
1276778289314	-2.0294318	9.112013	0.61291564	-0.45127583	0.0	-3.5	-44.4375	26.125	2.7161653	0.06556178	0.2191437
1276778289354	-2.070293	9.193735	0.6537767	-0.36004734	0.0	-3.5	-44.6875	25.625	2.7073054	0.06926297	0.2214907
1276778289394	-2.0294318	9.152874	0.6946377	-0.40578747	0.0	-3.5	-44.6875	25.375	2.7106647	0.07395825	0.21819621
1276778289424	-2.0294318	9.193735	0.7218784	-0.36395645	0.0	-3.5	-44.6875	25.625	2.716507	0.07652302	0.21725672
1276778289454	-1.9477097	9.275456	0.6946377	-0.303483	0.0	-3.25	-44.9375	25.625	2.73359	0.07316063	0.20697814
1276778289494	-1.7978859	9.425281	0.6946377	-0.18631649	0.0	-2.75	-44.6875	25.875	2.7761104	0.07226805	0.1884871
1276778289534	-1.525479	9.384419	0.7218784	-0.27168655	0.0	-2.5	-44.9375	25.875	2.8208225	0.07578107	0.16114493
1276778289574	-1.4165162	9.234595	0.61291564	-0.4439621	0.0	-2.25	-44.9375	25.875	2.8365803	0.06551049	0.15220597
1276778289614	-1.6889231	9.152874	0.53119355	-0.4841118	0.0	-2.75	-44.1875	25.875	2.7791865	0.05701038	0.18247129
1276778289654	-2.3699405	9.193735	0.7627395	-0.28178024	0.0	-4.0	-44.6875	25.125	2.65532	0.08016456	0.25228542
1276778289694	-3.486809	8.921328	0.7218784	-0.20097256	0.0	-5.0625	-44.9375	24.125	2.479998	0.07522215	0.37258473
1276778289734	-3.1054392	8.812365	0.88532263	-0.42127228	0.0	-5.5625	-44.9375	22.875	2.4924753	0.09447045	0.33880746
1276778289764	-1.7978859	9.00305	1.1168685	-0.55815315	0.0	-6.0625	-45.1875	21.625	2.6352115	0.12105763	0.1971046
1276778289804	-1.1441092	9.302697	0.95342433	-0.38549423	0.0	-6.0625	-44.9375	20.375	2.7059097	0.101373896	0.122372314
1276778289844	-0.27240697	9.615966	0.50395286	-0.17363548	0.0	-6.3125	-44.6875	19.625	2.8089292	0.05233907	0.028321039
1276778289884	-0.46309182	9.80665	0.92618364	0.0545187	0.0	-6.5625	-44.1875	18.875	2.7809489	0.094060935	0.04718717
1276778289925	-1.0760075	9.615966	1.879608	0.050201416	0.0	-6.3125	-43.6875	17.875	2.7327418	0.19186552	0.11143447
1276778289964	-1.525479	8.962189	3.636633	-0.015173912	0.0	-7.0625	-43.4375	17.375	2.7178755	0.38052508	0.16859695
1276778290004	-1.2666923	9.152874	2.4925237	-0.23626423	0.0	-7.5625	-42.6875	16.375	2.675937	0.26347923	0.13751933
1276778290044	-0.46309182	9.425281	-0.46309182	-0.35864353	0.0	-7.5625	-42.4375	14.625	2.4867184	-0.049034413	0.04909347
1276778290084	-1.0760075	9.343558	-0.27240697	-0.39739513	0.0	-8.5625	-41.9375	12.625	2.2810836	-0.028955005	0.114655286
1276778290124	-2.8738933	9.193735	1.7297841	-0.020119667	0.0	-8.0625	-41.1875	10.8125	2.2804744	0.17768501	0.3029692
1276778290164	-2.7240696	9.234595	4.8216033	0.96117973	0.0	-7.3125	-41.6875	9.8125	2.5107636	0.46427935	0.2868498
1276778290204	-1.525479	8.349273	0.5720546	-1.2999058	0.0	-7.0625	-41.6875	9.5625	2.2728379	0.06729798	0.18071471
1276778290244	-1.0351465	9.275456	0.95342433	-0.42503834	0.0	-6.5625	-41.9375	8.8125	2.4288902	0.10180268	0.11114071
1276778290274	-1.4573772	10.419566	4.0588636	1.4701262	0.0	-6.8125	-42.4375	8.5625	2.6354406	0.36819416	0.13896774
1276778290314	-0.14982383	8.076866	2.6014864	-1.3198404	0.0	-7.0625	-41.4375	7.0625	2.7576683	0.31154844	0.01854762
1276778290354	-0.9942854	9.084772	1.4982382	-0.5456352	0.0	-7.5625	-40.6875	5.5625	2.3543158	0.1624932	0.109011404
1276778290394	-2.1111538	8.430995	1.9885708	-0.8907623	0.0	-7.5625	-39.9375	5.3125	2.237618	0.2249286	0.24535875
1276778290424	-3.405087	8.117727	1.9477097	-0.79079247	0.0	-6.5625	-38.9375	4.3125	2.0665944	0.21774821	0.3971715
1276778290464	-2.8738933	8.158588	1.7570249	-0.9800453	0.0	-6.3125	-38.4375	3.8125	2.0833035	0.20039873	0.33868116
1276778290504	-1.4982382	8.049625	1.3756552	-1.5040226	0.0	-6.0625	-38.4375	3.3125	2.194247	0.16645677	0.1840195
1276778290544	-1.2666923	8.62168	1.1849703	-1.0122185	0.0	-6.3125	-38.6875	2.5625	2.1387181	0.13515206	0.1458758
1276778290574	-1.1849703	8.921328	1.334794	-0.7085228	0.0	-7.3125	-38.9375	2.5625	2.1478617	0.14724232	0.13205148
1276778290614	-1.1849703	8.499097	1.9477097	-1.0070839	0.0	-7.5625	-39.9375	3.5625	2.31595	0.22318994	0.13853006
1276778290654	-2.2201166	9.343558	2.3426998	0.07865429	0.0	-7.5625	-40.4375	5.0625	2.2622106	0.23926449	0.23328328
1276778290694	-2.2609777	9.466142	1.334794	0.016869545	0.0	-7.8125	-40.9375	7.5625	2.207689	0.136299	0.2344563
1276778290734	-2.6014864	10.56939	1.9885708	1.2583466	0.0	-7.3125	-41.9375	10.8125	2.3710692	0.180699	0.2413368
1276778290774	-5.012288	10.691973	5.706926	3.3086205	0.0	-7.5625	-42.4375	13.625	2.4081979	0.45018926	0.4383692
1276778290814	-1.3075534	10.079058	3.9499009	1.0974226	0.0	-7.5625	-43.6875	16.875	2.7420356	0.37067094	0.12900922
1276778290844	0.88532263	6.742072	0.53119355	-2.9859834	0.0	-7.0625	-44.1875	19.125	3.086246	0.07795895	-0.1305661
1276778290884	-2.1792557	11.032481	-0.5720546	1.4535475	0.0	-7.0625	-43.9375	19.375	2.41082	-0.050825126	0.19502029
1276778290914	-3.0237172	10.119919	-0.29964766	0.7595892	0.0	-6.5625	-43.6875	19.875	2.354553	-0.028362771	0.29034513
1276778290954	-2.9556155	8.430995	0.10896278	-0.8719311	0.0	-6.5625	-43.4375	19.125	2.3321404	0.012195737	0.33717847
1276778290994	-2.7513103	7.8589406	0.19068487	-1.4778433	0.0	-5.8125	-43.9375	18.875	2.3504508	0.022896621	0.33675203
1276778291034	-2.3699405	8.076866	0.040861044	-1.3891659	0.0	-5.0625	-44.4375	19.625	2.4221208	0.004854325	0.28541225
1276778291074	-2.4516625	9.507003	0.6537767	0.033124924	0.0	-3.75	-44.9375	20.375	2.5713353	0.066491224	0.25238094
1276778291114	-1.920469	10.228881	1.2258313	0.67289543	0.0	-2.5	-44.9375	21.625	2.7574067	0.11724211	0.18558913
1276778291154	-0.95342433	9.847511	0.6537767	0.108486176	0.0	-2.0	-44.6875	22.875	2.901709	0.065985106	0.09651798
1276778291194	-0.040861044	9.425281	-1.1849703	-0.30708504	0.0	-1.5	-44.6875	23.875	3.0483663	-0.1250652	0.004335233
1276778291234	-0.46309182	9.956474	0.8036005	0.19293022	0.0	-1.0	-44.6875	25.625	3.0364	0.08045018	0.04647813
1276778291264	-2.1383946	9.343558	1.607201	-0.08770466	0.0	-0.5	-44.4375	27.875	2.8498619	0.16613096	0.22498822
1276778291304	-2.7240696	9.275456	2.0294318	0.07126713	0.0	0.5	-43.9375	30.125	2.8393698	0.20692493	0.2856539
1276778291344	-1.3756552	9.534244	2.070293	0.04628563	0.0	2.0	-43.6875	32.875	3.0387905	0.21169709	0.1432968
1276778291384	-0.0	9.275456	1.3075534	-0.4394846	0.0	3.0	-43.4375	34.375	-3.0669222	0.14004636	0.0
1276778291424	-1.0351465	9.384419	0.7627395	-0.33455276	0.0	3.75	-43.4375	35.125	3.1147282	0.08061215	0.10986067
1276778291464	-2.6014864	8.853226	0.27240697	-0.575099	0.0	4.0	-43.9375	35.625	2.9138393	0.029512538	0.28580156
1276778291504	-3.486809	8.62168	-0.88532263	-0.46454048	0.0	3.0	-43.9375	34.875	2.7226965	-0.09490931	0.3843138
1276778291544	-4.5219555	9.00305	0.040861044	0.26830196	0.0	2.0	-43.6875	34.875	2.6710525	0.004055717	0.4654614
1276778291584	-2.982856	9.152874	0.88532263	-0.13936901	0.0	1.0	-43.4375	35.125	2.8296382	0.09170777	0.31503922
1276778291624	-1.525479	9.615966	0.53119355	-0.055954933	0.0	0.25	-42.9375	35.125	2.9699523	0.054504488	0.15732914
1276778291664	-1.1849703	9.275456	0.6946377	-0.43004227	0.0	-0.0	-42.9375	35.125	3.0000455	0.074149914	0.12706502
1276778291704	-1.879608	9.043911	0.50395286	-0.5557461	0.0	0.5	-43.1875	34.625	2.920283	0.054503046	0.20491421
1276778291744	-2.6423476	9.152874	0.46309182	-0.26874924	0.0	0.5	-43.4375	33.375	2.8255002	0.048571896	0.28104907
1276778291784	-2.5606253	9.234595	0.313268	-0.21849632	0.0	1.0	-43.9375	32.125	2.8303561	0.032678217	0.27049038
1276778291824	-2.7513103	9.043911	0.3405087	-0.34737015	0.0	1.5	-44.1875	31.125	2.804897	0.036005095	0.295321
1276778291864	-2.4516625	8.894087	0.3405087	-0.5745659	0.0	1.0	-44.6875	30.375	2.812532	0.036891557	0.2689712
1276778291905	-2.2201166	8.812365	0.313268	-0.71353054	0.0	1.75	-44.9375	29.875	2.8539646	0.034457922	0.24679619
1276778291944	-2.6423476	9.152874	0.38136974	-0.27236748	0.0	1.75	-44.9375	30.125	2.815132	0.04001051	0.28104904
1276778291984	-2.9147544	8.853226	0.46309182	-0.47445583	0.0	1.75	-44.4375	30.125	2.7785933	0.049643423	0.31805372
1276778292024	-2.9556155	9.00305	0.46309182	-0.31955242	0.0	2.75	-43.9375	30.375	2.8119311	0.048832208	0.31720513
1276778292064	-2.6014864	9.00305	0.6946377	-0.40956783	0.0	3.0	-43.1875	31.125	2.8811226	0.07398806	0.28129426
1276778292104	-3.9499009	9.084772	0.5720546	0.11615372	0.0	3.25	-43.4375	31.375	2.739239	0.057682484	0.41012734
1276778292144	-2.4108016	9.275456	0.38136974	-0.21543026	0.0	3.0	-43.6875	32.375	2.908501	0.03977287	0.25428554
1276778292184	-1.334794	8.812365	0.88532263	-0.8499069	0.0	2.75	-43.4375	33.375	3.0409608	0.09900592	0.15032564
1276778292224	-1.6480621	8.921328	1.4982382	-0.6114931	0.0	3.5	-43.6875	34.125	3.031803	0.16366746	0.18267344
1276778292264	-2.5333846	9.534244	1.4982382	0.17155361	0.0	3.75	-42.9375	34.375	2.9602065	0.15072109	0.25971302
1276778292304	-2.4108016	9.193735	0.95342433	-0.25438595	0.0	4.75	-42.9375	34.375	2.9793596	0.09997782	0.25644845
1276778292344	-1.8387469	8.962189	0.6946377	-0.6314478	0.0	5.0625	-43.4375	33.625	3.0395532	0.075780675	0.20235902
1276778292384	-1.7978859	8.894087	0.6537767	-0.70914555	0.0	4.5	-43.6875	32.625	3.0231736	0.0719253	0.1994562
1276778292425	-1.7570249	9.043911	0.6537767	-0.5704775	0.0	4.0	-44.1875	32.125	3.0143166	0.07084362	0.19188678
1276778292464	-1.879608	9.507003	0.46309182	-0.10456371	0.0	3.0	-44.6875	31.125	2.9709032	0.047749303	0.19519049
1276778292504	-1.9477097	9.234595	0.50395286	-0.3554449	0.0	2.25	-44.4375	29.625	2.9266727	0.053346843	0.20786786
1276778292544	-1.9477097	9.00305	0.53119355	-0.5800228	0.0	0.75	-44.4375	27.875	2.8634443	0.057603654	0.21305554
1276778292574	-1.879608	8.853226	0.61291564	-0.73536587	0.0	-0.25	-44.1875	25.625	2.8221543	0.06761809	0.20920141
1276778292617	-1.9885708	9.112013	0.7627395	-0.4490347	0.0	-1.25	-44.1875	24.125	2.7728455	0.081600554	0.21486728
1276778292665	-2.2609777	9.466142	0.6946377	-0.049479485	0.0	-2.5	-44.1875	22.875	2.6848023	0.07125281	0.2344563
1276778292724	-1.920469	9.00305	0.92618364	-0.55457306	0.0	-2.75	-44.4375	21.375	2.7039485	0.10027343	0.2101633
1276778292764	-1.3756552	8.730643	0.7627395	-0.9354429	0.0	-3.0	-44.4375	20.125	2.7478852	0.08608551	0.15628141
1276778292804	-1.0760075	8.894087	0.42223078	-0.8377676	0.0	-3.5	-43.6875	17.875	2.728108	0.04709471	0.120395
1276778292844	-1.4982382	9.534244	0.50395286	-0.14225769	0.0	-3.75	-43.9375	15.875	2.6145544	0.052168984	0.15586819
1276778292884	-1.8387469	9.724928	0.6537767	0.1121521	0.0	-5.0625	-43.4375	14.125	2.4826882	0.06596069	0.18686964
1276778292934	-2.4516625	9.425281	0.7627395	-0.0379076	0.0	-5.5625	-43.6875	12.625	2.337452	0.078159146	0.25447634
1276778292974	-2.7921712	9.152874	0.6946377	-0.21218109	0.0	-5.5625	-43.6875	11.5625	2.2450562	0.07246321	0.29609206
1276778293004	-3.173541	9.043911	0.6537767	-0.19982338	0.0	-5.5625	-42.6875	10.5625	2.1670341	0.06810598	0.3374796
1276778293044	-3.6774938	8.771504	1.0351465	-0.23926926	0.0	-4.75	-42.4375	9.8125	2.1565084	0.1084076	0.3969942
1276778293084	-3.568531	8.689782	1.2666923	-0.3276615	0.0	-4.25	-41.9375	9.5625	2.199582	0.13403253	0.38966066
1276778293124	-2.070293	9.084772	1.4982382	-0.36928272	0.0	-3.75	-41.4375	9.5625	2.455901	0.15943049	0.22405973
1276778293164	-0.50395286	9.343558	1.7978859	-0.2783537	0.0	-3.5	-41.4375	9.3125	2.8151886	0.18982713	0.053883653
1276778293204	-0.29964766	9.915613	1.1441092	0.17924786	0.0	-3.0	-41.4375	9.0625	2.8415482	0.11482465	0.030210588
1276778293234	-1.3075534	9.724928	0.95342433	0.05199814	0.0	-2.75	-41.1875	8.8125	2.566901	0.096860826	0.13365225
1276778293264	-2.982856	8.921328	1.1849703	-0.32552814	0.0	-2.25	-41.6875	8.0625	2.2677364	0.12530977	0.32266632
1276778293304	-4.2495484	8.689782	1.2666923	-0.050857544	0.0	-2.25	-42.1875	7.5625	2.1097145	0.13020763	0.4548317
1276778293344	-3.336985	8.921328	1.6480621	-0.14012718	0.0	-2.75	-42.1875	7.5625	2.250428	0.17132868	0.35793385
1276778293384	-2.5606253	9.302697	1.2666923	-0.07518101	0.0	-3.0	-41.6875	7.0625	2.2863376	0.13053493	0.2686044
1276778293424	-2.7513103	8.689782	0.313268	-0.6863346	0.0	-4.0	-41.6875	6.8125	2.0312085	0.03435513	0.30662882
1276778293464	-3.0237172	8.812365	0.42223078	-0.480402	0.0	-4.5	-41.6875	6.8125	2.0177345	0.04528886	0.33053443
1276778293504	-1.879608	9.302697	0.8036005	-0.28200436	0.0	-4.75	-42.4375	7.5625	2.269225	0.08447106	0.19936574
1276778293544	-0.84446156	9.507003	1.6480621	-0.12097359	0.0	-5.5625	-42.9375	8.5625	2.603014	0.17098653	0.08859271
1276778293602	-1.1849703	8.853226	1.4165162	-0.76285267	0.0	-5.5625	-42.9375	9.8125	2.5374906	0.15727606	0.13305537
1276778293644	-2.0294318	8.962189	0.313268	-0.6122198	0.0	-5.5625	-42.9375	11.5625	2.2856715	0.03407809	0.22268823
1276778293684	-2.1383946	8.853226	0.19068487	-0.6968365	0.0	-6.0625	-42.4375	12.0625	2.253488	0.020933338	0.23699915
1276778293724	-1.920469	8.962189	0.19068487	-0.6390228	0.0	-6.3125	-42.6875	12.625	2.2983956	0.020801306	0.21109335
1276778293764	-1.9885708	9.466142	0.313268	-0.12882042	0.0	-6.8125	-42.9375	13.875	2.3460343	0.03237531	0.20706111
1276778293804	-1.6480621	9.466142	0.61291564	-0.178586	0.0	-7.5625	-43.1875	15.125	2.443829	0.06370235	0.17237298
1276778293844	-1.3756552	9.343558	0.95342433	-0.31436253	0.0	-7.5625	-43.4375	17.375	2.5705159	0.10061166	0.14618014
1276778293874	-1.4982382	9.466142	1.0351465	-0.16693592	0.0	-6.5625	-43.6875	19.375	2.6313937	0.10759098	0.15697128
1276778293904	-1.607201	9.084772	1.0351465	-0.5229168	0.0	-5.8125	-43.9375	20.625	2.6536841	0.11173344	0.17509979
1276778293934	-2.0294318	9.112013	0.84446156	-0.43325806	0.0	-5.0625	-43.9375	21.625	2.6214015	0.090213664	0.21914369
1276778293994	-2.7921712	9.275456	0.313268	-0.1149807	0.0	-3.75	-43.9375	21.875	2.5301764	0.032329064	0.29239956
1276778294034	-2.7513103	8.921328	0.313268	-0.46545506	0.0	-4.25	-44.1875	22.375	2.5177615	0.03354247	0.2991425
1276778294074	-2.1792557	9.152874	0.42223078	-0.38844776	0.0	-4.0	-44.4375	22.375	2.6123307	0.044846386	0.23374318
1276778294114	-1.879608	9.507003	0.42223078	-0.10642815	0.0	-3.25	-44.9375	22.625	2.6892245	0.043541707	0.1951905
1276778294154	-1.525479	9.384419	0.27240697	-0.29515076	0.0	-3.5	-44.6875	22.625	2.722705	0.028643668	0.16114494
1276778294194	-1.2666923	9.384419	0.3405087	-0.3310089	0.0	-3.0	-44.4375	22.875	2.7915857	0.0359429	0.13416734
1276778294234	-1.1441092	9.275456	0.7218784	-0.43306065	0.0	-2.75	-44.1875	24.125	2.852906	0.07708828	0.12272811
1276778294264	-1.3756552	9.234595	1.2258313	-0.3900242	0.0	-3.0	-43.9375	24.625	2.8368468	0.13054784	0.14788008
1276778294304	-1.9885708	9.234595	1.1849703	-0.28633976	0.0	-3.0	-44.4375	25.625	2.7614846	0.12479124	0.21210039
1276778294344	-2.3699405	9.193735	0.88532263	-0.2711811	0.0	-3.25	-44.6875	25.625	2.689593	0.09297912	0.25228542
1276778294384	-2.4516625	9.534244	0.6946377	0.062238693	0.0	-3.5	-44.1875	25.625	2.6740785	0.07044487	0.25168997
1276778294414	-2.2201166	9.384419	0.5720546	-0.14624119	0.0	-3.0	-44.1875	26.125	2.712091	0.059251063	0.23230377
1276778294444	-1.9885708	9.043911	0.53119355	-0.53147316	0.0	-3.0	-44.1875	25.875	2.7276292	0.0573018	0.21643539
1276778294484	-1.7570249	8.580819	0.53119355	-1.0317001	0.0	-3.0	-43.6875	26.125	2.7535784	0.060572255	0.20197009
1276778294524	-2.070293	9.00305	0.61291564	-0.5483198	0.0	-3.5	-43.9375	26.125	2.7108436	0.06624998	0.22602528
1276778294554	-2.4108016	8.894087	0.84446156	-0.55301	0.0	-4.25	-43.9375	25.875	2.6557443	0.091384366	0.26469645
1276778294584	-2.5606253	8.894087	0.92618364	-0.50506973	0.0	-4.25	-43.9375	25.875	2.6557443	0.091384366	0.26469645
1276778294618	-2.5606253	9.152874	0.84446156	-0.26489925	0.0	-4.25	-44.1875	26.125	2.64733	0.08861768	0.27278787
1276778294654	-2.5333846	9.084772	0.6537767	-0.35262775	0.0	-4.0	-43.9375	25.875	2.6417246	0.069208525	0.27195176
1276778294694	-2.4925237	8.076866	0.7218784	-1.323163	0.0	-4.25	-43.6875	25.625	2.6124907	0.085195206	0.2993282
1276778294724	-2.6014864	8.349273	0.61291564	-1.0400229	0.0	-4.5	-43.9375	25.875	2.5966654	0.06997173	0.30204868
1276778294754	-2.4925237	8.771504	0.5720546	-0.6699543	0.0	-4.25	-44.1875	25.875	2.6242924	0.06265164	0.27686346
1276778294784	-2.8738933	9.697687	0.53119355	0.32185268	0.0	-4.5	-44.6875	26.125	2.5998645	0.05246949	0.28810328
1276778294824	-3.0645783	10.038197	0.53119355	0.7023554	0.0	-4.0	-44.6875	26.375	2.606143	0.05056806	0.2963045
1276778294864	-2.5333846	8.962189	0.61291564	-0.47313404	0.0	-3.75	-44.4375	26.625	2.6499095	0.06571554	0.27548727
1276778294904	-2.7240696	9.193735	0.84446156	-0.1807251	0.0	-3.25	-44.4375	27.125	2.6675253	0.08784076	0.28805542
1276778294934	-2.5606253	8.812365	0.9942854	-0.5760937	0.0	-2.25	-44.6875	27.875	2.7159224	0.10792613	0.28278485
1276778294974	-2.3018389	8.539958	0.95342433	-0.91067505	0.0	-2.0	-45.1875	28.625	2.749184	0.107381046	0.26328072
1276778295014	-2.1792557	9.112013	0.7218784	-0.40989304	0.0	-0.75	-45.1875	29.375	2.8100471	0.076897845	0.23475334
1276778295054	-1.6889231	9.00305	0.50395286	-0.6327009	0.0	-0.0	-44.9375	29.625	2.888284	0.054960698	0.18543929
1276778295094	-1.3756552	9.575105	0.313268	-0.12815857	0.0	0.5	-44.4375	29.375	2.9546063	0.032373097	0.14269355
1276778295134	-1.1441092	9.656827	0.53119355	-0.06778717	0.0	1.5	-43.9375	29.375	3.0261018	0.05457077	0.11792701
1276778295174	-1.4165162	9.384419	0.84446156	-0.27843094	0.0	1.75	-43.6875	29.125	2.9968488	0.088743865	0.14981247
1276778295214	-2.5333846	8.962189	1.1168685	-0.42655087	0.0	1.75	-43.6875	28.625	2.845906	0.11935103	0.27548727
1276778295274	-3.1463003	8.62168	0.88532263	-0.5862169	0.0	1.75	-44.4375	28.875	2.7488773	0.09616562	0.34991214
1276778295314	-3.173541	9.043911	0.7627395	-0.19179344	0.0	1.75	-44.6875	28.625	2.7510054	0.0794127	0.3374796
1276778295354	-3.0645783	8.853226	0.7627395	-0.40702152	0.0	1.25	-45.1875	28.375	2.7372267	0.08123502	0.33324432
1276778295384	-3.0237172	8.894087	0.7627395	-0.38171387	0.0	0.75	-45.4375	28.375	2.728914	0.08101641	0.32771105
1276778295414	-2.9556155	9.00305	0.6946377	-0.30543518	0.0	0.75	-44.6875	28.125	2.7403107	0.0731757	0.31720513
1276778295454	-2.6014864	9.112013	0.7218784	-0.303092	0.0	0.5	-44.1875	28.125	2.7850816	0.07603198	0.27810222
1276778295494	-2.4516625	9.084772	0.92618364	-0.35141087	0.0	0.5	-43.9375	27.875	2.810602	0.09811187	0.26358607
1276778295534	-2.5606253	8.730643	1.1849703	-0.63140774	0.0	0.5	-43.9375	28.125	2.7992563	0.1295104	0.28529108
1276778295564	-2.8738933	8.812365	1.1168685	-0.4704609	0.0	1.0	-44.1875	28.125	2.7727616	0.11991506	0.3152451
1276778295604	-3.1054392	8.921328	1.0351465	-0.3037367	0.0	1.0	-44.4375	27.625	2.7387905	0.10914596	0.33497366
1276778295644	-2.9556155	8.894087	0.95342433	-0.38595676	0.0	1.0	-44.4375	27.625	2.7387905	0.10914596	0.33497366
1276778295684	-2.5606253	8.921328	0.84446156	-0.4867792	0.0	1.25	-44.6875	27.625	2.8013804	0.090733156	0.2795091
1276778295724	-2.6014864	9.043911	0.84446156	-0.35820198	0.0	0.5	-44.6875	27.375	2.7770755	0.08949511	0.2800889
1276778295754	-2.7240696	8.853226	0.9942854	-0.49060154	0.0	0.75	-44.6875	27.625	2.7717445	0.1069319	0.29849893
1276778295784	-2.8330324	8.894087	1.0351465	-0.4150381	0.0	1.0	-44.9375	27.875	2.769007	0.11044471	0.3083688
1276778295814	-2.7921712	8.853226	1.0760075	-0.4614048	0.0	1.0	-44.6875	27.875	2.7761035	0.1153955	0.3055107
1276778295844	-2.7240696	8.894087	1.1168685	-0.43793964	0.0	1.0	-44.9375	28.125	2.7881799	0.11949681	0.2972071
1276778295874	-2.6014864	8.962189	1.0351465	-0.4172907	0.0	0.25	-45.6875	27.875	2.7750387	0.11047132	0.28250974
1276778295904	-2.6014864	8.921328	0.95342433	-0.46497822	0.0	0.25	-45.4375	27.625	2.7691011	0.102239445	0.28373548
1276778295934	-2.6423476	8.894087	0.92618364	-0.48224163	0.0	-0.0	-45.4375	27.625	2.755297	0.099493004	0.28878528
1276778295964	-2.7513103	8.921328	0.88532263	-0.42882538	0.0	0.5	-45.1875	27.625	2.7555814	0.094546765	0.2991425
1276778296004	-2.7513103	8.894087	0.7627395	-0.46554375	0.0	1.0	-44.4375	28.125	2.7729456	0.08174509	0.3000048
1276778296044	-2.6832085	8.894087	0.84446156	-0.47833252	0.0	0.25	-44.1875	28.125	2.7669222	0.090650775	0.29300153
1276778296084	-2.6014864	8.962189	0.92618364	-0.42867756	0.0	0.5	-43.9375	27.625	2.7858288	0.09892287	0.28250974
1276778296164	-2.6423476	8.962189	0.9942854	-0.41029835	0.0	-0.25	-44.4375	27.375	2.7579114	0.10601459	0.28670958
1276778296204	-2.6423476	8.853226	1.0351465	-0.50970745	0.0	-0.0	-44.6875	27.375	2.761319	0.111574024	0.29004478
1276778296244	-2.7240696	8.962189	0.95342433	-0.39121628	0.0	-0.0	-44.6875	27.375	2.761319	0.111574024	0.29004478
1276778296314	-2.7240696	9.00305	0.88532263	-0.35893822	0.0	-0.0	-44.6875	27.875	2.754655	0.09384531	0.29381463
1276778296354	-2.6423476	8.921328	0.84446156	-0.46399498	0.0	-0.0	-44.9375	28.125	2.7610872	0.09051128	0.2879515
1276778296394	-2.6423476	8.894087	0.88532263	-0.48621082	0.0	-0.25	-45.1875	28.375	2.7566516	0.095130645	0.28878528
1276778296424	-2.6014864	8.962189	0.88532263	-0.43262482	0.0	-0.25	-45.1875	28.375	2.7566516	0.095130645	0.28878528
1276778296454	-2.6832085	8.962189	0.92618364	-0.4056797	0.0	-0.0	-45.6875	27.875	2.7534916	0.09868008	0.29089898
1276778296494	-2.7240696	8.962189	0.88532263	-0.39786816	0.0	0.5	-45.1875	27.625	2.7602928	0.09423476	0.29507795
1276778296564	-2.6832085	8.894087	0.92618364	-0.4705801	0.0	0.5	-45.1875	27.125	2.7596061	0.09936832	0.2930015
1276778296604	-2.6423476	8.921328	0.92618364	-0.456254	0.0	0.5	-44.6875	27.125	2.7690732	0.099215575	0.28795153
1276778296644	-2.7513103	9.043911	0.9942854	-0.3013544	0.0	0.25	-44.4375	27.375	2.7604764	0.10479502	0.295321
1276778296684	-2.7513103	8.962189	0.9942854	-0.37907696	0.0	0.25	-44.6875	27.625	2.7588797	0.10566218	0.29785803
1276778296724	-2.6423476	8.921328	1.0351465	-0.4448328	0.0	0.5	-44.6875	28.375	2.7867272	0.11079766	0.28795147
1276778296764	-2.4925237	9.00305	0.95342433	-0.41641045	0.0	0.25	-44.6875	28.375	2.7975698	0.101708815	0.27008834
1276778296794	-2.4516625	8.894087	0.92618364	-0.5344744	0.0	0.5	-44.9375	28.375	2.803309	0.10005535	0.2689712
1276778296834	-2.6014864	8.921328	0.92618364	-0.46771908	0.0	-0.0	-45.1875	28.125	2.7681944	0.09933777	0.28373548
1276778296874	-2.7921712	8.894087	0.88532263	-0.44263363	0.0	-0.0	-45.1875	27.875	2.7394953	0.0946866	0.3041923
1276778296904	-2.8738933	8.962189	0.92618364	-0.34948826	0.0	-0.0	-45.1875	27.625	2.7311254	0.098091856	0.3103094
1276778296934	-2.7240696	8.921328	0.88532263	-0.43678093	0.0	-0.0	-44.6875	27.625	2.749271	0.09462728	0.29635188
1276778296964	-2.6014864	8.853226	0.95342433	-0.52999306	0.0	-0.0	-44.4375	27.875	2.769588	0.102958515	0.28580153
1276778297004	-2.6014864	8.894087	0.9942854	-0.48671913	0.0	-0.25	-43.9375	27.875	2.7693644	0.106887184	0.28455842
1276778297044	-2.6423476	8.962189	0.9942854	-0.41029835	0.0	-0.0	-43.9375	27.875	2.7730858	0.10601459	0.28670958
1276778297124	-2.7921712	8.894087	1.0351465	-0.4272833	0.0	-0.5	-44.4375	26.875	2.7275462	0.1105895	0.30419227
1276778297164	-2.6832085	8.894087	0.95342433	-0.4678383	0.0	-0.25	-44.6875	27.125	2.7444546	0.10227087	0.2930015
1276778297204	-2.6423476	8.921328	0.92618364	-0.456254	0.0	-0.0	-44.9375	27.375	2.7567594	0.099215575	0.28795153
1276778297244	-2.7240696	8.962189	0.9942854	-0.38699055	0.0	0.25	-44.9375	27.625	2.7604778	0.10575128	0.29507798
1276778297274	-2.6832085	8.921328	0.9942854	-0.43764305	0.0	0.5	-44.9375	27.875	2.7733128	0.106325164	0.29215696
1276778297314	-2.6423476	8.921328	1.0760075	-0.4402275	0.0	0.25	-45.1875	27.625	2.771176	0.11513343	0.2879515
1276778297354	-2.6423476	8.894087	1.1168685	-0.46137428	0.0	0.25	-45.4375	27.625	2.770523	0.1197979	0.28878528
1276778297394	-2.6832085	8.894087	1.0351465	-0.45914173	0.0	0.25	-45.1875	27.625	2.7634814	0.11096796	0.29300153
1276778297424	-2.6832085	8.853226	0.9942854	-0.50246716	0.0	0.25	-45.4375	27.375	2.7559404	0.10706879	0.29427728
1276778297454	-2.6832085	8.894087	0.95342433	-0.4678383	0.0	0.5	-45.6875	27.375	2.7602117	0.10227087	0.2930015
1276778297494	-2.7240696	8.921328	0.92618364	-0.43283272	0.0	0.75	-45.1875	27.125	2.7620423	0.09896687	0.29635188
1276778297534	-2.7240696	8.853226	0.95342433	-0.494874	0.0	0.5	-45.1875	27.375	2.757178	0.10256884	0.29849896
1276778297574	-2.6832085	8.921328	0.88532263	-0.44857883	0.0	-0.0	-44.6875	27.125	2.748654	0.09474694	0.29215696
1276778297614	-2.7513103	8.921328	0.95342433	-0.42215157	0.0	-0.5	-44.4375	27.375	2.7351046	0.10177125	0.2991425
1276778297654	-2.8738933	8.962189	0.92618364	-0.34948826	0.0	-1.25	-44.4375	27.625	2.7046208	0.098091856	0.3103094
1276778297694	-2.6832085	8.894087	0.88532263	-0.47454453	0.0	-1.0	-44.6875	27.625	2.7273417	0.09501135	0.29300153
1276778297734	-2.4108016	8.853226	0.88532263	-0.58844185	0.0	-0.25	-44.9375	28.625	2.788091	0.0961889	0.26586148
1276778297764	-2.4108016	8.962189	0.8036005	-0.49114895	0.0	-0.0	-44.9375	28.375	2.7919357	0.08637223	0.26277673
1276778297804	-2.5606253	9.00305	0.7627395	-0.41551208	0.0	0.25	-44.9375	28.375	2.7792706	0.08130863	0.27710038
1276778297844	-2.6423476	8.962189	0.88532263	-0.42120266	0.0	-0.0	-44.9375	28.125	2.764262	0.09446974	0.28670958
1276778297884	-2.6423476	9.00305	0.92618364	-0.37825012	0.0	-0.0	-45.1875	27.625	2.7604005	0.098392054	0.285478
1276778297914	-2.6014864	8.962189	0.92618364	-0.42867756	0.0	-0.25	-44.9375	27.125	2.7537117	0.09892287	0.28250974
1276778297944	-2.4925237	9.00305	0.8036005	-0.43043804	0.0	-0.75	-45.1875	26.375	2.738806	0.085811585	0.27008834
1276778297974	-2.4108016	9.043911	0.84446156	-0.40891647	0.0	-1.0	-44.9375	25.875	2.741434	0.08997937	0.26050866
1276778298014	-2.4925237	9.112013	0.84446156	-0.32221222	0.0	-1.5	-44.6875	25.625	2.7175767	0.0891546	0.26701078
1276778298054	-2.5333846	8.962189	0.84446156	-0.4550743	0.0	-1.75	-44.9375	25.625	2.6995013	0.0904247	0.2754873
1276778298094	-2.5333846	8.894087	0.8036005	-0.5239458	0.0	-2.0	-44.4375	26.125	2.6981668	0.08667815	0.27749044
1276778298134	-2.4925237	9.084772	0.7627395	-0.3553257	0.0	-2.5	-43.9375	25.875	2.692933	0.08078972	0.26777372
1276778298174	-2.3699405	9.00305	0.8036005	-0.4622774	0.0	-2.75	-43.6875	24.875	2.689215	0.08610469	0.25739816
1276778298214	-2.2609777	9.152874	0.84446156	-0.34090996	0.0	-3.25	-43.9375	24.625	2.6904566	0.08933118	0.24217558
1276778298254	-2.1111538	9.043911	0.95342433	-0.470788	0.0	-3.5	-44.1875	24.125	2.6980026	0.1023033	0.22932714
1276778298284	-2.1111538	9.112013	0.9942854	-0.40056992	0.0	-3.5	-44.1875	23.875	2.6985958	0.10590453	0.22767201
1276778298324	-2.1383946	9.152874	0.9942854	-0.35485458	0.0	-4.25	-44.6875	23.875	2.672406	0.105390385	0.22951417
1276778298364	-2.070293	9.112013	1.0351465	-0.40524483	0.0	-4.0	-44.4375	22.875	2.6767404	0.110329196	0.22341199
1276778298404	-1.7978859	9.084772	1.0351465	-0.48801327	0.0	-4.25	-44.1875	22.375	2.6999154	0.111313194	0.19537652
1276778298434	-1.525479	9.193735	0.95342433	-0.43857288	0.0	-4.5	-44.6875	21.375	2.7122788	0.101950265	0.16442786
1276778298464	-1.3756552	9.302697	0.95342433	-0.35458088	0.0	-4.5	-44.4375	20.625	2.72703	0.10104122	0.14681304
1276778298504	-1.2666923	9.275456	0.95342433	-0.3966751	0.0	-5.3125	-44.4375	20.125	2.7088335	0.10149477	0.13572429
1276778298544	-1.2258313	9.275456	1.2666923	-0.36518478	0.0	-5.3125	-44.9375	18.875	2.7157052	0.13456845	0.13139714
1276778298574	-1.2666923	9.193735	1.7978859	-0.3535204	0.0	-5.8125	-44.9375	18.625	2.7212055	0.19135517	0.13691576
1276778298614	-1.4165162	9.00305	2.2609777	-0.4165783	0.0	-5.8125	-44.6875	17.875	2.712911	0.24317339	0.15605801
1276778298654	-1.7570249	8.894087	1.9885708	-0.52514553	0.0	-6.0625	-44.4375	16.875	2.624	0.21592487	0.19503848
1276778298694	-2.2201166	9.112013	1.56634	-0.2981739	0.0	-6.5625	-43.4375	15.625	2.4958436	0.16548519	0.23899071
1276778298734	-2.1383946	8.921328	1.1441092	-0.56155396	0.0	-6.8125	-43.1875	13.625	2.4081066	0.124071166	0.23525625
1276778298764	-1.56634	9.084772	0.88532263	-0.54542446	0.0	-7.5625	-42.6875	12.625	2.4126058	0.095740736	0.17073521
1276778298804	-0.6946377	9.00305	1.7978859	-0.599597	0.0	-7.5625	-41.9375	11.0625	2.6238155	0.19653547	0.07700326
1276778298844	-0.19068487	9.302697	3.568531	0.15883827	0.0	-7.5625	-41.9375	10.8125	2.817367	0.3662203	0.020494934
1276778298884	-0.9125633	8.921328	3.255263	-0.26623058	0.0	-7.5625	-41.1875	10.5625	2.6816342	0.34820122	0.101935536
1276778298914	-2.2201166	8.853226	1.9477097	-0.4737997	0.0	-6.8125	-40.9375	9.8125	2.3846886	0.21023935	0.2457025
1276778298944	-2.9147544	8.62168	1.8387469	-0.52170753	0.0	-6.8125	-41.1875	10.0625	2.2887335	0.19935317	0.32600987
1276778298974	-3.0645783	8.539958	2.5606253	-0.37906647	0.0	-6.8125	-40.9375	9.0625	2.313005	0.27506545	0.34453863
1276778299004	-3.0237172	8.539958	3.405087	-0.12840748	0.0	-6.3125	-40.9375	8.5625	2.3867524	0.35952437	0.34029338
1276778299044	-3.636633	8.539958	3.5276701	0.12312508	0.0	-6.5625	-40.9375	7.5625	2.2952247	0.36319417	0.40257967
1276778299084	-4.0180025	8.19945	2.5606253	-0.32339573	0.0	-6.0625	-40.6875	7.3125	2.176975	0.27340907	0.45564243
1276778299124	-3.636633	8.158588	2.070293	-0.637475	0.0	-5.8125	-41.1875	7.0625	2.162598	0.22775221	0.4193081
1276778299164	-2.4108016	9.302697	1.4573772	-0.086769104	0.0	-5.8125	-42.1875	7.8125	2.2699053	0.15050532	0.2535725
1276778299204	-0.84446156	9.043911	1.0351465	-0.6646061	0.0	-5.3125	-42.6875	9.5625	2.5656781	0.11347257	0.09310355
1276778299244	-0.8036005	9.193735	1.0351465	-0.51998997	0.0	-5.0625	-43.1875	10.8125	2.624811	0.11169808	0.087185815
1276778299274	-0.61291564	9.656827	0.6537767	-0.10833073	0.0	-4.75	-43.4375	12.625	2.6913126	0.067462504	0.063384645
1276778299314	0.3405087	10.337844	0.88532263	0.5746193	0.0	-4.25	-43.1875	14.375	2.9859993	0.08538448	-0.032926172
1276778299344	0.7218784	10.038197	1.7570249	0.4096918	0.0	-4.0	-43.4375	16.125	3.1042354	0.17284109	-0.07178958
1276778299374	0.19068487	9.615966	2.4925237	0.1289339	0.0	-4.0	-43.9375	18.125	3.032597	0.25357717	-0.01982743
1276778299414	-2.7513103	8.62168	3.173541	-0.21631908	0.0	-3.25	-43.6875	19.875	2.6710796	0.33726823	0.30890024
1276778299444	-4.2904096	8.689782	1.9885708	0.08649635	0.0	-3.25	-43.9375	21.375	2.4773784	0.20238364	0.45861936
1276778299484	-3.173541	8.430995	0.53119355	-0.78250504	0.0	-3.25	-43.9375	21.125	2.4729447	0.058897633	0.3600094
1276778299524	-3.1054392	8.894087	-0.0	-0.38600636	0.0	-3.25	-44.1875	20.375	2.4281733	-0.0	0.3359243
1276778299564	-2.4925237	8.894087	0.313268	-0.56459427	0.0	-3.0	-45.1875	20.125	2.531181	0.033902414	0.27323592
1276778299604	-1.4573772	9.275456	-0.0	-0.41739845	0.0	-2.75	-45.1875	19.375	2.6761684	-0.0	0.15584773
1276778299644	-1.0351465	9.302697	0.50395286	-0.4329815	0.0	-2.5	-45.4375	20.125	2.8195746	0.05378854	0.110817924
1276778299684	-1.6480621	8.894087	1.4165162	-0.65091896	0.0	-2.0	-45.4375	21.125	2.7876463	0.15533756	0.18322049
1276778299724	-2.8330324	8.812365	1.3756552	-0.44843102	0.0	-2.0	-44.9375	21.875	2.629214	0.14753431	0.31104833
1276778299754	-3.5276701	9.043911	1.4165162	0.0037164688	0.0	-2.25	-45.1875	22.125	2.554885	0.14489621	0.3719084
1276778299784	-3.1054392	9.084772	1.334794	-0.11343002	0.0	-2.5	-45.4375	22.375	2.5938478	0.13814284	0.3293771
1276778299824	-2.1111538	8.812365	1.0351465	-0.6859999	0.0	-2.25	-44.9375	22.375	2.7050753	0.11373989	0.23513575
1276778299854	-2.5333846	8.853226	0.8036005	-0.5630894	0.0	-2.75	-44.6875	21.375	2.6023543	0.08704613	0.27870598
1276778299894	-3.568531	9.193735	0.8036005	0.08804321	0.0	-2.75	-44.4375	21.125	2.4879391	0.08130485	0.37024766
1276778299924	-3.759216	9.00305	0.5720546	-0.03353119	0.0	-2.5	-43.9375	20.375	2.4376597	0.058566954	0.39554286
1276778299964	-3.445948	8.390134	0.61291564	-0.715744	0.0	-2.75	-44.1875	19.125	2.415382	0.06747193	0.38970858
1276778300004	-3.568531	8.390134	0.61291564	-0.66857433	0.0	-2.5	-44.9375	18.875	2.3960407	0.06712312	0.40214562
1276778300044	-3.1463003	8.62168	0.8036005	-0.5937052	0.0	-2.25	-45.1875	17.875	2.4541621	0.08733613	0.3499121
1276778300084	-2.3699405	8.853226	1.0351465	-0.5834322	0.0	-1.75	-45.4375	18.125	2.6105895	0.11246964	0.2615597
1276778300124	-2.3018389	8.921328	1.5390993	-0.46548462	0.0	-1.5	-45.1875	18.625	2.6784842	0.16551998	0.25250813
1276778300164	-2.6832085	8.812365	1.3756552	-0.49269295	0.0	-1.25	-44.6875	18.375	2.6147616	0.1482406	0.29556385
1276778300204	-2.6832085	9.084772	1.4982382	-0.21616459	0.0	-1.5	-44.6875	19.375	2.6409783	0.15686381	0.28718743
1276778300244	-2.3426998	8.921328	1.4982382	-0.46196938	0.0	-1.25	-44.4375	19.125	2.689314	0.16102557	0.2567976
1276778300274	-2.3699405	8.689782	1.334794	-0.7011242	0.0	-1.25	-44.9375	18.375	2.6525307	0.14712182	0.26625204
1276778300314	-3.0237172	8.771504	1.2258313	-0.4479742	0.0	-1.0	-44.6875	19.125	2.576345	0.13136087	0.33196375
1276778300354	-3.3642259	8.730643	0.95342433	-0.40180206	0.0	-0.75	-44.4375	17.875	2.4920397	0.10155028	0.36780092
1276778300394	-3.173541	8.689782	0.7218784	-0.5273838	0.0	-1.25	-44.1875	17.125	2.4633298	0.07787346	0.35015464
1276778300424	-3.0237172	8.812365	0.8036005	-0.45537186	0.0	-1.25	-43.6875	16.875	2.4944973	0.086040944	0.33053446
1276778300464	-3.214402	9.00305	0.92618364	-0.20221806	0.0	-1.75	-43.9375	15.875	2.4475596	0.09658304	0.34292808
1276778300504	-3.405087	9.112013	0.8036005	-0.0460577	0.0	-1.25	-43.6875	15.625	2.4251153	0.08242442	0.3576235
1276778300544	-3.486809	9.615966	0.84446156	0.45676804	0.0	-1.5	-44.1875	15.625	2.425948	0.0823719	0.34786087
1276778300574	-3.9771416	10.079058	0.7627395	1.0555239	0.0	-1.75	-44.4375	15.375	2.3632739	0.07027762	0.37583786
1276778300614	-3.255263	9.112013	0.38136974	-0.12310982	0.0	-2.0	-44.4375	15.375	2.3606691	0.039393485	0.34311864
1276778300654	-2.3426998	7.8589406	0.313268	-1.599987	0.0	-2.5	-44.4375	15.625	2.42178	0.038181674	0.28970686
1276778300694	-2.2609777	8.076866	0.46309182	-1.406517	0.0	-3.0	-44.1875	15.625	2.4507632	0.05515707	0.27294618
1276778300734	-2.6014864	9.152874	0.53119355	-0.2764349	0.0	-3.25	-43.9375	16.375	2.4598954	0.055766735	0.2769233
1276778300764	-2.9556155	9.697687	0.53119355	0.34534264	0.0	-3.25	-43.4375	15.625	2.4145067	0.052347973	0.29583204
1276778300804	-2.5333846	9.275456	0.61291564	-0.17193222	0.0	-3.0	-43.6875	15.125	2.4591734	0.0636583	0.26662475
1276778300834	-1.525479	8.308413	0.84446156	-1.3172503	0.0	-1.75	-43.6875	13.875	2.6523032	0.09963725	0.18158409
1276778300864	-0.46309182	8.390134	1.7297841	-1.2275505	0.0	-1.0	-43.9375	12.3125	2.9793525	0.20301947	0.05513886
1276778300904	0.27240697	9.847511	5.053149	1.2650251	0.0	-0.0	-44.1875	11.3125	-3.1011891	0.47394872	-0.027655467
1276778300934	-0.27240697	10.528529	2.6832085	1.0618248	0.0	0.75	-43.6875	8.8125	3.1219223	0.24945922	0.025867451
1276778300974	-0.6946377	10.991621	-0.08172209	1.207202	0.0	1.25	-42.4375	6.0625	2.8978918	-0.0074200053	0.06311309
1276778301014	-1.0760075	9.80665	-0.23154591	0.06157112	0.0	2.75	-40.9375	3.3125	2.506571	-0.023465946	0.109285064
1276778301054	-1.56634	8.812365	1.8387469	-0.66924477	0.0	4.25	-39.6875	0.5625	2.8297212	0.20261645	0.17590633
1276778301094	-1.7978859	8.19945	2.070293	-1.1608725	0.0	5.0625	-38.1875	-1.1875	2.7591033	0.24180666	0.21585304
1276778301134	-1.4982382	8.471856	1.2666923	-1.1105833	0.0	5.8125	-37.375	-2.6875	2.8727648	0.14618275	0.17503904
1276778301174	-1.7297841	8.580819	1.334794	-0.95203114	0.0	5.8125	-36.375	-4.4375	2.232886	0.15132236	0.19892134
1276778301214	-2.1111538	8.281172	1.3075534	-1.1611614	0.0	5.8125	-35.125	-5.4375	1.5674828	0.15182371	0.24961719
1276778301254	-2.3699405	8.158588	1.9477097	-1.090415	0.0	6.3125	-34.375	-6.6875	1.9117707	0.22536042	0.28270397
1276778301284	-2.8330324	7.668256	2.8738933	-1.1413469	0.0	6.3125	-33.875	-6.9375	2.2522829	0.3380576	0.35389552
1276778301324	-3.9771416	7.8180795	5.09401	0.3367691	0.0	6.8125	-33.625	-6.6875	2.4382882	0.5261392	0.47059196
1276778301354	-6.0474343	8.62168	6.3607025	2.4963322	0.0	7.0625	-34.125	-6.6875	2.2350774	0.54334825	0.61167955
1276778301384	-5.8976107	7.5456724	4.7535014	0.8851576	0.0	7.8125	-34.625	-5.6875	2.1147547	0.46071967	0.6634131
1276778301414	-5.47538	8.076866	3.5276701	0.5692835	0.0	8.3125	-35.375	-5.4375	2.030902	0.34690177	0.5957454
1276778301444	-3.405087	10.800936	2.6014864	1.8132706	0.0	8.0625	-35.875	-5.1875	2.3641815	0.22579536	0.305396
1276778301484	-1.6889231	9.697687	1.1168685	0.10016537	0.0	7.5625	-35.875	-4.6875	-1.1844383	0.11297757	0.1724279
1276778301524	-0.29964766	10.501288	0.7627395	0.72656536	0.0	6.8125	-36.125	-3.6875	-1.3912592	0.07247622	0.02852663
1276778301564	-0.3405087	8.62168	1.2666923	-1.0857658	0.0	6.0625	-36.125	-2.9375	-2.0439537	0.14576377	0.03947396
1276778301604	-1.7978859	8.662541	-0.6946377	-0.9322748	0.0	5.0625	-36.625	-1.9375	0.4762505	-0.0783547	0.2046418
1276778301674	-2.4516625	8.308413	-0.84446156	-1.1030025	0.0	4.5	-37.125	-1.9375	0.8438337	-0.09717674	0.28693873
1276778301714	-3.405087	9.152874	-0.50395286	-0.027914047	0.0	3.5	-37.125	-1.9375	1.1969713	-0.051558424	0.35615885
1276778301754	-4.0180025	9.765789	-0.040861044	0.75349426	0.0	2.5	-37.375	-1.1875	1.4599977	-0.0038693736	0.3903264
1276778301784	-3.7864566	9.193735	0.23154591	0.13898373	0.0	1.75	-37.9375	-0.6875	1.5820888	0.023283266	0.3906815
1276778301824	-3.336985	8.240311	0.6537767	-0.89230156	0.0	0.75	-38.6875	1.3125	1.8497081	0.07340573	0.38477376
1276778301864	-2.7921712	8.499097	0.88532263	-0.8169527	0.0	-0.25	-40.1875	2.8125	2.0444634	0.098641805	0.3174174
1276778301904	-2.1792557	9.00305	1.3075534	-0.45177174	0.0	-0.75	-41.1875	4.8125	2.3521967	0.1402315	0.23748949
1276778301934	-2.4925237	9.343558	1.1441092	-0.068902016	0.0	-1.5	-41.9375	7.3125	2.344582	0.1177642	0.26069313
1276778301974	-2.2609777	9.275456	0.92618364	-0.21478176	0.0	-2.0	-42.9375	8.5625	2.3721602	0.09670994	0.23909639
1276778302014	-1.607201	9.234595	0.8036005	-0.3988552	0.0	-2.25	-42.9375	10.3125	2.53669	0.0855228	0.1723153
1276778302054	-0.9942854	9.575105	0.46309182	-0.16892815	0.0	-1.75	-43.1875	10.8125	2.6921341	0.048068434	0.10346985
1276778302094	-0.50395286	9.765789	0.27240697	-0.0240736	0.0	-1.0	-43.4375	11.0625	2.8835313	0.027849736	0.05155817
1276778302134	-0.8036005	9.466142	0.95342433	-0.25873756	0.0	-0.5	-43.4375	11.8125	2.8875759	0.10002354	0.084689036
1276778302174	-2.6832085	9.724928	1.6480621	0.4153824	0.0	-0.0	-43.6875	12.3125	2.5913372	0.16193326	0.2692124
1276778302214	-3.759216	9.575105	1.607201	0.60475826	0.0	-0.5	-44.1875	13.125	2.4305706	0.15498899	0.37411353
1276778302254	-4.1814466	10.119919	1.1441092	1.2027206	0.0	-1.0	-44.4375	13.125	2.3388112	0.10410937	0.39182487
1276778302284	-3.568531	9.00305	0.8036005	-0.08887768	0.0	-1.5	-44.6875	13.125	2.315694	0.08278844	0.3773724
1276778302324	-3.173541	8.117727	0.7627395	-1.0573282	0.0	-2.25	-44.9375	12.875	2.2973325	0.08728778	0.37267137
1276778302364	-3.7864566	8.853226	0.95342433	-0.13060379	0.0	-2.5	-44.6875	12.625	2.2642195	0.098694645	0.40414885
1276778302394	-3.6774938	9.425281	1.56634	0.43118668	0.0	-3.25	-44.4375	12.3125	2.3332765	0.15359844	0.37200657
1276778302424	-2.1383946	9.152874	2.0294318	-0.19070435	0.0	-3.5	-43.4375	11.5625	2.55648	0.21264759	0.22951417
1276778302464	-1.8387469	8.499097	1.1441092	-1.0359821	0.0	-4.0	-43.1875	9.5625	2.4218283	0.13082005	0.21306248
1276778302504	-2.070293	8.853226	0.23154591	-0.7116337	0.0	-4.25	-42.4375	7.5625	2.1273863	0.0254613	0.22971822
1276778302544	-2.2609777	10.528529	0.42223078	0.9701872	0.0	-3.75	-41.4375	5.3125	2.0775557	0.039189503	0.21153502
1276778302574	-1.920469	11.223166	1.8387469	1.7271547	0.0	-3.75	-40.9375	2.0625	2.2390237	0.16010554	0.1694751
1276778302614	-1.3075534	9.343558	0.9942854	-0.31979752	0.0	-2.5	-39.4375	-0.1875	2.0243056	0.10499949	0.13903876
1276778302654	-1.0760075	6.66035	0.38136974	-3.0491734	0.0	-2.25	-38.9375	-2.6875	1.5075338	0.056466714	0.1601703
1276778302694	-1.0760075	8.049625	1.5390993	-1.5408716	0.0	-2.25	-38.4375	-4.1875	1.9507248	0.18729448	0.13288403
1276778302734	-1.1168685	8.539958	1.8387469	-0.999876	0.0	-2.25	-37.6875	-4.6875	1.9882566	0.21033527	0.13004343
1276778302764	-1.3075534	8.008764	1.607201	-1.5342207	0.0	-3.75	-37.375	-4.6875	1.8177176	0.19552752	0.16183743
1276778302794	-1.0760075	8.008764	2.2609777	-1.415576	0.0	-5.0625	-37.125	-3.9375	2.1085708	0.2728222	0.13355398
1276778302834	-0.88532263	8.499097	4.440233	-0.176795	0.0	-6.0625	-36.875	-2.6875	2.536329	0.47922355	0.10379235
1276778302874	-1.7297841	8.349273	7.9270425	1.835537	0.0	-7.5625	-37.6875	-1.1875	2.5663574	0.74897635	0.20428768
1276778302914	-4.372132	7.7772183	6.932757	1.4921894	0.0	-8.0625	-38.1875	0.5625	2.1925342	0.660588	0.51214004
1276778302954	-4.099725	9.507003	2.7240696	0.89902115	0.0	-7.8125	-38.4375	1.5625	1.9797275	0.25728005	0.40713742
1276778302994	-0.9942854	10.079058	1.3075534	0.40538692	0.0	-7.5625	-39.4375	2.0625	2.1200128	0.12839288	0.098330505
1276778303034	-0.14982383	9.615966	1.0351465	-0.13396835	0.0	-6.8125	-39.6875	3.3125	2.362806	0.107222855	0.015579476
1276778303074	-0.7627395	8.689782	1.8387469	-0.89177036	0.0	-6.0625	-40.4375	3.8125	2.4652548	0.20774707	0.08754992
1276778303114	-1.4982382	9.043911	0.95342433	-0.59003067	0.0	-6.0625	-40.9375	4.5625	2.167796	0.1036316	0.16417164
1276778303154	-1.1849703	9.997335	-0.88532263	0.29951954	0.0	-5.8125	-41.1875	4.5625	1.6667207	-0.08771463	0.11797818
1276778303194	-1.1168685	8.158588	-0.3405087	-1.5649328	0.0	-5.5625	-41.1875	3.8125	1.7625532	-0.041327026	0.13604917
1276778303224	-1.9885708	8.662541	0.040861044	-0.91869736	0.0	-5.8125	-40.6875	2.8125	1.7704754	0.004597368	0.2256502
1276778303264	-2.7513103	10.079058	-0.0	0.64117813	0.0	-5.0625	-40.9375	2.0625	1.7017128	-0.0	0.2664807
1276778303304	-3.445948	9.915613	0.42223078	0.6991682	0.0	-4.25	-40.6875	1.0625	1.716563	0.04020101	0.33447042
