#timestamp	accel_x	accel_y	accel_z	accel_mag	temperature	mag_x	mag_y	mag_z	azimuth	pitch	roll
1276793261172	2.1792557	0.38136974	9.425281	-0.12519836	0.0	-26.4375	-2.4375	-43.5	3.0061364	1.3402426	-1.3975507
1276793261222	2.4108016	0.42223078	8.921328	-0.555686	0.0	-25.9375	-2.1875	-43.9375	2.9698849	1.3030416	-1.3974136
1276793261252	2.4925237	0.53119355	8.894087	-0.55464363	0.0	-24.5	-1.9375	-44.4375	2.8619177	1.2917348	-1.3608228
1276793261285	2.1792557	0.5720546	9.343558	-0.19527817	0.0	-24.9375	-1.4375	-44.6875	2.7865505	1.3341757	-1.314088
1276793261322	2.070293	0.46309182	9.384419	-0.18542957	0.0	-24.9375	-1.6875	-44.6875	2.881077	1.3484722	-1.3507346
1276793261352	2.4925237	0.38136974	8.894087	-0.56203556	0.0	-24.9375	-1.6875	-44.6875	2.881077	1.3484722	-1.3507346
1276793261402	2.6423476	0.53119355	9.00305	-0.40882683	0.0	-25.4375	-1.4375	-44.6875	2.8340282	1.2799206	-1.3724097
1276793261442	2.2609777	0.8036005	9.534244	0.024910927	0.0	-25.6875	-1.1875	-44.9375	2.6155767	1.3242409	-1.2292997
1276793261472	2.2609777	0.6537767	8.962189	-0.54056835	0.0	-26.1875	-1.1875	-44.6875	2.7094965	1.3139808	-1.289317
1276793261512	2.4925237	0.5720546	8.853226	-0.5914707	0.0	-26.4375	-1.6875	-45.1875	2.8143816	1.2895921	-1.345195
1276793261552	2.4516625	0.53119355	9.302697	-0.17166233	0.0	-26.4375	-1.6875	-45.1875	2.8143816	1.2895921	-1.345195
1276793261583	2.3699405	0.53119355	9.275456	-0.21848679	0.0	-25.9375	-1.9375	-44.9375	2.8686435	1.3146998	-1.3503026
1276793261623	2.4108016	0.53119355	9.084772	-0.39244747	0.0	-25.9375	-1.9375	-45.4375	2.863689	1.3054703	-1.3539227
1276793261662	2.3699405	0.50395286	9.193735	-0.29900265	0.0	-25.6875	-1.4375	-45.1875	2.849023	1.3131139	-1.3612734
1276793261702	2.2609777	0.27240697	9.084772	-0.44079113	0.0	-25.9375	-1.4375	-44.9375	3.0243027	1.3251818	-1.4508923
1276793261742	2.3699405	0.38136974	9.112013	-0.3837614	0.0	-26.1875	-1.4375	-45.4375	2.943369	1.3132129	-1.4112446
1276793261782	2.6014864	0.6946377	9.00305	-0.40956783	0.0	-25.9375	-1.4375	-45.1875	2.706769	1.280184	-1.3098681
1276793261822	2.4925237	0.7218784	9.343558	-0.10944176	0.0	-26.4375	-1.1875	-45.1875	2.68637	1.2998973	-1.2888918
1276793261852	2.6014864	0.61291564	9.00305	-0.4152546	0.0	-26.4375	-0.9375	-45.6875	2.7323024	1.2822157	-1.3394139
1276793261883	2.6832085	0.6537767	8.812365	-0.5716734	0.0	-26.4375	-0.9375	-44.6875	2.701574	1.2671008	-1.3317984
1276793261922	2.4108016	0.50395286	9.152874	-0.3281994	0.0	-26.4375	-1.4375	-44.9375	2.855306	1.3079364	-1.3647242
1276793261952	2.070293	0.27240697	9.765789	0.17988873	0.0	-26.4375	-1.4375	-45.1875	3.0185738	1.3601465	-1.439969
1276793261992	2.152015	0.10896278	9.275456	-0.2841959	0.0	-26.4375	-1.4375	-44.9375	-3.13527	1.3425361	-1.5202066
1276793262032	2.6423476	0.27240697	8.689782	-0.7199278	0.0	-26.6875	-0.9375	-45.6875	2.9938517	1.2741305	-1.4680665
1276793262074	2.4516625	0.313268	9.425281	-0.06269264	0.0	-26.9375	0.3125	-45.6875	2.8854313	1.3143399	-1.4437072
1276793262142	2.3018389	0.3405087	9.507003	-0.019029617	0.0	-26.9375	0.5625	-45.4375	2.8502593	1.33076	-1.4239324
1276793262172	2.4108016	-0.040861044	9.112013	-0.38102436	0.0	-26.9375	0.5625	-45.4375	2.8502593	1.33076	-1.4239324
1276793262204	2.4516625	-0.3405087	8.62168	-0.83670235	0.0	-27.1875	0.3125	-45.1875	-2.8919532	1.2912254	-1.7088023
1276793262242	2.7649305	-0.08172209	8.689782	-0.68722916	0.0	-27.1875	-0.4375	-45.1875	-3.0400643	1.2626175	-1.6003444
1276793262284	2.7240696	0.14982383	9.275456	-0.13829517	0.0	-27.1875	-0.9375	-44.9375	3.1000898	1.284734	-1.5158517
1276793262322	2.6832085	-0.27240697	8.921328	-0.4865694	0.0	-27.4375	-0.4375	-44.4375	-2.9037716	1.2772222	-1.6719725
1276793262362	2.7921712	-0.19068487	8.921328	-0.4566412	0.0	-27.1875	-0.1875	-43.6875	-2.9834893	1.2668129	-1.6389831
1276793262402	2.8738933	0.0	8.962189	-0.39495087	0.0	-27.1875	-0.1875	-43.0	-3.126898	1.2604872	-1.5707964
1276793262442	3.0645783	0.23154591	9.193735	-0.11283684	0.0	-27.1875	0.0625	-42.5	2.9707384	1.248191	-1.4953841
1276793262482	2.8738933	-0.50395286	8.390134	-0.92365646	0.0	-27.4375	-0.1875	-42.5	-2.73817	1.2361194	-1.7443869
1276793262512	2.9147544	0.313268	9.343558	-0.013998985	0.0	-27.9375	-0.6875	-42.5	2.9769084	1.266773	-1.4637307
1276793262553	3.405087	0.3405087	9.507003	0.29749107	0.0	-28.9375	-0.6875	-42.5	2.9712503	1.2252825	-1.4711276
1276793262592	3.759216	0.46309182	8.853226	-0.17722797	0.0	-29.9375	-1.6875	-42.25	2.961238	1.1665351	-1.4482255
1276793262622	3.173541	1.0351465	8.812365	-0.38323975	0.0	-30.4375	-2.6875	-41.75	2.6562228	1.208701	-1.2554972
1276793262652	3.718355	0.6537767	8.499097	-0.50674534	0.0	-30.4375	-3.4375	-41.5	2.9732528	1.152767	-1.396751
1276793262692	4.399372	0.6946377	7.5865335	-1.0093498	0.0	-30.6875	-4.375	-40.75	3.0655417	1.0399337	-1.4141945
1276793262722	3.255263	1.1441092	9.697687	0.48659325	0.0	-30.9375	-5.125	-39.75	2.8104582	1.2289611	-1.2328175
1276793262752	3.9090397	0.7218784	9.888372	0.8508167	0.0	-31.9375	-5.625	-39.3125	3.1241982	1.1885663	-1.3881847
1276793262792	4.6036777	0.7627395	8.308413	-0.27746677	0.0	-33.375	-6.125	-38.5625	-3.0867338	1.0590515	-1.4066074
1276793262822	3.990762	0.7627395	7.668256	-1.1285114	0.0	-34.125	-6.875	-37.8125	-3.1150537	1.0835577	-1.3819475
1276793262852	3.759216	1.2666923	8.580819	-0.35325527	0.0	-34.625	-7.875	-37.8125	2.923288	1.1377631	-1.2457885
1276793262892	3.9499009	1.3756552	8.894087	0.021824837	0.0	-34.375	-9.125	-37.5625	2.9761984	1.1312163	-1.2356583
1276793262932	4.0180025	1.2666923	8.580819	-0.24739742	0.0	-33.375	-10.8125	-37.8125	-3.1228826	1.1143975	-1.2654042
1276793262972	4.0588636	1.6480621	8.499097	-0.24500084	0.0	-32.875	-12.5625	-38.0625	3.089007	1.0948806	-1.1850936
1276793263012	3.8681788	2.070293	8.539958	-0.20561886	0.0	-32.125	-13.0625	-38.3125	2.8717446	1.0962136	-1.079378
1276793263052	3.8681788	1.6889231	8.499097	-0.31718636	0.0	-31.9375	-14.3125	-38.0625	-3.118202	1.109857	-1.159125
1276793263092	3.6774938	1.920469	8.240311	-0.5808773	0.0	-32.125	-14.8125	-37.5625	3.0234563	1.1043761	-1.0895294
1276793263132	3.718355	2.2609777	8.730643	-0.051532745	0.0	-31.4375	-15.0625	-37.8125	2.9019768	1.1083883	-1.0244725
1276793263172	3.486809	1.920469	9.234595	0.24938202	0.0	-31.4375	-15.5625	-38.3125	3.051615	1.1638001	-1.0673535
1276793263212	3.405087	1.920469	8.308413	-0.62446404	0.0	-30.9375	-15.3125	-39.3125	3.0135458	1.1310046	-1.0572681
1276793263252	3.718355	1.9477097	8.076866	-0.7041502	0.0	-30.1875	-14.8125	-40.25	3.0631218	1.0915092	-1.0882831
1276793263292	3.405087	1.7297841	9.084772	0.048290253	0.0	-29.9375	-14.3125	-40.25	3.0883381	1.172826	-1.1007692
1276793263332	2.6832085	1.9477097	10.269742	0.98504925	0.0	-28.9375	-14.3125	-40.75	2.8456843	1.2585093	-0.94290614
1276793263375	1.4982382	2.070293	9.80665	0.32751083	0.0	-27.6875	-14.3125	-41.75	2.4335887	1.3158724	-0.6264452
1276793263422	0.27240697	1.3075534	9.152874	-0.556839	0.0	-25.4375	-15.3125	-42.25	2.1377447	1.4258944	-0.20539539
1276793263472	0.38136974	2.2609777	7.8589406	-1.6200504	0.0	-21.75	-16.3125	-43.5	1.9157153	1.2869172	-0.1671018
1276793263512	-0.6946377	2.6423476	7.8180795	-1.52493	0.0	-16.5625	-17.3125	-44.6875	1.4291767	1.2346002	0.25706995
1276793263552	-2.1111538	2.8330324	9.384419	0.22083092	0.0	-10.625	-19.0	-44.9375	1.2091697	1.2107203	0.64041704
1276793263592	-2.1792557	2.6832085	8.117727	-0.98359776	0.0	-4.125	-20.75	-45.4375	1.2519753	1.1682307	0.68212545
1276793263682	-2.1792557	6.5513873	6.891896	-0.05123806	0.0	1.5625	-21.75	-45.4375	0.3027918	0.78449655	0.32112673
1276793263712	-4.372132	5.053149	6.3198414	-0.609354	0.0	6.5	-21.75	-45.4375	0.4603326	0.75754684	0.71326923
1276793263742	-6.1700177	3.9090397	8.117727	1.1133871	0.0	10.0	-20.25	-45.9375	0.62213314	0.83810824	1.0060694
1276793263772	-5.366417	0.313268	7.1234417	-0.8825264	0.0	11.4375	-17.8125	-46.9375	0.7511367	0.9243395	1.5124868
1276793263802	-5.5571017	-2.8330324	7.014479	-0.4199381	0.0	12.4375	-15.3125	-47.875	0.5913063	0.8439556	2.0422564
1276793263833	-6.782933	-3.0645783	7.6273947	0.8505993	0.0	12.1875	-13.5625	-48.375	0.527447	0.7976261	1.9951521
1276793263872	-6.1291566	-0.27240697	8.158588	0.40135288	0.0	12.1875	-13.0625	-48.875	0.59437555	0.9260205	1.6152115
1276793263950	-6.8237944	1.4982382	7.8180795	0.67816067	0.0	12.6875	-13.0625	-48.875	0.44152024	0.8415213	1.3546649
1276793263991	-5.243834	2.9147544	6.742072	-0.7817335	0.0	12.9375	-14.3125	-48.625	0.3216068	0.8436147	1.0634773
1276793264022	-5.597963	3.6774938	7.43671	0.20163631	0.0	13.4375	-15.3125	-47.875	0.3012035	0.83762413	0.9895618
1276793264052	-5.243834	3.7864566	7.9270425	0.42433453	0.0	14.1875	-16.3125	-47.1875	0.3489633	0.88641036	0.94540614
1276793264092	-5.202973	3.1054392	7.5865335	-0.09736729	0.0	14.9375	-17.0625	-46.9375	0.5123725	0.8968566	1.0326899
1276793264143	-5.6252036	1.4573772	7.0553403	-0.66637135	0.0	15.4375	-16.8125	-47.4375	0.6790421	0.88181734	1.3172903
1276793264182	-6.932757	0.84446156	7.3141265	0.306345	0.0	16.1875	-16.5625	-47.4375	0.63420665	0.808483	1.4495859
1276793264222	-7.014479	0.6537767	6.8237944	0.0012302399	0.0	17.1875	-15.8125	-46.9375	0.5976362	0.76945806	1.4778609
1276793264252	-4.2086873	0.95342433	6.0201936	-2.3995728	0.0	18.125	-14.8125	-45.9375	0.8203787	0.94887793	1.3480192
1276793264292	-4.7535014	0.95342433	5.7477865	-2.2872195	0.0	19.625	-14.3125	-45.1875	0.6920607	0.87009656	1.3728498
1276793264322	-7.273266	1.7978859	6.238119	-0.05744934	0.0	21.625	-13.8125	-44.4375	0.41618165	0.69431543	1.3284632
1276793264352	-8.076866	2.4925237	6.4424243	0.82129765	0.0	22.625	-13.8125	-43.9375	0.32498744	0.6512457	1.271468
1276793264382	-7.6954966	2.5333846	6.1291566	0.35234928	0.0	23.625	-14.0625	-43.6875	0.30981162	0.6476612	1.2527672
1276793264412	-6.782933	1.56634	5.7886477	-0.7529192	0.0	24.625	-13.8125	-42.75	0.47114468	0.6936735	1.3438509
1276793264444	-7.014479	1.3756552	6.0201936	-0.46116638	0.0	24.125	-13.8125	-43.0	0.5101277	0.69995344	1.3771377
1276793264483	-6.469665	1.4165162	6.1291566	-0.7828131	0.0	23.875	-13.5625	-43.0	0.53470415	0.74669725	1.3552502
1276793264522	-6.8237944	3.0237172	6.701211	0.2239666	0.0	22.875	-13.3125	-43.25	0.1962463	0.73161966	1.1536838
1276793264554	-7.04172	3.1463003	6.742072	0.43739986	0.0	21.125	-13.5625	-44.1875	0.21878213	0.7183525	1.1505996
1276793264602	-5.7886477	2.6423476	6.5513873	-0.67368126	0.0	20.125	-13.5625	-44.9375	0.27449515	0.799968	1.1425744
1276793264642	-5.012288	0.5720546	6.3198414	-1.7202005	0.0	18.625	-12.3125	-45.6875	0.6634163	0.8971221	1.4571576
1276793264683	-6.5513873	-0.88532263	6.782933	-0.33497334	0.0	17.6875	-11.8125	-46.4375	0.5906319	0.7982389	1.7051178
1276793264722	-6.742072	-1.4573772	7.082581	0.07982731	0.0	16.9375	-10.8125	-46.4375	0.56785065	0.79861546	1.7836825
1276793264762	-5.366417	-0.3405087	7.1234417	-0.88152885	0.0	16.1875	-10.375	-46.6875	0.6253969	0.9241914	1.6341631
1276793264802	-6.0201936	1.7570249	7.1234417	-0.31595516	0.0	15.6875	-10.625	-47.1875	0.31782442	0.84892595	1.2868285
1276793264850	-5.7886477	4.1814466	7.7363577	0.7216053	0.0	14.9375	-11.0625	-47.1875	0.012032273	0.82539916	0.94522536
1276793264882	-4.5219555	2.9147544	7.014479	-0.96658325	0.0	14.1875	-11.3125	-47.6875	0.12333613	0.9165177	0.99824196
1276793264922	-5.243834	0.7627395	7.205164	-0.8627157	0.0	13.4375	-11.8125	-47.6875	0.5428049	0.9366743	1.4263548
1276793264962	-5.284695	-0.6946377	7.1234417	-0.9097996	0.0	13.1875	-11.8125	-48.125	0.6008413	0.92841274	1.7014904
1276793265002	-5.5162406	-0.29964766	7.43671	-0.5425606	0.0	12.6875	-11.8125	-48.375	0.5766974	0.93188584	1.625064
1276793265042	-5.09401	0.38136974	6.932757	-1.1951752	0.0	12.4375	-12.8125	-48.625	0.5798799	0.9357772	1.4960694
1276793265082	-4.9850473	2.6014864	7.5456724	-0.39625168	0.0	11.9375	-14.0625	-48.625	0.42478055	0.9303751	1.0898156
1276793265122	-6.66035	3.0237172	9.152874	1.9099293	0.0	11.4375	-15.8125	-47.6875	0.52934843	0.89656955	1.1446311
1276793265162	-3.1463003	4.099725	7.8180795	-0.4349203	0.0	11.4375	-17.0625	-47.4375	0.14411774	0.9867158	0.65457076
1276793265202	-5.325556	3.3778462	6.742072	-0.57480717	0.0	11.9375	-17.8125	-46.6875	0.45753807	0.8187701	1.0055579
1276793265242	-6.0882955	2.152015	7.7363577	0.27053928	0.0	12.4375	-17.8125	-46.6875	0.6582521	0.8752596	1.2310357
1276793265282	-4.7535014	1.2258313	7.0553403	-1.2115202	0.0	12.4375	-17.8125	-46.4375	0.8280307	0.9629033	1.3184154
1276793265322	-4.8216033	1.8387469	6.701211	-1.3488092	0.0	12.6875	-17.8125	-45.6875	0.7334001	0.9145819	1.206465
1276793265362	-5.243834	3.405087	6.3198414	-0.9166107	0.0	12.6875	-18.5	-45.1875	0.4673613	0.790763	0.99487776
1276793265402	-5.202973	3.6774938	6.851035	-0.45081902	0.0	12.6875	-20.0	-43.6875	0.5813176	0.82165563	0.95551705
1276793265442	-4.903325	3.1054392	6.238119	-1.2860584	0.0	13.4375	-22.0	-42.75	0.75171876	0.821433	1.0062269
1276793265482	-5.175732	4.630918	7.7772183	0.62017727	0.0	13.1875	-24.5	-41.5	0.8613437	0.84186316	0.84089667
1276793265522	-5.134871	3.568531	6.1291566	-1.0506306	0.0	13.1875	-25.9375	-40.25	0.9056834	0.77538836	0.96346074
1276793265562	-4.630918	3.5276701	5.7886477	-1.597003	0.0	12.9375	-26.4375	-40.0	0.93126786	0.7825685	0.9198082
1276793265602	-4.7943625	3.8273177	6.0474343	-1.1923752	0.0	11.9375	-27.4375	-39.5	0.9713433	0.7782367	0.89709556
1276793265642	-4.944186	2.4516625	5.9793324	-1.6698179	0.0	11.9375	-27.6875	-39.0625	1.1135446	0.82544214	1.1104599
1276793265692	-4.5628166	4.8216033	6.6331096	-0.42233944	0.0	10.5	-29.6875	-38.0625	1.0951622	0.78500634	0.75782895
1276793265732	-4.0588636	7.9679036	6.0201936	0.97317314	0.0	9.75	-32.625	-35.5625	0.51586646	0.5925386	0.47114062
1276793265772	-4.5628166	7.6954966	5.325556	0.60495377	0.0	9.25	-34.625	-33.875	0.7025058	0.5369318	0.5351976
1276793265812	-5.706926	4.8216033	3.2961242	-1.6407881	0.0	8.25	-37.125	-33.125	0.90500855	0.4154993	0.86928874
1276793265852	-5.5571017	13.715691	3.2961242	5.354682	0.0	9.0	-37.375	-32.125	0.24174245	0.21915339	0.38495
1276793265892	-6.1291566	7.164303	3.445948	0.23169422	0.0	9.75	-37.375	-31.625	0.75971836	0.35040528	0.7076862
1276793265932	-6.0201936	6.4015636	4.5219555	0.07620525	0.0	11.1875	-37.875	-30.1875	1.0290351	0.47524416	0.7547061
1276793265972	-5.325556	7.246025	3.3778462	-0.20059681	0.0	13.9375	-37.625	-27.1875	0.7489522	0.35931948	0.6338073
1276793266012	-5.8976107	8.158588	1.7978859	0.41962814	0.0	16.4375	-38.625	-24.5	0.502815	0.17672892	0.62591153
1276793266052	-6.4015636	9.888372	1.334794	2.0483742	0.0	17.875	-39.5625	-20.3125	0.4002684	0.11283237	0.5745333
1276793266092	-7.082581	8.853226	0.6946377	1.5522709	0.0	17.6875	-41.3125	-14.625	0.7873594	0.061191674	0.67474097
1276793266132	-4.440233	7.246025	-0.19068487	-1.3062439	0.0	16.1875	-43.8125	-8.75	0.74903435	-0.022434322	0.549765
1276793266172	-3.568531	6.510526	-1.7570249	-2.1772008	0.0	12.6875	-46.3125	-2.8125	0.6898759	-0.23238094	0.5013965
1276793266212	-2.4516625	6.4015636	-2.8330324	-2.3893228	0.0	9.0	-48.0	1.375	0.4740193	-0.39190304	0.36574727
1276793266252	-1.879608	6.2108784	1.6480621	-3.1115742	0.0	6.25	-49.25	2.5625	2.6235344	0.24871668	0.29386938
1276793266292	-6.3607025	8.921328	-4.399372	2.0002594	0.0	3.5625	-49.75	1.625	1.0659753	-0.3818199	0.61938244
1276793266332	-3.1054392	9.466142	-3.445948	0.73498917	0.0	2.5625	-49.75	0.875	0.7206174	-0.33301005	0.31699485
1276793266372	-1.8387469	7.9270425	-1.920469	-1.4455976	0.0	2.3125	-50.0	0.125	0.67998075	-0.23176147	0.22792794
1276793266412	-3.173541	7.5865335	-1.6480621	-1.4195786	0.0	2.8125	-49.5	0.625	1.0917692	-0.19778734	0.39619258
1276793266460	-4.1814466	7.3141265	-1.9477097	-1.1594248	0.0	2.5625	-49.0	2.3125	1.2388966	-0.22719038	0.5193466
1276793266493	-3.9090397	12.14935	-0.9942854	2.994752	0.0	2.5625	-48.75	2.8125	1.50195	-0.07774835	0.31128857
1276793266532	-3.759216	10.337844	-0.5720546	1.2083387	0.0	2.3125	-48.5	2.3125	1.5639343	-0.05195757	0.348771
1276793266562	-2.2609777	10.61025	-1.0760075	1.0950575	0.0	1.3125	-48.75	1.875	1.2583702	-0.098861784	0.2099534
1276793266602	-2.5606253	9.234595	-1.56634	-0.096450806	0.0	1.8125	-49.5	1.875	1.0945373	-0.16201662	0.27049038
1276793266643	-3.1463003	8.921328	-2.070293	-0.12287998	0.0	1.5625	-50.0	2.3125	1.0885899	-0.21545301	0.33905303
1276793266682	-3.5276701	9.343558	-1.7978859	0.34120274	0.0	1.5625	-50.5	3.5625	1.27658	-0.17810929	0.3610053
1276793266722	-3.2961242	9.343558	-2.0294318	0.30695915	0.0	2.0625	-50.5	4.0625	1.2035866	-0.20203511	0.33914012
1276793266762	-2.9556155	9.656827	-1.4165162	0.39121723	0.0	1.5625	-50.5	3.8125	1.3490355	-0.13935378	0.29701155
1276793266802	-2.3426998	9.915613	-0.5720546	0.39799976	0.0	1.8125	-50.25	3.5625	1.6515262	-0.056087635	0.23200922
1276793266842	-2.9147544	9.997335	-0.3405087	0.61248875	0.0	1.5625	-50.0	2.8125	1.6687589	-0.0326869	0.28368947
1276793266882	-3.1463003	9.575105	-1.3075534	0.3565941	0.0	1.3125	-50.25	2.3125	1.3069191	-0.1290127	0.31747708
1276793266922	-3.2961242	9.084772	-3.336985	0.41748714	0.0	1.3125	-50.0	1.625	0.8480851	-0.33247453	0.34804854
1276793266962	-2.8330324	8.499097	-1.525479	-0.71886635	0.0	0.8125	-50.0	1.625	1.1682919	-0.16865885	0.32175055
1276793267002	-3.0645783	9.234595	0.6946377	-0.05206585	0.0	0.3125	-50.5	1.875	1.8975719	0.07127174	0.32042256
1276793267042	-2.7513103	10.528529	1.7570249	1.216361	0.0	-0.4375	-50.25	2.0625	2.2104816	0.16007888	0.25560364
1276793267082	-2.4516625	9.343558	0.7218784	-0.11986351	0.0	-0.9375	-50.75	2.5625	1.9931434	0.074591115	0.25660604
1276793267122	-2.3426998	9.997335	-0.27240697	0.46511555	0.0	-1.4375	-50.75	2.3125	1.6484615	-0.026523083	0.23017924
1276793267162	-1.607201	9.534244	-0.84446156	-0.10108471	0.0	-1.4375	-50.0	2.5625	1.3961787	-0.08711813	0.16700138
1276793267202	-1.4982382	8.853226	-0.7218784	-0.7985735	0.0	-1.1875	-49.75	3.5625	1.532387	-0.080222815	0.16764243
1276793267242	-1.7570249	8.771504	0.88532263	-0.8171997	0.0	-0.4375	-49.25	4.5625	2.3142195	0.098644525	0.19769415
1276793267282	-0.7218784	11.223166	0.5720546	1.4542475	0.0	0.3125	-49.0	6.25	2.8276653	0.050821964	0.0642319
1276793267322	1.2666923	10.147159	-2.1383946	0.6404581	0.0	1.0625	-49.75	7.25	-1.1790421	-0.20614465	-0.12418979
1276793267362	-4.0180025	10.337844	3.718355	1.8912783	0.0	1.8125	-50.0	7.75	2.5082898	0.3234762	0.37070054
1276793267402	-2.3426998	10.56939	1.334794	1.1012335	0.0	2.5625	-50.0	7.75	2.5969954	0.12267714	0.21812308
1276793267442	-1.3756552	8.894087	-0.27240697	-0.80268383	0.0	4.25	-50.25	6.0625	2.487241	-0.030258726	0.15345477
1276793267482	-1.2666923	7.4639506	2.8738933	-1.7088518	0.0	6.5	-49.25	4.8125	3.0589545	0.36280507	0.16810636
1276793267522	0.61291564	6.3198414	5.8567495	-1.1685038	0.0	8.5	-49.0	2.0625	-2.7717862	0.7450519	-0.096680395
1276793267562	-1.6480621	7.1234417	2.4108016	-2.1078515	0.0	9.5	-49.25	-0.375	3.021852	0.3184975	0.22735736
1276793267602	-2.3018389	9.575105	3.718355	0.71985245	0.0	8.0	-49.25	-1.875	2.9098694	0.3610294	0.23592156
1276793267642	0.7627395	10.460427	2.070293	0.8839264	0.0	5.0	-50.0	-1.875	-2.3027513	0.1948872	-0.07278785
1276793267682	2.4108016	12.598822	-0.5720546	3.0335016	0.0	1.0625	-50.5	0.875	-1.4455134	-0.04456677	-0.18906589
1276793267722	0.53119355	11.495573	-0.9125633	1.7373152	0.0	-3.1875	-50.0	4.3125	1.940011	-0.07913368	-0.046175685
1276793267762	-0.0	9.534244	-1.7978859	-0.104372025	0.0	-6.125	-50.0	8.25	1.3839154	-0.18638277	0.0
1276793267802	0.3405087	9.765789	-1.9477097	0.15729237	0.0	-8.125	-49.0	11.6875	1.849387	-0.1967426	-0.034853384
1276793267842	1.2666923	9.507003	-1.9477097	-0.019864082	0.0	-10.375	-47.5	15.875	2.545691	-0.20035192	-0.13245769
1276793267882	2.070293	8.771504	-2.7513103	-0.38353443	0.0	-13.3125	-45.3125	19.8125	2.684512	-0.29629073	-0.23178294
1276793267922	3.445948	8.158588	-2.7513103	-0.53266335	0.0	-15.25	-42.75	23.5	-2.8618333	-0.3012034	-0.39964142
1276793267962	3.990762	8.049625	-3.568531	-0.13933086	0.0	-18.4375	-39.5	27.0	-3.028142	-0.37807643	-0.4602578
1276793268002	3.5276701	8.281172	-4.2086873	0.12991428	0.0	-20.9375	-37.0625	27.6875	2.5572944	-0.43736678	-0.4027062
1276793268042	2.3426998	7.273266	-4.5219555	-0.9276457	0.0	-20.9375	-35.8125	28.1875	1.9559726	-0.53435534	-0.31160432
1276793268082	1.0351465	7.8861814	-5.8976107	0.095127106	0.0	-19.625	-37.125	27.625	1.4852136	-0.6380265	-0.13051465
1276793268122	0.6946377	10.841797	-3.3642259	1.5663481	0.0	-17.1875	-39.5625	25.9375	2.2887654	-0.30030146	-0.0639829
1276793268162	0.50395286	11.114203	-1.1168685	1.3748922	0.0	-14.1875	-42.5625	23.1875	2.5633173	-0.10005185	-0.0453121
1276793268202	0.313268	11.141444	-0.8036005	1.3681288	0.0	-11.9375	-45.5625	20.25	2.5791392	-0.071974106	-0.028109955
1276793268242	-0.0	10.378705	-0.61291564	0.5901375	0.0	-10.25	-47.75	17.5625	2.5332367	-0.058986604	0.0
1276793268282	0.23154591	9.997335	-0.29964766	0.197855	0.0	-9.75	-48.75	15.3125	2.5845983	-0.029955752	-0.023156622
1276793268322	0.7218784	9.697687	-0.8036005	-0.04898548	0.0	-9.75	-49.25	14.8125	2.6240752	-0.082449205	-0.07430117
1276793268362	0.7627395	9.847511	-0.9125633	0.1124239	0.0	-9.25	-49.5	14.375	2.6339796	-0.09213114	-0.07730071
1276793268402	0.19068487	10.079058	-1.1849703	0.3436165	0.0	-8.5	-49.5	14.375	2.4133584	-0.11700959	-0.018916663
1276793268442	-1.2666923	10.651112	-1.8387469	1.0759811	0.0	-8.0	-49.75	14.8125	2.005234	-0.16977602	0.11836987
1276793268482	-0.38136974	9.234595	-2.2201166	-0.3012781	0.0	-6.75	-49.75	15.0625	1.909701	-0.23574188	0.041274484
1276793268522	0.38136974	9.084772	-1.334794	-0.6164274	0.0	-6.5	-49.75	16.0625	2.6695433	-0.14575621	-0.04195438
1276793268562	0.61291564	10.079058	-1.920469	0.4720297	0.0	-6.5	-48.75	17.0625	2.7067132	-0.18794456	-0.060736015
1276793268602	-0.08172209	12.108489	-2.4108016	2.539773	0.0	-5.5	-48.5	18.0625	2.5267477	-0.19652577	0.006749054
1276793268642	-1.2258313	13.593107	-2.9556155	4.157979	0.0	-3.75	-48.25	18.0625	2.3232586	-0.21326302	0.08993708
1276793268682	-0.84446156	12.830367	-2.2201166	3.2417355	0.0	-0.3125	-48.5	16.5625	2.7335916	-0.17097674	0.065722615
1276793268722	-4.2495484	12.217452	-4.2086873	3.7962112	0.0	4.625	-49.75	13.125	1.3628122	-0.31455907	0.33473682
1276793268762	-6.4015636	11.563675	-2.8738933	3.7195415	0.0	10.375	-49.25	8.6875	1.4540226	-0.21410072	0.5055972
1276793268802	-3.6774938	8.390134	1.4982382	-0.52424526	0.0	18.0	-47.5	4.75	2.9436424	0.16211542	0.41309154
1276793268842	-2.9556155	6.851035	1.9885708	-2.0848136	0.0	26.4375	-42.3125	-0.6875	-2.58357	0.26046062	0.4072887
1276793268882	-0.27240697	3.636633	-0.040861044	-6.1596003	0.0	33.625	-32.625	-9.3125	-1.268273	-0.0112040965	0.07476674
1276793268922	3.9499009	-5.366417	1.9885708	-2.8529058	0.0	36.8125	-20.875	-20.0	0.5193621	0.29001984	-2.5070856
1276793268962	6.5922484	0.313268	8.539958	0.9862528	0.0	35.0625	-8.25	-30.6875	-0.21134266	0.9128616	-1.5233114
1276793269002	4.3312707	1.2666923	13.988097	4.8913527	0.0	30.375	0.6875	-40.5	-0.1924706	1.2587278	-1.2862779
1276793269042	1.56634	1.4573772	12.680544	3.053115	0.0	24.1875	5.375	-45.1875	-0.41338375	1.4036492	-0.8214186
1276793269082	0.10896278	0.38136974	10.732834	0.9335098	0.0	17.4375	7.875	-47.9375	-0.80206394	1.5338588	-0.27829966
1276793269122	1.879608	-1.6480621	10.119919	0.61744595	0.0	10.25	9.125	-50.1875	0.7832527	1.3286262	-2.2906516
1276793269162	3.3778462	-1.8387469	7.3549876	-1.5068502	0.0	3.0625	11.3125	-50.4375	0.4981027	1.0890009	-2.0692952
1276793269202	4.2086873	-2.4108016	7.3958488	-0.9622402	0.0	-1.4375	13.5625	-50.9375	0.47959295	0.99034876	-2.0909874
1276793269242	3.486809	-2.1792557	8.853226	-0.045165062	0.0	-1.4375	13.5625	-50.9375	0.47959295	0.99034876	-2.0909874
1276793269282	2.0294318	-0.19068487	11.264028	1.6403265	0.0	0.4375	12.375	-51.3125	0.9724706	1.3917707	-1.664481
1276793269322	1.7570249	-0.42223078	9.956474	0.31247997	0.0	1.9375	10.1875	-52.0	0.8666951	1.391256	-1.8066344
1276793269362	2.3018389	-0.29964766	11.032481	1.4673862	0.0	1.9375	7.6875	-53.0	0.587554	1.3634187	-1.7002459
1276793269402	2.7240696	0.6537767	10.079058	0.65448666	0.0	1.1875	6.4375	-53.5	0.34047747	1.2996941	-1.3352513
1276793269442	2.9147544	0.9942854	10.651112	1.280756	0.0	1.4375	5.4375	-53.25	0.25743568	1.2893313	-1.2420529
1276793269482	3.173541	0.27240697	9.80665	0.5043125	0.0	2.6875	5.4375	-53.0	0.26179203	1.2567444	-1.4851693
1276793269532	2.3018389	-0.38136974	7.0553403	-2.3755174	0.0	4.625	6.4375	-52.25	0.34560284	1.2514155	-1.7349854
1276793269572	1.6889231	-0.84446156	8.008764	-1.5782919	0.0	6.875	6.1875	-51.375	0.5186888	1.3392494	-2.0344439
1276793269612	0.42223078	0.040861044	9.534244	-0.26297474	0.0	8.625	5.9375	-51.125	0.41847637	1.5263336	-1.4743226
1276793269652	0.9942854	0.53119355	9.00305	-0.7333002	0.0	10.125	5.1875	-50.625	-0.011127171	1.4462333	-1.0801283
1276793269692	0.46309182	1.4573772	8.962189	-0.71493816	0.0	10.625	3.5	-50.625	-0.5444003	1.4017975	-0.30766696
1276793269732	-1.9885708	2.152015	7.7363577	-1.5339956	0.0	10.625	2.75	-50.625	-0.6367371	1.2087455	0.745945
1276793269772	-1.2258313	2.4925237	10.310603	0.87154675	0.0	10.8125	2.25	-50.625	-0.7941116	1.3076459	0.45706874
1276793269812	0.9942854	2.9556155	10.841797	1.4746981	0.0	11.5625	1.5	-50.875	-0.5047051	1.2907308	-0.324513
1276793269852	0.46309182	2.7649305	9.956474	0.5369797	0.0	12.8125	0.75	-50.625	-0.64968765	1.2963326	-0.16594741
1276793269892	5.134871	1.1849703	10.038197	1.5307407	0.0	14.5625	0.75	-50.625	-0.070067875	1.0873672	-1.3439975
1276793269932	-1.525479	2.4925237	7.8180795	-1.4602661	0.0	15.3125	0.5	-50.375	-0.9009999	1.2130905	0.5492122
1276793269972	0.27240697	1.9477097	9.084772	-0.5114441	0.0	15.3125	0.25	-49.875	-0.8660457	1.3576066	-0.13895878
1276793270012	1.2666923	0.9942854	8.894087	-0.7679615	0.0	14.8125	0.5	-49.875	-0.4008202	1.3916824	-0.9053021
1276793270052	-0.040861044	1.3756552	9.112013	-0.5912895	0.0	13.3125	-0.75	-50.125	-1.1246653	1.4208913	0.02969424
1276793270092	0.88532263	1.3756552	9.765789	0.09521103	0.0	12.0625	-1.5	-50.375	-0.6811028	1.4048223	-0.5718377
1276793270132	0.88532263	0.50395286	9.425281	-0.32647705	0.0	11.3125	-1.75	-50.375	-0.4610614	1.4631318	-1.0533086
1276793270172	1.1168685	-0.61291564	8.962189	-0.754364	0.0	11.3125	-2.5	-49.625	0.17873505	1.4295907	-2.0727026
1276793270212	0.14982383	0.7218784	6.4424243	-3.3221774	0.0	12.8125	-3.6875	-49.375	-1.2367795	1.4568536	-0.20464182
1276793270255	-1.1849703	1.2258313	7.6954966	-1.924551	0.0	16.0625	-6.6875	-47.6875	-2.2238052	1.3527676	0.7684507
1276793270292	-1.4165162	4.9850473	7.43671	-0.7423315	0.0	20.25	-12.125	-44.6875	-0.954939	0.96217644	0.27685562
1276793270332	-1.7570249	4.2904096	6.782933	-1.5906334	0.0	24.5	-18.8125	-40.0	-1.5364697	0.97121936	0.3886895
1276793270372	-4.2495484	4.7943625	4.6036777	-1.9175167	0.0	28.4375	-25.5	-32.375	-0.8110845	0.6230893	0.7252299
1276793270412	-2.5606253	4.7943625	4.0180025	-3.04743	0.0	30.6875	-30.25	-26.5	-1.8114787	0.63657856	0.4905469
1276793270452	-2.7921712	4.2495484	3.8273177	-3.4424343	0.0	31.1875	-32.6875	-23.0	-2.3705575	0.64522827	0.58131623
1276793270492	-4.1814466	4.2086873	3.5957718	-2.869279	0.0	31.1875	-33.1875	-23.25	2.812893	0.5448842	0.7821514
1276793270532	-5.012288	4.4810944	5.09401	-1.3714752	0.0	31.1875	-30.75	-25.5	2.8041286	0.64838624	0.841294
1276793270572	-4.1814466	4.140586	7.7363577	-0.08655834	0.0	33.125	-26.25	-27.4375	-2.8716443	0.9205159	0.79030806
1276793270612	-6.5513873	4.6036777	10.119919	3.0978947	0.0	35.625	-20.5625	-29.1875	-2.8863268	0.9014276	0.95825875
1276793270652	-6.8237944	3.718355	8.812365	1.9427366	0.0	38.125	-12.875	-28.9375	-2.5616972	0.8481039	1.0718693
1276793270692	-10.228881	3.1463003	10.528529	5.205983	0.0	41.1875	-3.6875	-26.3125	-2.4126058	0.7772353	1.272391
1276793270732	-10.923519	1.920469	8.921328	4.427167	0.0	41.1875	4.4375	-23.0625	-2.115791	0.6774008	1.3967644
1276793270772	-12.598822	4.0588636	8.730643	6.049856	0.0	40.4375	13.125	-18.875	-1.6994447	0.58308667	1.2591333
1276793270812	-17.502148	3.405087	-1.56634	8.092321	0.0	39.6875	20.0625	-12.75	-1.0463955	-0.087622136	1.3786442
1276793270852	-12.830367	0.46309182	0.3405087	3.0365858	0.0	38.5	24.5625	-7.8125	-1.3139013	0.026515793	1.5347185
1276793270892	-9.915613	0.27240697	0.27240697	0.116443634	0.0	38.5	26.5	-5.125	-1.4235237	0.027455268	1.5433307
1276793270932	-8.117727	0.50395286	2.8330324	-1.1940117	0.0	38.75	26.75	-1.9375	-1.9124266	0.3351798	1.5087954
1276793270972	-5.706926	-2.3699405	2.070293	-3.2896156	0.0	39.0	26.5	-0.6875	-2.5452123	0.32327548	1.9644006
1276793271012	-4.399372	-2.9556155	0.23154591	-4.5015817	0.0	38.75	26.5	-0.1875	-2.9364135	0.043660037	2.1623628
1276793271052	-7.3549876	-2.8738933	3.8273177	-1.0314884	0.0	38.5	26.75	0.5625	-2.6505837	0.45131975	1.9432952
1276793271092	-6.742072	-3.0645783	2.4108016	-2.0182524	0.0	39.1875	26.75	0.0625	-2.6310818	0.31470668	1.9974238
1276793271132	-7.3141265	-1.9477097	4.5219555	-0.9897289	0.0	40.1875	25.5	-1.6875	-2.5617461	0.5385274	1.831051
1276793271172	-10.419566	-2.5333846	1.879608	1.0799618	0.0	41.6875	23.5625	-3.125	-1.9285108	0.17352265	1.8093055
1276793271212	-7.8589406	-1.6889231	3.1463003	-1.1744652	0.0	42.9375	20.8125	-4.625	-2.4088883	0.3730795	1.7824814
1276793271252	-7.014479	0.84446156	-0.0	-2.7415223	0.0	44.1875	17.625	-7.0625	-1.2701648	-0.0	1.4509846
1276793271292	-8.240311	4.2086873	8.349273	2.6563396	0.0	45.1875	13.875	-10.3125	-2.0003421	0.7341082	1.0985907
1276793271332	-12.789507	1.4573772	5.706926	4.2739906	0.0	45.6875	10.6875	-13.5	-1.9096879	0.4173102	1.4573348
1276793271372	-8.158588	4.2904096	8.62168	2.8149014	0.0	46.1875	6.9375	-16.6875	-2.0260863	0.7519879	1.0866625
1276793271412	-8.880466	4.440233	10.923519	4.9548416	0.0	46.25	2.875	-18.4375	-2.2092662	0.8330719	1.1071488
1276793271452	-9.152874	1.4165162	8.499097	2.7638016	0.0	45.5	-2.1875	-18.3125	-2.868625	0.74247974	1.4172525
1276793271492	-5.202973	0.19068487	7.0553403	-1.0382347	0.0	44.25	-8.625	-19.0	2.8639224	0.93505406	1.5341635
1276793271532	-2.5333846	-0.040861044	4.7535014	-4.420048	0.0	42.75	-14.3125	-19.0	2.6582644	1.0810825	1.586924
1276793271582	-3.1054392	0.38136974	5.012288	-3.897993	0.0	42.25	-18.5	-17.3125	2.7050607	1.0127584	1.4486011
1276793271622	-2.9147544	2.7240696	6.66035	-2.042849	0.0	41.5	-21.5	-15.5625	-2.7502763	1.0311146	0.8192017
1276793271663	-2.5606253	4.630918	5.597963	-2.1034436	0.0	40.25	-24.9375	-14.375	-2.286586	0.81351393	0.5050985
1276793271702	-4.140586	6.0201936	5.325556	-0.76515007	0.0	38.3125	-27.9375	-15.3125	-2.2969148	0.6298362	0.6024794
1276793271742	-4.5900574	6.2108784	5.47538	-0.33968544	0.0	34.8125	-29.9375	-17.5625	-2.4186318	0.6167255	0.6364466
1276793271782	-2.5333846	8.076866	4.3312707	-0.29803753	0.0	31.375	-31.9375	-20.5	-1.5663095	0.4729453	0.30394074
1276793271822	-5.284695	4.372132	5.5162406	-1.0048065	0.0	28.125	-33.625	-21.0	2.498551	0.6773294	0.8796177
1276793271862	-1.7570249	3.1463003	6.2108784	-2.626027	0.0	26.125	-35.125	-18.5625	-2.9428992	1.0450503	0.5093012
1276793271902	-1.1441092	1.334794	4.862464	-4.6361356	0.0	25.875	-36.875	-15.0625	3.0246427	1.2238683	0.70862633
1276793271942	-3.3642259	1.8387469	7.5865335	-1.306385	0.0	25.625	-37.875	-11.875	2.5462677	1.1028699	1.0705991
1276793271982	-6.932757	6.4424243	15.322891	8.203318	0.0	26.375	-38.625	-10.375	2.840997	1.017507	0.8220417
1276793272022	-8.771504	10.079058	14.206022	9.6956005	0.0	28.375	-37.875	-11.625	3.0113618	0.81602734	0.7161449
1276793272062	-8.19945	15.6634	14.7916975	13.244757	0.0	31.125	-33.625	-15.3125	-2.517409	0.6966907	0.48225337
1276793272102	-9.425281	17.352324	6.932757	11.121851	0.0	36.3125	-25.9375	-18.3125	-1.3694066	0.33763775	0.49758515
1276793272142	-13.824653	5.938472	7.246025	6.8933887	0.0	40.75	-15.8125	-22.5	-0.8675374	0.44880888	1.1650724
1276793272182	-0.61291564	2.3426998	1.0760075	-7.156801	0.0	41.75	-2.6875	-24.9375	-1.1569284	0.41814253	0.25589228
1276793272222	6.0201936	-3.2961242	-0.10896278	-2.9423194	0.0	39.5	10.6875	-25.6875	0.8437375	-0.015874432	-2.0717268
1276793272262	-1.2666923	-6.469665	3.8681788	-2.1630983	0.0	34.5625	21.625	-26.4375	1.2863678	0.5306231	2.9482489
1276793272302	-0.23154591	-4.7535014	2.8330324	-4.268107	0.0	29.625	30.3125	-25.9375	1.3583877	0.53694373	3.0929205
1276793272342	1.879608	-5.09401	3.8273177	-3.1635919	0.0	25.875	34.5	-26.1875	1.3555845	0.6139957	-2.7881067
1276793272382	-0.8036005	-3.7864566	6.851035	-1.9377422	0.0	25.125	34.5	-26.9375	2.4415307	1.0565145	2.9324653
1276793272422	-5.366417	-4.5219555	13.824653	5.6971407	0.0	26.625	32.25	-27.625	-2.8406427	1.1010762	2.2710018
1276793272462	-7.246025	-3.405087	12.408136	4.96025	0.0	28.375	30.3125	-27.625	-2.4191496	0.9977752	2.0100956
1276793272502	-3.7864566	-4.099725	10.079058	1.714304	0.0	31.375	28.0625	-26.1875	2.97591	1.0651174	2.3958974
1276793272542	-3.3642259	-4.2086873	5.2165933	-2.307056	0.0	33.5625	26.5625	-24.4375	2.4423516	0.7692316	2.4672465
1276793272582	-5.09401	-3.1463003	7.164303	-0.46987438	0.0	34.8125	25.8125	-23.1875	-2.943441	0.87465274	2.1240907
1276793272622	-5.243834	-2.5333846	9.80665	1.5988846	0.0	36.3125	24.875	-23.6875	-2.8865585	1.0349073	2.0208464
1276793272662	-2.7513103	-2.2201166	6.932757	-2.0245075	0.0	37.0625	23.875	-25.1875	2.973181	1.0992227	2.249749
1276793272702	-4.903325	-2.4516625	7.3141265	-0.6660986	0.0	37.3125	22.125	-27.125	-2.9741364	0.9276026	2.0344439
1276793272742	-3.5276701	-1.879608	7.43671	-1.363781	0.0	37.0625	21.125	-28.625	-3.0910037	1.0776068	2.0603528
1276793272782	-2.6832085	-2.7513103	6.1291566	-2.5722961	0.0	36.5625	20.125	-29.375	2.554678	1.0107477	2.3687253
1276793272822	-4.399372	-2.5606253	9.302697	0.79766273	0.0	36.3125	18.875	-30.375	3.0500443	1.0701156	2.0979078
1276793272862	-3.445948	-1.879608	8.308413	-0.61767864	0.0	35.8125	18.375	-30.625	3.0979493	1.1294378	2.070143
1276793272902	-3.405087	-0.7218784	10.651112	1.3987904	0.0	36.0625	18.125	-31.125	-2.7840137	1.2549388	1.7797033
1276793272932	-2.7513103	-3.8681788	7.1234417	-1.2465134	0.0	36.0625	17.4375	-31.3125	2.1220903	0.98299956	2.5233445
1276793272972	-2.7513103	-2.5333846	7.3958488	-1.5189285	0.0	35.8125	17.1875	-31.125	2.6122687	1.1026057	2.3149807
1276793273012	-4.2495484	-2.5333846	9.043911	0.50203705	0.0	36.0625	17.1875	-31.3125	2.9573274	1.0702274	2.108383
1276793273052	-2.2201166	-1.0351465	9.80665	0.30130863	0.0	33.5625	16.9375	-33.0625	-3.1005516	1.3260177	2.0070877
1276793273092	0.6946377	-1.3756552	6.4424243	-3.182469	0.0	30.375	17.4375	-35.3125	1.3900146	1.3359994	-2.6739926
1276793273132	-0.8036005	-3.214402	9.847511	0.5833273	0.0	26.125	17.875	-38.25	2.0244448	1.2462312	2.896614
1276793273172	-0.9942854	-4.1814466	9.425281	0.55235577	0.0	21.1875	18.625	-40.6875	1.8151127	1.1429547	2.908143
1276793273212	0.6537767	-2.1111538	10.147159	0.57839775	0.0	18.6875	18.625	-42.4375	1.696462	1.356344	-2.8412814
1276793273252	0.6537767	-1.9885708	11.795221	2.1728773	0.0	16.75	18.125	-43.6875	1.7616786	1.3951564	-2.8239572
1276793273292	1.1168685	-1.920469	10.460427	0.8870926	0.0	15.5	16.9375	-44.625	1.4540076	1.3615227	-2.6148422
1276793273332	2.5333846	0.84446156	11.727119	2.2206717	0.0	15.0	15.4375	-45.625	0.3315277	1.3469009	-1.2490457
1276793273372	1.9477097	-0.27240697	7.43671	-2.1142883	0.0	13.75	14.1875	-45.875	0.6066192	1.312261	-1.7097551
1276793273412	1.1441092	0.040861044	6.782933	-2.927781	0.0	13.25	12.9375	-45.875	0.53231657	1.4035898	-1.5350972
1276793273452	0.92618364	1.334794	6.891896	-2.725851	0.0	13.75	12.4375	-45.875	-0.14858621	1.3392893	-0.6066051
1276793273492	1.4982382	0.6537767	8.158588	-1.4859104	0.0	15.5	11.6875	-45.125	0.16336875	1.3730528	-1.15934
1276793273532	1.0351465	-0.14982383	8.008764	-1.7298756	0.0	17.9375	11.4375	-44.375	0.5688234	1.440932	-1.714535
1276793273572	0.040861044	1.879608	10.651112	1.0091152	0.0	20.6875	10.9375	-43.6875	-0.82714915	1.3960838	-0.021735707
1276793273612	-1.2258313	-0.38136974	11.495573	1.7603846	0.0	23.1875	10.25	-42.6875	-2.9996886	1.4595813	1.8724154
1276793273652	-0.9942854	1.1849703	8.580819	-1.0875206	0.0	23.9375	10.25	-42.6875	-1.5644503	1.3924427	0.6981205
1276793273692	-1.4165162	0.7627395	9.956474	0.2789669	0.0	25.125	10.5	-42.4375	-2.0183008	1.4105961	1.076855
1276793273732	-2.5606253	-0.95342433	9.507003	0.085211754	0.0	25.375	11.1875	-42.1875	-3.0330148	1.2909336	1.9272333
1276793273772	-2.4516625	-1.6480621	6.932757	-2.2707443	0.0	25.125	12.4375	-41.9375	2.7569106	1.1679869	2.1626353
1276793273812	-0.9125633	-1.1441092	9.193735	-0.49716473	0.0	25.625	13.1875	-41.1875	2.596741	1.4129392	2.468305
1276793273852	-2.1383946	-0.84446156	5.47538	-3.8681626	0.0	25.375	14.6875	-40.4375	-2.768199	1.1732557	1.9469023
1276793273892	-0.10896278	0.7218784	7.082581	-2.6865425	0.0	26.375	16.4375	-39.5	-1.051716	1.468082	0.14981246
1276793273932	-1.607201	-0.95342433	8.580819	-1.0247049	0.0	29.125	17.4375	-36.75	-3.1361654	1.3563659	2.106216
1276793273972	-6.6331096	-2.4516625	11.114203	3.3665924	0.0	33.3125	18.375	-32.3125	-2.7652895	1.0041301	1.924833
1276793274012	-4.099725	-0.29964766	12.489859	3.34227	0.0	37.8125	18.375	-26.6875	-2.645267	1.2528429	1.6437563
1276793274042	-9.00305	-3.636633	0.50395286	-0.08379173	0.0	42.0	17.875	-20.0	-0.047873	0.051854994	1.954689
1276793274082	-7.504812	-0.5720546	1.6480621	-2.1017451	0.0	44.75	18.375	-15.0625	-1.2552484	0.21556337	1.6468743
1276793274122	-9.152874	-3.9090397	4.9850473	1.3246746	0.0	45.0	18.625	-12.625	3.0897403	0.46434754	1.9744302
1276793274162	-4.671779	-1.9885708	7.8180795	-0.48451042	0.0	45.0	19.375	-11.125	-3.1358013	0.994813	1.9732225
1276793274202	-9.615966	-1.879608	4.440233	0.9504585	0.0	45.25	19.625	-8.9375	-2.408313	0.42549533	1.7638298
1276793274242	-8.008764	-1.334794	4.6036777	-0.47306442	0.0	45.25	19.375	-6.0	-2.5754757	0.515808	1.735945
1276793274282	-8.240311	-0.84446156	3.214402	-0.92136955	0.0	46.4375	18.375	-2.25	-2.4166994	0.37016264	1.6729192
1276793274322	-10.378705	2.8330324	2.7649305	1.3013849	0.0	47.9375	16.1875	0.4375	-1.9383528	0.2515574	1.3043222
1276793274362	-9.534244	1.879608	1.607201	0.043112755	0.0	48.1875	14.9375	-0.0625	-1.8618127	0.16390441	1.3761495
1276793274402	-2.1111538	-7.4639506	8.539958	1.7301788	0.0	48.6875	13.9375	-1.0625	1.9868098	0.83341897	2.865946
1276793274442	-9.724928	-0.08172209	2.1111538	0.1451273	0.0	48.6875	12.1875	-1.0625	-2.2397733	0.21376261	1.5791994
1276793274482	-9.697687	1.7978859	1.4165162	0.15748787	0.0	48.4375	10.5	0.6875	-1.9294018	0.14264467	1.3874843
1276793274522	-13.947236	2.5333846	6.973618	5.9912853	0.0	48.6875	8.0	5.375	-2.5623677	0.45718718	1.3911147
1276793274562	-5.243834	2.5333846	-8.662541	0.63152313	0.0	48.1875	4.25	9.8125	-0.70727843	-0.97891146	1.1207463
1276793274602	-10.800936	4.7943625	3.5276701	2.5258503	0.0	48.4375	1.8125	12.0	-2.4145424	0.29009852	1.1530402
1276793274652	-9.80665	1.1849703	-7.5865335	2.6484709	0.0	48.6875	0.8125	11.75	-0.31992424	-0.6549374	1.450546
1276793274692	-8.349273	-0.8036005	2.4108016	-1.079217	0.0	48.9375	1.3125	8.8125	2.9887877	0.27987197	1.6667488
1276793274805	-8.730643	0.040861044	6.5922484	1.1333475	0.0	49.6875	2.5625	5.375	-3.0601025	0.64673287	1.5661162
1276793274852	-7.5865335	-2.070293	4.5219555	-0.73528385	0.0	50.1875	5.5	3.125	2.8622687	0.52185225	1.8372003
1276793275172	-9.724928	0.84446156	3.0645783	0.42462444	0.0	50.4375	6.75	2.875	-2.5798929	0.30420047	1.4841789
1276793275223	-7.6273947	0.08172209	-0.42223078	-2.1671405	0.0	50.4375	5.5	4.875	-1.9029356	-0.05529753	1.5600824
1276793275262	-11.917805	1.4982382	3.9499009	2.8377361	0.0	50.4375	4.5	7.0625	-2.6898239	0.31770134	1.4457381
1276793275292	-10.079058	-0.3405087	3.173541	0.76570606	0.0	50.4375	2.8125	8.8125	-3.0946147	0.30487454	1.6045673
1276793275322	-9.084772	0.38136974	-3.336985	-0.12088776	0.0	50.4375	2.0625	9.8125	-0.47501808	-0.35173252	1.528842
1276793275352	-9.956474	0.50395286	2.3018389	0.42486	0.0	50.4375	4.0	9.3125	-2.8305967	0.22691788	1.5202239
1276793275392	-9.615966	-0.3405087	2.6423476	0.17156315	0.0	49.9375	6.75	9.8125	-2.9260707	0.26800865	1.6061924
1276793275432	-9.534244	-0.10896278	0.14982383	-0.270607	0.0	48.1875	10.0	11.0	-2.4646418	0.015711967	1.5822244
1276793275472	-8.008764	-1.525479	-0.10896278	-1.6531687	0.0	45.75	14.9375	12.75	-2.6741312	-0.013364355	1.7590178
1276793275512	-7.8861814	-2.8738933	-1.2666923	-1.3180914	0.0	43.0	19.875	14.0	-2.615206	-0.14978291	1.9202605
1276793275553	-5.284695	-5.597963	4.0588636	-1.1038017	0.0	40.25	25.0625	14.0	2.7984934	0.48519784	2.3849726
1276793275592	-7.504812	-7.8861814	1.4573772	1.1768827	0.0	38.0625	29.0625	13.25	2.771139	0.13307993	2.380968
1276793275632	-7.43671	-7.43671	-0.46309182	0.72063637	0.0	36.3125	31.8125	12.0	2.8297043	-0.044003867	2.3561945
1276793275672	-6.3607025	-2.8330324	3.636633	-1.9510975	0.0	36.0625	33.0	10.5	-2.6757119	0.48130676	1.9898151
1276793275712	-10.501288	-1.1849703	6.6331096	2.6705027	0.0	36.3125	32.75	10.3125	-2.3801467	0.5605126	1.6831615
1276793275773	-5.5162406	-6.428804	-3.8273177	-0.5111246	0.0	36.8125	31.8125	12.0	0.6830393	-0.42436	2.4324431
1276793275812	-8.499097	-4.0588636	-4.2495484	0.5261946	0.0	37.3125	29.8125	14.5	-1.0706751	-0.4238426	2.0163348
1276793275852	-7.9679036	-5.134871	0.19068487	-0.32557678	0.0	37.0625	28.5625	16.9375	-2.9250314	0.020113517	2.1432562
1276793275892	-7.6273947	-5.6660647	0.46309182	-0.29371738	0.0	36.5625	27.8125	18.6875	-3.1165655	0.048699487	2.2097104
1276793275932	-7.3549876	-6.1291566	-1.3756552	-0.13427544	0.0	36.5625	27.5625	18.875	2.9602823	-0.14270908	2.2655346
1276793275973	-8.580819	-5.053149	-0.27240697	0.15522575	0.0	36.5625	28.0625	18.1875	-2.8206592	-0.027348356	2.103006
1276793276012	-7.3141265	-5.202973	-0.61291564	-0.8098154	0.0	36.0625	28.0625	18.1875	-3.0117612	-0.068178505	2.1891055
1276793276052	-6.2108784	-5.5162406	-1.2666923	-1.4037676	0.0	35.5625	28.8125	18.1875	2.956752	-0.15132181	2.2970302
1276793276092	-7.164303	-5.175732	-0.040861044	-0.9682617	0.0	34.8125	29.3125	17.6875	-2.9508712	-0.004623149	2.1964202
1276793276132	-8.19945	-5.175732	0.6537767	-0.0882864	0.0	34.8125	29.8125	18.1875	-2.838548	0.06732315	2.1338625
1276793276162	-7.4639506	-5.407278	-0.50395286	-0.5760927	0.0	35.0625	30.3125	18.4375	-2.8963103	-0.054623306	2.1977456
1276793276202	-7.5865335	-5.053149	-1.1168685	-0.62312126	0.0	35.5625	30.0625	18.875	-2.7569664	-0.12191829	2.1583846
1276793276242	-7.7772183	-4.099725	-2.070293	-0.77454185	0.0	35.5625	30.0625	19.375	-2.2709985	-0.23127092	2.0559237
1276793276283	-7.082581	-7.43671	-0.29964766	0.46746254	0.0	35.3125	30.0625	19.125	2.8757837	-0.029169446	2.38058
1276793276322	-6.851035	-6.742072	-0.53119355	-0.17989635	0.0	34.8125	30.5625	19.125	2.9836717	-0.05520693	2.3481786
1276793276370	-7.246025	-4.7943625	-1.2258313	-1.0320587	0.0	34.5625	30.8125	18.875	-2.647106	-0.14016084	2.1553206
1276793276402	-6.891896	-7.04172	-0.08172209	0.046812057	0.0	34.3125	31.3125	18.6875	2.9993992	-0.008293838	2.3669467
1276793276442	-6.782933	-5.938472	-0.19068487	-0.7894449	0.0	34.0625	31.8125	18.875	-3.0580451	-0.021148358	2.2899106
1276793276484	-7.3141265	-5.8976107	-0.38136974	-0.40326214	0.0	34.0625	31.5625	18.6875	-2.9539168	-0.04056776	2.249386
1276793276532	-7.273266	-5.5571017	-1.1849703	-0.5770283	0.0	33.8125	31.8125	18.6875	-2.7811542	-0.12874308	2.2232258
1276793276572	-6.510526	-6.0201936	-0.27240697	-0.93512917	0.0	33.8125	32.0625	19.125	-3.1085355	-0.030710608	2.317084
1276793276612	-7.9679036	-6.4015636	-1.607201	0.539876	0.0	33.5625	32.0625	18.4375	-2.7957778	-0.15596883	2.2476184
1276793276652	-6.469665	-5.8567495	2.070293	-0.83758163	0.0	32.5625	33.0	17.9375	-3.049052	0.23292637	2.3065116
1276793276692	-4.630918	-4.372132	-2.3018389	-3.0346932	0.0	31.625	34.0	17.6875	-1.8563515	-0.34681854	2.3274581
1276793276733	-6.469665	-5.134871	1.5390993	-1.4047279	0.0	30.375	35.25	16.9375	-2.806025	0.18422449	2.2416744
1276793276772	-7.3958488	-8.076866	-1.607201	1.2621088	0.0	28.875	36.5	17.4375	-2.8327708	-0.14571668	2.40018
1276793276802	-6.851035	-7.504812	-0.88532263	0.39348125	0.0	28.125	37.25	17.4375	-2.826835	-0.08690456	2.4017038
1276793276842	-6.3607025	-7.4639506	0.61291564	0.019069672	0.0	26.875	37.75	17.1875	-2.9430692	0.062419225	2.4358287
1276793276882	-6.510526	-5.597963	-0.27240697	-1.216054	0.0	26.375	37.75	17.1875	-2.5143194	-0.031715218	2.280971
1276793276913	-6.4015636	-4.4810944	-2.5606253	-1.5836926	0.0	26.625	37.75	16.9375	-1.7329764	-0.31666544	2.1815224
1276793276954	-10.147159	-9.493382	0.50395286	4.098137	0.0	27.375	37.25	17.6875	-2.7272124	0.036251057	2.3229196
1276793276992	-5.8567495	-7.1234417	-2.070293	-0.35513973	0.0	28.875	36.5	17.9375	-3.0222626	-0.22083415	2.453473
1276793277032	-6.8237944	-5.202973	1.9885708	-0.9981594	0.0	29.625	36.25	17.9375	-2.7685	0.22771914	2.2222338
1276793277072	-7.6546354	-7.082581	-1.4165162	0.7177458	0.0	29.875	36.0	17.4375	-2.6342845	-0.13500331	2.3173969
1276793277112	-6.782933	-4.1814466	-0.9125633	-1.786336	0.0	29.625	35.75	17.1875	-2.2521863	-0.11402845	2.1232352
1276793277152	-5.8567495	-4.630918	0.53119355	-2.3213925	0.0	29.375	36.25	16.9375	-2.6718867	0.07102501	2.2398393
1276793277192	-9.724928	-7.8180795	-1.2258313	2.7312622	0.0	28.875	36.75	17.1875	-2.4465969	-0.0979264	2.2479239
1276793277232	-5.053149	-6.851035	-0.19068487	-1.2915249	0.0	28.125	37.0	17.4375	3.1006346	-0.022395538	2.5060914
1276793277272	-6.851035	-8.076866	-1.2666923	0.8599777	0.0	27.375	37.75	17.1875	-2.8438294	-0.11903374	2.4381275
1276793277312	-6.1291566	-6.0882955	-0.27240697	-1.1632652	0.0	25.875	38.5	17.4375	-2.6253111	-0.03152146	2.35285
1276793277352	-5.597963	-6.5922484	-0.0	-1.1582441	0.0	24.1875	38.75	17.4375	-2.7774925	-0.0	2.4375787
1276793277392	-5.7886477	-7.7363577	-2.2609777	0.11664009	0.0	23.4375	39.1875	17.9375	-2.5568728	-0.2298645	2.4992192
1276793277432	-4.944186	-6.428804	-1.334794	-1.5873938	0.0	22.4375	39.9375	17.9375	-2.5760205	-0.16312084	2.4859993
1276793277472	-6.6331096	-6.932757	0.8036005	-0.17820072	0.0	22.1875	39.6875	17.6875	-2.6499722	0.08355825	2.3782792
1276793277514	-6.973618	-7.246025	-1.56634	0.37125015	0.0	22.4375	39.6875	17.6875	-2.32569	-0.15451023	2.3753493
1276793277552	-5.6660647	-6.3198414	-0.88532263	-1.2726898	0.0	22.4375	39.6875	17.1875	-2.4763749	-0.10392811	2.410686
1276793277592	-7.082581	-6.742072	-1.1168685	0.035396576	0.0	22.6875	39.4375	16.6875	-2.3035848	-0.11372426	2.331569
1276793277632	-5.938472	-6.891896	-0.6946377	-0.6827154	0.0	22.6875	39.6875	16.4375	-2.5498412	-0.0762073	2.4303682
1276793277672	-5.938472	-7.6954966	-0.61291564	-0.06694889	0.0	22.9375	40.1875	15.4375	-2.6696131	-0.06297123	2.4843593
1276793277712	-6.0201936	-5.47538	0.5720546	-1.6488457	0.0	22.6875	40.6875	14.9375	-2.4522142	0.070181206	2.3088367
1276793277752	-6.0474343	-7.8180795	-0.88532263	0.116939545	0.0	22.6875	40.9375	15.4375	-2.5784466	-0.08933272	2.4832084
1276793277792	-6.2789803	-6.891896	-0.27240697	-0.4793768	0.0	21.9375	40.9375	15.6875	-2.4727633	-0.029209577	2.4026966
1276793277836	-4.5628166	-6.1291566	-0.7627395	-2.127612	0.0	21.6875	41.1875	16.1875	-2.583842	-0.09949153	2.5016565
1276793277882	-6.0201936	-5.938472	-1.56634	-1.2065573	0.0	21.1875	40.9375	16.9375	-2.11696	-0.18315285	2.349361
1276793277922	-5.6660647	-5.6252036	-1.0760075	-1.7502861	0.0	20.4375	41.1875	17.1875	-2.2185202	-0.13396025	2.3525755
1276793277965	-6.510526	-9.384419	-0.8036005	1.6432428	0.0	20.4375	42.1875	16.9375	-2.6528978	-0.07024185	2.5350676
1276793278012	-5.706926	-9.425281	-0.46309182	1.221467	0.0	19.9375	42.1875	16.6875	-2.8266976	-0.042004272	2.597145
1276793278052	-5.202973	-6.742072	-0.7218784	-1.2598629	0.0	19.9375	42.9375	15.1875	-2.392374	-0.08456271	2.4843369
1276793278093	-6.2108784	-7.3141265	-0.23154591	-0.20846939	0.0	19.4375	43.1875	13.75	-2.337208	-0.024126278	2.4375854
1276793278132	-6.0474343	-9.234595	0.14982383	1.2328997	0.0	18.9375	43.1875	12.75	-2.6128218	0.013571969	2.5618033
1276793278179	-5.7477865	-8.471856	0.313268	0.4357872	0.0	19.1875	43.6875	12.0	-2.5693915	0.030590069	2.5454721
1276793278222	-6.3198414	-5.053149	0.27240697	-1.7104216	0.0	19.4375	43.1875	12.0	-2.1266007	0.033652507	2.2452745
1276793278265	-5.175732	-7.3141265	-0.08172209	-0.8461075	0.0	19.9375	43.1875	12.5	-2.5186956	-0.009120343	2.525761
1276793278302	-6.510526	-7.8589406	-1.2258313	0.47209358	0.0	20.4375	42.9375	13.0	-2.1371052	-0.11954338	2.4497592
1276793278332	-5.5162406	-4.0180025	-1.1441092	-2.8869505	0.0	20.1875	42.4375	13.5	-1.8524039	-0.16610365	2.2003262
1276793278362	-4.5628166	-4.862464	-0.50395286	-3.1195865	0.0	19.6875	42.6875	14.0	-2.1905634	-0.07543387	2.3879757
1276793278402	-5.706926	-8.267551	-0.42223078	0.2481842	0.0	19.6875	42.6875	13.75	-2.5427668	-0.042005166	2.53742
1276793278444	-6.5922484	-8.471856	-0.10896278	0.92843056	0.0	19.6875	42.6875	13.5	-2.4552794	-0.010150334	2.480327
1276793278482	-5.938472	-7.273266	-0.42223078	-0.4074955	0.0	19.6875	42.9375	13.25	-2.3249116	-0.044937328	2.4568837
1276793278512	-6.1291566	-6.701211	-0.6537767	-0.70169544	0.0	19.9375	42.6875	13.0	-2.1752906	-0.07186635	2.4007509
1276793278553	-6.0882955	-6.5922484	-0.27240697	-0.82893944	0.0	20.1875	42.1875	13.5	-2.2924645	-0.030347245	2.3959157
1276793278592	-5.938472	-7.4639506	-0.42223078	-0.2591753	0.0	20.4375	41.9375	13.75	-2.4295604	-0.04423877	2.469528
1276793278633	-5.6252036	-6.5513873	-0.19068487	-1.1695242	0.0	20.9375	41.6875	13.75	-2.4175522	-0.022079146	2.432111
1276793278672	-6.932757	-6.782933	-0.27240697	-0.10378933	0.0	21.4375	41.9375	13.5	-2.2557735	-0.0280786	2.3452713
1276793278712	-5.597963	-6.932757	-0.5720546	-0.87762165	0.0	21.4375	41.9375	12.75	-2.3614993	-0.06411074	2.462316
1276793278752	-5.706926	-7.5456724	0.14982383	-0.34469318	0.0	21.4375	42.1875	12.5	-2.5787754	0.015835	2.4940605
1276793278794	-5.938472	-7.014479	-0.040861044	-0.61589146	0.0	20.6875	42.4375	12.25	-2.3737147	-0.0044458983	2.4390748
1276793278832	-5.7477865	-6.782933	-0.19068487	-0.913867	0.0	19.6875	42.6875	12.75	-2.323304	-0.021444296	2.438616
1276793278873	-5.7886477	-8.158588	-0.42223078	0.20580578	0.0	18.9375	42.6875	12.5	-2.4218037	-0.04218306	2.5245087
1276793278914	-5.243834	-7.9270425	-0.040861044	-0.30204773	0.0	18.1875	42.9375	12.5	-2.5358684	-0.004299093	2.557167
1276793278952	-5.243834	-7.273266	0.040861044	-0.8400526	0.0	17.75	43.1875	12.75	-2.4440508	0.0045570447	2.5169287
1276793278992	-6.6331096	-8.499097	0.040861044	0.97455883	0.0	17.75	43.4375	12.25	-2.3438292	0.0037900335	2.4788873
1276793279022	-5.202973	-8.390134	-0.3405087	0.07167053	0.0	17.0	44.1875	12.5	-2.4596841	-0.03447713	2.586503
1276793279062	-3.9499009	-8.580819	0.040861044	-0.36028385	0.0	16.75	44.4375	12.25	-2.8776503	0.004325597	2.710192
1276793279103	-5.434519	-8.499097	0.19068487	0.28319645	0.0	16.5	44.1875	12.5	-2.504049	0.018899815	2.5726888
1276793279142	-5.284695	-7.273266	-1.1168685	-0.7470808	0.0	16.0	43.6875	12.75	-2.0815232	-0.123594955	2.513242
1276793279194	-5.9793324	-5.6660647	0.14982383	-1.56777	0.0	16.75	43.4375	13.0	-2.1733012	0.018185977	2.3293004
1276793279232	-5.407278	-7.014479	-0.7218784	-0.9205551	0.0	17.25	42.6875	13.25	-2.2298126	-0.08132647	2.4848657
1276793279272	-5.938472	-7.9270425	-0.46309182	0.108888626	0.0	17.5	42.9375	13.25	-2.330095	-0.04672064	2.4986415
1276793279303	-5.47538	-7.273266	0.10896278	-0.7021427	0.0	17.9375	43.1875	13.5	-2.4492579	0.01196829	2.4962962
1276793279343	-5.012288	-8.308413	-0.42223078	-0.09423447	0.0	17.9375	42.6875	13.75	-2.6237285	-0.04348701	2.5987659
1276793279382	-6.428804	-6.1700177	-1.6480621	-0.7449312	0.0	17.5	42.9375	13.5	-1.8580171	-0.18288866	2.335657
1276793279422	-4.9850473	-8.499097	0.6537767	0.06820488	0.0	17.0	42.9375	13.5	-2.737122	0.06625467	2.6111302
1276793279462	-5.202973	-7.9679036	-0.50395286	-0.2770977	0.0	16.75	43.1875	13.5	-2.4284625	-0.05290784	2.5631173
1276793279502	-5.366417	-7.164303	-0.61291564	-0.83439636	0.0	16.75	43.4375	13.5	-2.2598178	-0.06836558	2.4987001
1276793279532	-5.5162406	-6.891896	-0.7627395	-0.94612503	0.0	16.25	43.9375	14.0	-2.1715765	-0.086189546	2.4666107
1276793279572	-5.706926	-7.43671	-0.50395286	-0.41901875	0.0	16.5	43.6875	13.75	-2.2687836	-0.053708456	2.4870486
1276793279612	-5.8158884	-7.8589406	-0.61291564	-0.010570526	0.0	16.0	43.6875	13.5	-2.2538183	-0.06260834	2.5045
1276793279652	-4.5628166	-7.7772183	-0.19068487	-0.78773785	0.0	14.75	44.6875	13.25	-2.463303	-0.021144355	2.6110175
1276793279692	-4.372132	-8.662541	-0.7627395	-0.07335949	0.0	13.75	44.6875	12.5	-2.4153512	-0.078444414	2.6741786
1276793279737	-4.862464	-8.730643	-0.6946377	0.210845	0.0	13.0	45.1875	12.75	-2.302399	-0.06939815	2.633435
1276793279772	-5.47538	-5.938472	-1.9477097	-1.4976912	0.0	12.5	45.4375	12.75	-1.6895291	-0.23661242	2.396745
1276793279802	-5.243834	-7.164303	-0.8036005	-0.8920107	0.0	12.5	45.1875	12.25	-2.031859	-0.090266444	2.509751
1276793279842	-5.6660647	-7.6273947	-1.1441092	-0.2363615	0.0	13.0	45.4375	12.5	-1.974836	-0.11983464	2.5026786
1276793279872	-5.6660647	-6.891896	-0.61291564	-0.86359787	0.0	13.0	45.6875	12.0	-2.0131805	-0.06858916	2.4535
1276793279902	-4.7126403	-8.308413	-0.9125633	-0.2112627	0.0	13.25	45.9375	11.75	-2.1493418	-0.09524833	2.6256301
1276793279932	-4.7126403	-8.390134	-0.50395286	-0.17040157	0.0	13.5	45.9375	12.25	-2.3107338	-0.052321486	2.62982
1276793279969	-5.012288	-7.6546354	-0.14982383	-0.65575314	0.0	13.75	45.6875	11.75	-2.253575	-0.016373316	2.5618474
1276793280034	-4.7535014	-8.689782	0.08172209	0.09863949	0.0	14.0	45.6875	12.25	-2.4896994	0.008250442	2.6410387
1276793280079	-3.9090397	-8.471856	0.10896278	-0.47579765	0.0	14.0	45.4375	12.25	-2.6826441	0.0116779525	2.709287
1276793280112	-5.202973	-8.049625	-0.50395286	-0.20866203	0.0	14.25	45.1875	12.0	-2.2225647	-0.052530248	2.567779
1276793280153	-5.202973	-8.158588	-0.08172209	-0.12986565	0.0	13.75	44.9375	12.75	-2.3480794	-0.00844527	2.5738919
1276793280193	-4.671779	-8.158588	0.19068487	-0.40322304	0.0	13.75	44.9375	12.25	-2.4735217	0.020279622	2.6215482
1276793280232	-4.7943625	-8.62168	0.10896278	0.059005737	0.0	13.5	44.6875	12.25	-2.4805326	0.011044881	2.6340919
1276793280274	-4.7535014	-9.084772	1.0760075	0.50289154	0.0	13.0	45.1875	12.5	-2.6410182	0.10456048	2.6595275
1276793280312	-3.9499009	-9.084772	0.10896278	0.100250244	0.0	13.75	45.1875	12.5	-2.7478056	0.010998897	2.7314653
1276793280352	-4.630918	-8.539958	-0.5720546	-0.0750761	0.0	13.5	44.4375	13.25	-2.418379	-0.058817267	2.6447077
1276793280392	-4.671779	-7.3141265	-0.8036005	-1.090703	0.0	13.25	44.1875	14.25	-2.2456686	-0.09233	2.5731783
1276793280432	-4.3312707	-6.851035	-0.9125633	-1.6500969	0.0	13.5	43.1875	15.4375	-2.3011787	-0.11211573	2.5778277
1276793280472	-4.7126403	-7.082581	-1.334794	-1.1954012	0.0	13.25	42.1875	16.6875	-2.2471452	-0.15563338	2.5544782
1276793280512	-5.407278	-8.008764	-1.7978859	0.022457123	0.0	13.75	41.4375	17.9375	-2.2714894	-0.18395011	2.5477262
1276793280552	-5.7477865	-7.8589406	-1.920469	0.117471695	0.0	14.25	40.9375	18.875	-2.2628286	-0.19474387	2.5101223
1276793280592	-4.9850473	-7.3549876	-2.070293	-0.6834574	0.0	14.5	40.1875	19.375	-2.3027942	-0.22892055	2.545937
1276793280632	-4.862464	-8.008764	-1.6889231	-0.2863388	0.0	14.75	39.9375	20.125	-2.561594	-0.17834604	2.5959377
1276793280672	-4.5628166	-7.5865335	-1.7978859	-0.7729807	0.0	14.75	39.9375	20.875	-2.5619035	-0.20035838	2.6001177
1276793280712	-4.7126403	-7.205164	-1.4982382	-1.0677662	0.0	15.0	39.6875	20.625	-2.53502	-0.17229623	2.5623655
1276793280752	-5.325556	-7.3141265	-0.95342433	-0.709013	0.0	15.5	39.9375	20.875	-2.5522966	-0.104991905	2.512243
1276793280792	-5.243834	-7.205164	-0.7218784	-0.86610794	0.0	16.5	39.9375	20.875	-2.6134756	-0.08083012	2.5124593
1276793280832	-5.366417	-7.9679036	-1.334794	-0.10780525	0.0	17.5	39.4375	20.375	-2.6586747	-0.13806221	2.5488713
1276793280872	-6.428804	-7.246025	-1.3756552	-0.022642136	0.0	18.4375	39.0	20.625	-2.449842	-0.14106984	2.4158845
1276793280912	-6.932757	-6.701211	-1.1441092	-0.09694767	0.0	19.4375	38.5	20.625	-2.4066873	-0.11810593	2.3392131
1276793280952	-5.8976107	-7.04172	-1.1168685	-0.5538111	0.0	19.4375	38.5	20.875	-2.581377	-0.121000536	2.4443862
1276793280982	-5.8158884	-6.782933	-0.42223078	-0.86176205	0.0	19.9375	38.5	20.875	-2.6571684	-0.047221128	2.432801
1276793281012	-6.428804	-7.04172	-0.27240697	-0.26780605	0.0	19.9375	38.5	21.375	-2.6334298	-0.028561532	2.4016638
1276793281052	-5.134871	-8.117727	-0.46309182	-0.19005775	0.0	19.9375	38.75	21.125	-2.9409935	-0.04817413	2.5775824
1276793281092	-4.440233	-8.267551	-0.95342433	-0.3738823	0.0	20.4375	38.5	21.125	-3.128886	-0.101248674	2.6487327
1276793281132	-5.366417	-7.8861814	-1.4982382	-0.15082264	0.0	20.6875	38.75	21.125	-2.8198779	-0.15579362	2.5440855
1276793281172	-5.434519	-7.5865335	-1.9477097	-0.27338982	0.0	21.1875	39.0	20.625	-2.685747	-0.20575549	2.519986
1276793281212	-4.7943625	-7.504812	-2.4925237	-0.55890465	0.0	20.9375	38.25	20.875	-2.8032048	-0.27290255	2.573104
1276793281252	-4.7943625	-7.4639506	-1.9477097	-0.724247	0.0	21.1875	38.0	21.125	-2.9066212	-0.21612738	2.570624
1276793281292	-5.09401	-7.6954966	-1.8387469	-0.39651775	0.0	20.9375	37.75	21.875	-2.888196	-0.19666606	2.5568647
1276793281332	-5.09401	-7.8180795	-1.2666923	-0.38986683	0.0	20.9375	36.75	22.625	-2.9921827	-0.13492331	2.564116
1276793281372	-5.134871	-7.5456724	-0.9942854	-0.62554646	0.0	21.9375	36.0	23.8125	-3.0312777	-0.10850975	2.5440705
1276793281412	-4.903325	-7.8180795	-0.23154591	-0.5752592	0.0	22.4375	35.25	24.0625	3.1294608	-0.025085082	2.581429
1276793281452	-5.6660647	-7.7772183	0.8036005	-0.1508131	0.0	23.1875	34.25	24.5625	-3.0905318	0.08332069	2.5119638
1276793281492	-7.1234417	-6.973618	0.61291564	0.18086338	0.0	23.6875	33.5	25.5625	-2.8842113	0.061406776	2.3455667
1276793281532	-4.944186	-8.471856	-2.6423476	0.3520565	0.0	23.9375	32.75	26.0625	2.8648393	-0.2631327	2.6133182
1276793281572	-5.7477865	-5.243834	-3.214402	-1.3883829	0.0	24.4375	32.0625	27.25	-2.518449	-0.39178258	2.3103778
1276793281612	-10.106298	-3.636633	-5.706926	2.3560534	0.0	25.375	30.5625	28.25	-1.9859531	-0.48840192	1.9162087
1276793281652	-8.308413	-6.0882955	-3.0645783	0.9399166	0.0	26.875	29.5625	29.25	-2.7007213	-0.28918186	2.2031896
1276793281692	-9.112013	-5.8158884	-7.014479	3.0796309	0.0	26.875	28.5625	29.5	-1.9694108	-0.57559854	2.1388783
1276793281732	-8.240311	-4.944186	-4.5219555	0.8138857	0.0	27.375	27.0625	30.5	-2.4783394	-0.43981788	2.1112158
1276793281774	-6.851035	-3.9771416	-3.9499009	-0.9547548	0.0	27.375	26.5625	30.75	-2.4437196	-0.4625381	2.096767
1276793281812	-5.434519	-4.7126403	-3.5276701	-1.7949438	0.0	26.625	26.3125	30.75	-2.9267204	-0.4559489	2.2851732
1276793281852	-3.8681788	-5.5162406	-2.7240696	-2.539445	0.0	27.125	26.3125	31.0	2.6948986	-0.38422868	2.5300386
1276793281892	-4.7943625	-4.7943625	-3.1463003	-2.3319578	0.0	25.875	26.5625	31.1875	-3.10328	-0.4344671	2.3561945
1276793281932	-5.175732	-5.7477865	-4.2086873	-1.0010672	0.0	25.125	27.3125	31.1875	3.1007738	-0.49832702	2.4085157
1276793281972	-4.862464	-7.04172	-4.630918	-0.076553345	0.0	24.4375	27.8125	31.6875	2.747961	-0.49602968	2.537256
1276793282002	-4.0180025	-6.6331096	-4.903325	-0.63140774	0.0	23.9375	28.3125	32.4375	2.5047066	-0.5638075	2.5969563
1276793282042	-4.7126403	-5.366417	-5.175732	-0.9864683	0.0	23.6875	28.8125	32.4375	-2.8719003	-0.6271082	2.4209685
1276793282082	-4.3312707	-6.66035	-4.630918	-0.6106968	0.0	23.6875	28.8125	32.1875	2.715426	-0.52774	2.5650017
1276793282122	-7.04172	-11.563675	-3.8681788	4.274089	0.0	24.4375	29.3125	31.4375	2.8655016	-0.27829245	2.594617
1276793282162	-6.891896	-8.662541	-4.903325	2.3003912	0.0	24.1875	29.5625	31.0	3.1010373	-0.41697642	2.469542
1276793282202	-3.255263	-3.568531	-4.5628166	-3.1620698	0.0	24.9375	30.0625	30.0	-0.3530558	-0.75693625	2.4020705
1276793282242	-5.325556	-5.407278	-2.1792557	-1.9104896	0.0	24.9375	30.0625	30.5	-2.9643202	-0.2796188	2.3638086
1276793282282	-5.938472	-7.43671	-0.50395286	-0.2764845	0.0	25.125	29.5625	30.0	3.0991044	-0.052904435	2.4677458
1276793282322	-5.47538	-7.9679036	-0.84446156	-0.10199261	0.0	25.875	29.8125	29.5	2.972258	-0.08712629	2.539523
1276793282362	-5.325556	-5.5162406	-0.9942854	-2.0749583	0.0	26.625	29.5625	29.0	-3.0833766	-0.12895581	2.3737805
1276793282392	-7.6546354	-5.012288	-1.6889231	-0.5024071	0.0	27.625	29.5625	28.0	-2.7017984	-0.18253376	2.1505415
1276793282432	-7.7772183	-5.597963	-1.2666923	-0.14089489	0.0	28.375	29.8125	27.5	-2.8076394	-0.13142753	2.194681
1276793282472	-4.862464	-7.504812	-1.334794	-0.7652216	0.0	29.125	29.3125	26.3125	2.7405257	-0.14817248	2.5666862
1276793282512	-6.742072	-5.284695	-2.4516625	-0.8963089	0.0	30.375	29.3125	25.0625	-2.8090634	-0.27874365	2.2356048
1276793282552	-6.66035	-5.134871	-2.4108016	-1.0579863	0.0	31.625	29.0625	23.5625	-2.8126109	-0.2791746	2.2275782
1276793282592	-7.5865335	-5.012288	-1.9885708	-0.49896812	0.0	32.5625	29.3125	21.875	-2.6486385	-0.21530801	2.1546445
1276793282632	-7.3141265	-6.0201936	-1.7570249	-0.17200947	0.0	33.5625	29.8125	19.875	-2.9940093	-0.18339165	2.2594595
1276793282672	-7.43671	-8.117727	-1.6889231	1.3313303	0.0	34.0625	30.3125	18.4375	2.7533755	-0.1522236	2.3999493
1276793282712	-7.1234417	-6.701211	-1.6480621	0.11130142	0.0	34.0625	31.5625	16.9375	3.1026237	-0.16694398	2.3256621
1276793282752	-6.428804	-6.0201936	-1.525479	-0.86800766	0.0	33.5625	31.5625	15.9375	-3.1291928	-0.17150062	2.3233836
1276793282792	-8.430995	-7.504812	0.040861044	1.4807558	0.0	32.5625	32.5	15.4375	-2.974909	0.0036200641	2.2981403
1276793282832	-8.349273	-7.7772183	-0.9125633	1.6401072	0.0	32.0625	32.75	15.4375	-2.9636977	-0.079807125	2.3207364
1276793282872	-7.3141265	-8.880466	0.38136974	1.7044134	0.0	31.625	32.75	15.4375	2.9326453	0.033136778	2.4526145
1276793282912	-5.5162406	-9.112013	1.1849703	0.9107113	0.0	31.625	33.25	15.9375	2.699852	0.110792	2.597226
1276793282952	-6.0474343	-8.349273	0.84446156	0.5371847	0.0	31.625	32.0625	17.4375	2.8284342	0.081730075	2.514739
1276793282992	-7.7772183	-8.390134	-0.6537767	1.6522722	0.0	31.375	31.3125	19.125	3.037937	-0.05708494	2.394087
1276793283032	-7.504812	-7.7772183	-1.2258313	1.0703897	0.0	30.875	30.0625	21.875	3.0622408	-0.11293891	2.374018
1276793283072	-5.407278	-4.2495484	-2.4108016	-2.5190387	0.0	29.625	28.5625	24.8125	-2.7434826	-0.3371599	2.2368767
1276793283112	-4.2904096	-4.671779	-2.1111538	-3.1215844	0.0	28.375	28.0625	27.75	3.0029526	-0.32130125	2.398722
1276793283152	-3.9090397	-5.284695	-3.5276701	-2.3465528	0.0	25.875	27.0625	29.5	2.6321163	-0.49254724	2.504722
1276793283192	-3.9090397	-4.440233	-3.9771416	-2.6782618	0.0	23.9375	27.3125	30.25	-3.12492	-0.5918894	2.4197304
1276793283232	-2.5333846	-3.636633	-5.434519	-2.7940092	0.0	22.4375	28.3125	30.5	0.25154203	-0.88665235	2.5331326
1276793283275	-3.8681788	-5.7886477	-3.173541	-2.155336	0.0	22.1875	29.3125	29.5	2.9576836	-0.4276908	2.5525048
1276793283312	-5.7477865	-10.337844	-3.214402	2.450611	0.0	22.1875	30.5625	28.75	2.8933342	-0.26534757	2.6341586
1276793283352	-6.238119	-10.106298	-6.428804	3.6981983	0.0	22.4375	30.8125	28.25	2.734794	-0.49614257	2.5885854
1276793283392	-13.525005	-14.056199	-4.1814466	10.1429615	0.0	22.6875	30.0625	29.0	-2.9258926	-0.21116625	2.3754513
1276793283432	-1.4982382	-2.6423476	-3.1054392	-5.4626346	0.0	22.6875	28.8125	29.75	0.8238849	-0.79644895	2.6257837
1276793283472	-5.9793324	-1.1168685	0.27240697	-3.7178063	0.0	23.1875	28.0625	30.25	-2.5036993	0.044753637	1.7554566
1276793283512	-10.56939	-11.304889	1.3756552	5.7305613	0.0	23.4375	27.5625	30.0	-3.090151	0.08865548	2.3898058
1276793283552	-0.61291564	-8.308413	-0.38136974	-1.4669371	0.0	24.4375	27.8125	28.5	2.452859	-0.04574531	3.0679555
1276793283592	-2.7921712	-5.706926	-0.5720546	-3.4275851	0.0	25.625	28.5625	27.25	2.727785	-0.089797504	2.6865737
1276793283662	-6.66035	-6.932757	-0.53119355	-0.17827797	0.0	27.375	29.0625	25.8125	-3.1249032	-0.055197638	2.376232
1276793283702	-6.973618	-5.706926	-1.1849703	-0.71794796	0.0	29.875	29.3125	23.8125	-2.9373655	-0.13075061	2.256632
1276793283742	-8.730643	-5.243834	-2.070293	0.58604145	0.0	31.875	29.3125	21.625	-2.5416355	-0.20054825	2.1116745
1276793283782	-8.539958	-6.238119	-3.0645783	1.2041016	0.0	33.5625	29.0625	19.625	-2.6297584	-0.2820508	2.2016757
1276793283822	-8.921328	-4.399372	-2.7513103	0.51392555	0.0	34.3125	29.8125	17.6875	-2.002627	-0.26984802	2.0289326
1276793283862	-8.499097	-4.399372	-1.9477097	-0.04024315	0.0	34.5625	30.3125	16.9375	-2.1799889	-0.20077568	2.048447
1276793283902	-8.049625	-9.275456	-0.08172209	2.4749317	0.0	34.5625	30.8125	16.4375	2.7905433	-0.006654085	2.4268315
1276793283932	-6.5922484	-10.079058	1.4165162	2.3198357	0.0	34.5625	31.0625	15.4375	2.6164873	0.11707906	2.5623727
1276793283962	-4.903325	-7.504812	0.7218784	-0.81299114	0.0	35.3125	30.0625	15.9375	2.548339	0.080351695	2.5628607
1276793283992	-3.486809	-10.651112	-1.2666923	1.4720249	0.0	35.8125	29.0625	17.1875	2.041741	-0.11254606	2.8252225
1276793284032	-5.8158884	-13.102775	-1.4573772	4.602764	0.0	36.8125	26.8125	18.6875	2.1410525	-0.10131386	2.7238507
1276793284072	-8.962189	-7.164303	-1.7570249	1.8008995	0.0	37.5625	24.375	20.375	2.8232164	-0.15195322	2.2451665
1276793284112	-8.812365	-3.5957718	-3.568531	0.35808086	0.0	37.5625	21.625	21.625	-2.2962105	-0.35871348	1.958212
1276793284152	-5.47538	-2.4516625	-1.2258313	-3.6834893	0.0	37.0625	19.375	23.3125	-2.968179	-0.2015578	1.9917868
1276793284352	-8.771504	-10.882658	-3.8273177	4.6854134	0.0	35.5625	18.125	25.3125	2.307336	-0.26726806	2.4631994
1276793284392	-6.932757	-9.302697	-5.6660647	3.1048794	0.0	33.8125	18.625	27.5	2.0973423	-0.45430464	2.501144
1276793284432	-8.62168	-8.921328	-6.5513873	4.223466	0.0	32.0625	19.125	30.0	2.3529873	-0.4858405	2.3732736
1276793284472	-7.7772183	-8.812365	-0.61291564	1.9627409	0.0	31.375	19.375	31.1875	2.7914252	-0.052100655	2.4185112
1276793284512	-6.238119	-5.47538	1.0760075	-1.4369602	0.0	31.125	19.875	31.6875	2.9879067	0.12891681	2.2911701
1276793284552	-5.366417	-4.630918	-0.19068487	-2.715797	0.0	30.375	19.875	31.4375	2.9853644	-0.02689491	2.2827573
1276793284592	-4.5900574	-8.962189	-1.6889231	0.40324306	0.0	30.875	21.125	30.25	2.5098794	-0.16618411	2.668266
1276793284632	-3.718355	-6.1700177	-2.3426998	-2.2314587	0.0	31.375	22.375	27.75	2.3604643	-0.31441423	2.5992277
1276793284672	-4.2495484	-3.9771416	-1.7978859	-3.7149577	0.0	32.0625	23.625	25.5625	2.791207	-0.29959923	2.323094
1276793284712	-6.6331096	-4.399372	-2.1383946	-1.5649672	0.0	33.5625	24.375	23.5625	-2.9957988	-0.26246396	2.156426
1276793284752	-6.1291566	-3.9090397	-2.3426998	-2.168889	0.0	34.5625	24.375	21.375	-2.8814564	-0.3117513	2.1385314
1276793284792	-7.014479	-6.1291566	-1.879608	-0.30389214	0.0	35.0625	24.875	19.875	2.7665682	-0.19910903	2.2889385
1276793284832	-6.0882955	-5.9793324	-1.4165162	-1.1564322	0.0	35.3125	26.3125	18.1875	2.63649	-0.16449581	2.3471653
1276793284872	-8.539958	-6.1291566	-1.4573772	0.80567265	0.0	35.3125	27.5625	16.6875	-2.9697049	-0.13776413	2.1933053
1276793284902	-9.425281	-6.2789803	-1.0351465	1.5658178	0.0	34.5625	28.5625	16.1875	-2.776606	-0.09114831	2.1584654
1276793284942	-9.112013	-8.689782	0.08172209	2.7849255	0.0	34.3125	29.5625	15.4375	2.9972303	0.0064902646	2.3324804
1276793284972	-6.742072	-10.378705	1.2258313	2.6302195	0.0	34.0625	29.3125	15.1875	2.5648909	0.09872458	2.5654943
1276793285002	-6.0882955	-10.460427	0.7218784	2.3180761	0.0	33.8125	29.0625	15.1875	2.4508815	0.059572935	2.6144903
1276793285042	-7.273266	-12.299174	0.42223078	4.4883966	0.0	34.0625	28.5625	14.9375	2.4010313	0.029541155	2.6075487
1276793285082	-7.7363577	-11.727119	0.313268	4.2459183	0.0	34.0625	27.5625	16.6875	2.496484	0.022294428	2.55843
1276793285122	-7.6546354	-7.6954966	-1.0351465	1.0968189	0.0	34.3125	26.3125	18.6875	2.7636359	-0.09508054	2.3588564
1276793285162	-5.012288	-5.434519	-1.607201	-2.24093	0.0	34.0625	24.875	21.875	2.565572	-0.2140631	2.3965898
1276793285202	-2.3426998	-3.9499009	-0.88532263	-5.1297116	0.0	33.0625	23.875	25.5625	2.4075751	-0.19044444	2.6062596
1276793285242	-1.607201	-3.336985	-2.3699405	-5.409471	0.0	31.375	22.375	28.5	1.8738874	-0.5692119	2.6927466
1276793285282	-2.8330324	-3.2961242	-4.671779	-3.4257393	0.0	29.375	21.375	30.75	1.0361146	-0.821472	2.4316068
1276793285322	-3.636633	-2.9147544	-6.510526	-1.7999125	0.0	27.625	21.125	31.4375	0.07936918	-0.949511	2.24645
1276793285362	-5.434519	-6.0201936	-6.2108784	0.40861893	0.0	27.625	21.125	31.0	2.1127458	-0.65353847	2.4072795
1276793285392	-8.240311	-10.18802	-4.8216033	4.1556673	0.0	27.875	21.625	29.75	2.675765	-0.3525901	2.4614947
1276793285422	-5.47538	-9.084772	-7.3141265	3.0778093	0.0	28.875	21.625	29.0	1.9173205	-0.60367334	2.5991912
1276793285462	-9.343558	-13.988097	-6.5922484	8.260632	0.0	29.375	21.625	29.0	2.4330204	-0.3734955	2.5526917
1276793285492	-6.932757	-7.6546354	-0.7218784	0.5460148	0.0	29.125	21.375	30.0	2.8838508	-0.06978539	2.4056406
1276793285532	-3.7864566	-5.325556	-0.61291564	-3.2435365	0.0	29.875	20.875	30.75	2.7212515	-0.09352421	2.523524
1276793285572	-6.66035	-3.8273177	2.6832085	-1.6698065	0.0	30.125	20.875	30.5	-3.0660684	0.3360497	2.0923617
1276793285612	-6.3198414	-8.62168	-0.46309182	0.8932667	0.0	31.125	20.875	29.25	2.7098277	-0.04329347	2.5090494
1276793285652	-3.759216	-7.6273947	-0.84446156	-1.2613611	0.0	33.0625	21.375	26.8125	2.4280672	-0.098983444	2.6836755
1276793285692	-3.5957718	-4.7943625	-0.8036005	-3.7600589	0.0	34.5625	21.875	23.8125	2.4764917	-0.13329577	2.4980915
1276793285732	-7.082581	-4.0588636	-0.5720546	-1.6234617	0.0	36.0625	22.625	20.625	-3.0453517	-0.06996314	2.0911841
1276793285772	-7.5865335	-4.3312707	-2.070293	-0.82881546	0.0	37.8125	23.125	17.6875	-2.9529955	-0.23269475	2.0895557
1276793285812	-8.076866	-4.7126403	-3.3642259	0.1312952	0.0	38.8125	23.375	15.1875	-0.5420365	-0.34534708	2.0989757
1276793285852	-7.5865335	-4.630918	-2.8330324	-0.47782612	0.0	39.0625	24.625	13.75	-0.6263284	-0.30855888	2.118837
1276793285892	-8.921328	-6.238119	-2.1111538	1.2821369	0.0	39.25	25.5625	12.75	2.7371085	-0.19155568	2.1810098
1276793285922	-9.043911	-6.66035	-2.1383946	1.6268673	0.0	39.5	27.3125	11.25	2.5375974	-0.18813649	2.2055662
1276793285962	-8.390134	-8.19945	-0.5720546	1.9386702	0.0	39.0625	28.5625	10.3125	2.4296882	-0.04872418	2.3447008
1276793286002	-4.903325	-9.915613	1.0351465	1.3034134	0.0	39.5	28.8125	9.3125	2.102344	0.093307294	2.6823504
1276793286042	-3.8273177	-9.765789	1.4982382	0.7888069	0.0	40.25	28.8125	9.5625	2.0879812	0.14187936	2.768079
1276793286082	-7.8861814	-15.091345	-1.3756552	7.27647	0.0	41.25	26.3125	11.0	1.8711146	-0.08061445	2.6600578
1276793286122	-9.697687	-7.8589406	-1.6480621	2.783989	0.0	43.0	23.625	12.75	2.1980693	-0.13127252	2.2518425
1276793286172	-8.771504	-1.0351465	-3.445948	-0.32586002	0.0	44.5	20.625	15.6875	-1.4195594	-0.371986	1.6882654
1276793286212	-4.8216033	-1.0351465	-1.920469	-4.5144305	0.0	44.75	17.4375	18.6875	-1.5979667	-0.37136245	1.7822754
1276793286252	-2.1792557	-2.9147544	-2.1792557	-5.5647044	0.0	44.0	16.4375	22.125	1.518992	-0.53953797	2.4995885
1276793286292	-2.2201166	-3.1463003	-3.405087	-4.6663446	0.0	42.25	16.6875	25.8125	1.3407491	-0.7240565	2.5270996
1276793286332	-1.6480621	-2.070293	-6.0882955	-3.1681595	0.0	40.25	16.9375	28.0	0.7178121	-1.1607952	2.4692633
1276793286372	-5.938472	-3.336985	-3.5957718	-2.1040215	0.0	39.25	18.375	28.75	2.5929272	-0.48569602	2.08275
1276793286412	-11.182305	-13.525005	-3.255263	8.04178	0.0	38.8125	20.125	28.75	2.4568439	-0.18341029	2.45073
1276793286452	-7.9679036	-10.079058	-7.6546354	5.1488953	0.0	38.3125	21.125	28.0	1.7693661	-0.5373089	2.4726465
1276793286492	-9.275456	-11.141444	-4.5219555	5.3793287	0.0	37.3125	21.375	28.75	2.3708358	-0.30235764	2.4473355
1276793286532	-3.8273177	-4.9850473	-0.61291564	-3.4920068	0.0	36.8125	21.625	29.75	2.585099	-0.09721565	2.486822
1276793286572	-5.434519	-5.175732	0.10896278	-2.3010478	0.0	37.0625	20.875	30.25	2.8151183	0.014518037	2.331809
1276793286612	-6.701211	-6.891896	0.6946377	-0.16886139	0.0	37.5625	20.875	30.25	2.7840981	0.07213693	2.3702216
1276793286652	-3.9771416	-8.267551	-0.84446156	-0.5934439	0.0	38.8125	22.375	28.25	2.3454878	-0.091786556	2.693216
1276793286692	-2.8738933	-6.238119	-1.920469	-2.6749187	0.0	40.0	23.375	26.0625	2.081518	-0.27265066	2.7098775
1276793286732	-4.0588636	-5.5571017	-1.1168685	-2.8350544	0.0	40.75	24.625	24.3125	2.3160253	-0.16089602	2.510759
1276793286772	-6.238119	-5.706926	-1.7978859	-1.1628351	0.0	41.75	25.3125	21.625	2.4374895	-0.20952652	2.311754
1276793286812	-7.7363577	-5.5571017	-2.4108016	0.019060135	0.0	42.25	26.0625	19.125	2.6427999	-0.24788739	2.1937053
1276793286852	-7.8180795	-5.284695	-2.5606253	-0.028758049	0.0	42.5	26.5625	17.1875	2.6645195	-0.26496872	2.165204
1276793286892	-6.0474343	-6.238119	-2.2609777	-0.8290329	0.0	41.75	27.8125	14.6875	1.7447914	-0.25458735	2.3717144
1276793286932	-8.689782	-4.3312707	-2.6423476	0.2558651	0.0	41.75	28.5625	13.75	-1.5865986	-0.26570868	2.0331893
1276793286972	-10.7192135	-4.9850473	-2.0294318	2.1879663	0.0	41.75	29.5625	13.0	-2.0078557	-0.17001307	2.0061011
1276793287013	-8.499097	-8.771504	0.92618364	2.4420958	0.0	41.25	30.3125	12.25	2.652562	0.07568681	2.3719661
1276793287052	-4.7535014	-10.038197	2.0294318	1.4840431	0.0	42.25	29.5625	12.0	2.2317975	0.18072599	2.699335
1276793287092	-4.2904096	-13.0619135	0.23154591	3.943798	0.0	42.5	28.5625	13.0	1.9808787	0.01683995	2.824228
1276793287132	-7.5456724	-13.402422	-0.6946377	5.5896025	0.0	44.0	25.8125	14.6875	2.029606	-0.045132644	2.6288173
1276793287172	-9.956474	-5.134871	-1.607201	1.5106544	0.0	45.0	22.875	16.9375	3.1107702	-0.14249443	2.04695
1276793287212	-8.158588	-2.1792557	-2.6832085	-0.94598866	0.0	45.75	19.875	19.375	-2.015837	-0.30765292	1.8318143
1276793287252	-3.255263	-1.3756552	-1.7570249	-5.8599677	0.0	45.75	17.4375	22.375	0.78515327	-0.46138686	1.9706274
1276793287292	-2.2201166	-3.255263	-1.1441092	-5.703646	0.0	43.5	17.1875	25.3125	2.04619	-0.282593	2.5430439
1276793287332	-1.9477097	-3.9771416	-1.879608	-4.995813	0.0	41.25	16.9375	28.75	1.9968743	-0.40139505	2.686198
1276793287362	-2.1792557	-2.3426998	-5.6252036	-3.3351502	0.0	38.8125	18.125	31.6875	0.7061249	-1.053637	2.3923233
1276793287402	-3.9771416	-3.6774938	-5.202973	-2.2958217	0.0	37.0625	19.625	31.9375	1.13195	-0.76526695	2.3170686
1276793287462	-10.18802	-15.173067	-4.0180025	8.905968	0.0	36.8125	20.375	31.6875	2.443963	-0.21640673	2.550283
1276793287502	-9.915613	-10.923519	-8.008764	6.979742	0.0	36.8125	21.625	31.1875	2.1301537	-0.4973504	2.404523
1276793287542	-8.240311	-10.460427	-2.2609777	3.7002096	0.0	36.8125	21.125	31.1875	2.561053	-0.16818658	2.4743595
1276793287572	-0.8036005	-2.3018389	-0.46309182	-7.3249793	0.0	36.8125	20.375	31.4375	2.2995727	-0.18770514	2.805709
1276793287612	-2.4108016	-2.8330324	0.61291564	-6.036544	0.0	37.0625	18.875	31.4375	2.7361443	0.16329727	2.4365406
1276793287652	-8.62168	-7.9270425	0.88532263	1.9387817	0.0	37.5625	18.625	30.75	2.8070638	0.07544747	2.3142438
1276793287692	-5.284695	-9.275456	-1.1849703	0.9342184	0.0	38.3125	20.375	28.5	2.378901	-0.11054854	2.6237125
1276793287732	-1.8387469	-6.0474343	-2.1792557	-3.1207242	0.0	39.75	21.625	26.5625	2.0018988	-0.33201298	2.8464208
1276793287772	-3.5957718	-4.3312707	-0.6537767	-4.1394725	0.0	41.0	23.625	24.3125	2.428679	-0.115619384	2.448713
1276793287812	-6.6331096	-5.7477865	-1.4573772	-0.9095087	0.0	43.0	24.875	21.625	2.529792	-0.16454436	2.2848089
1276793287852	-7.504812	-6.238119	-1.920469	0.139431	0.0	44.5	24.625	18.875	2.3216293	-0.19430842	2.2642837
1276793287892	-8.539958	-3.718355	-3.445948	0.124694824	0.0	44.75	25.0625	16.6875	-1.1883761	-0.3543459	1.9814484
1276793287932	-7.504812	-5.5162406	-3.1054392	0.01143837	0.0	44.5	25.5625	14.6875	1.2064009	-0.3218243	2.2046456
1276793287972	-9.425281	-4.5219555	-1.9477097	0.82714367	0.0	43.75	26.3125	13.0	-2.1969144	-0.18420216	2.0181284
1276793288012	-8.880466	-5.134871	-1.8387469	0.6149893	0.0	42.75	27.5625	11.75	-2.38386	-0.17736395	2.0950477
1276793288052	-6.469665	-10.501288	1.3756552	2.6040735	0.0	42.25	28.5625	10.5	2.2095582	0.11107232	2.5894313
1276793288092	-4.7943625	-11.413852	3.214402	2.9837494	0.0	42.5	28.8125	10.0625	2.2035434	0.25403723	2.7439241
1276793288132	-4.2086873	-13.0619135	0.84446156	3.942522	0.0	43.25	27.3125	10.3125	1.9404387	0.061457764	2.8298857
1276793288172	-6.3198414	-13.988097	-1.525479	5.618471	0.0	44.75	25.0625	11.75	1.815652	-0.099057674	2.7172418
1276793288212	-10.228881	-5.6252036	-2.1792557	2.0686216	0.0	46.25	21.625	14.0	2.4940026	-0.18455802	2.0735884
1276793288252	-10.038197	-1.2666923	-2.8330324	0.7002983	0.0	47.4375	17.875	16.1875	-1.7629149	-0.2730131	1.6963202
1276793288292	-3.5957718	-0.9125633	-0.9942854	-5.965954	0.0	47.1875	14.9375	19.375	-2.6902359	-0.2618641	1.8193369
1276793288332	-0.9942854	-2.3426998	-1.3075534	-6.945437	0.0	45.75	13.6875	23.5625	1.7597739	-0.4746112	2.7402146
1276793288362	-1.8387469	-3.486809	-2.2609777	-5.2623296	0.0	43.75	13.4375	27.0625	1.7953628	-0.52075964	2.65631
1276793288402	-2.1383946	-2.7513103	-4.671779	-3.9784465	0.0	41.25	14.1875	30.5	1.1376575	-0.9299354	2.4808924
1276793288442	-4.2495484	-4.099725	-5.597963	-1.6700907	0.0	40.0	15.9375	31.6875	1.305876	-0.7587312	2.3382518
1276793288482	-10.501288	-11.032481	-1.7297841	5.522566	0.0	39.5	16.9375	30.75	2.566002	-0.11308317	2.3808575
1276793288522	-9.724928	-14.982383	-7.8589406	9.707676	0.0	39.0625	18.625	30.25	2.0867138	-0.4144939	2.5658567
1276793288562	-9.384419	-10.378705	-5.175732	5.112232	0.0	38.3125	19.125	30.5	2.3291488	-0.3542904	2.4064622
1276793288602	-5.938472	-8.076866	-2.1383946	0.44390774	0.0	37.8125	18.625	31.1875	2.4335783	-0.21015605	2.5076022
1276793288642	-3.8273177	-4.2086873	0.313268	-4.109322	0.0	38.0625	17.875	31.4375	2.6930645	0.05501282	2.4036164
1276793288682	-4.7126403	-4.7535014	0.9942854	-3.0395713	0.0	38.8125	16.6875	31.0	2.7319431	0.14746365	2.360511
1276793288732	-4.630918	-8.308413	-1.2258313	-0.21614552	0.0	40.25	17.4375	29.25	2.3150384	-0.1281678	2.6331034
1276793288772	-2.9147544	-6.973618	-2.1111538	-1.959096	0.0	41.25	18.125	26.5625	2.066611	-0.27237603	2.7456925
1276793288812	-3.9499009	-4.3312707	-1.1849703	-3.8262	0.0	42.0	19.625	24.3125	2.2821531	-0.19946058	2.4022145
1276793288852	-6.891896	-5.938472	-1.7978859	-0.53324413	0.0	43.0	20.875	21.625	2.3563044	-0.19511104	2.2820208
1276793288892	-7.4639506	-5.284695	-2.7513103	-0.25634766	0.0	44.25	21.625	18.6875	2.0274332	-0.29222772	2.1868906
1276793288932	-6.8237944	-4.630918	-2.3699405	-1.22608	0.0	45.0	22.625	16.4375	1.8678777	-0.27983648	2.1670442
1276793288972	-5.8158884	-6.742072	-2.1111538	-0.6558542	0.0	45.0	23.625	14.25	1.7281151	-0.23280434	2.4298139
1276793289012	-8.240311	-4.8216033	-2.5606253	0.078053474	0.0	44.5	25.3125	12.5	0.48514602	-0.26203772	2.1002057
1276793289052	-9.80665	-4.440233	-2.5333846	1.2524681	0.0	43.5	26.3125	10.75	-1.3903332	-0.23112889	1.9959579
1276793289092	-9.302697	-8.076866	-0.95342433	2.5499249	0.0	43.25	27.5625	9.5625	2.2111607	-0.07723604	2.2857783
1276793289132	-6.3607025	-9.888372	2.7649305	2.2715654	0.0	43.5	27.5625	8.5625	2.291307	0.23096685	2.5699768
1276793289172	-4.7126403	-11.985906	1.9477097	3.2188826	0.0	44.0	26.3125	9.0625	2.0182106	0.15009305	2.7669778
1276793289212	-5.8976107	-15.4046135	-1.334794	6.742235	0.0	44.5	24.125	10.5	1.7908204	-0.080745354	2.7759602
1276793289252	-8.580819	-8.689782	-0.95342433	2.442912	0.0	45.75	20.875	12.0	2.0055225	-0.077912144	2.3625035
1276793289292	-11.032481	-1.6480621	-2.8738933	1.7125082	0.0	46.4375	17.875	14.6875	-1.7630414	-0.25215164	1.7190825
1276793289332	-5.202973	-0.5720546	-2.1383946	-4.152368	0.0	46.6875	15.4375	17.9375	-1.417381	-0.38784063	1.6803042
1276793289372	-1.2666923	-2.3426998	-1.3075534	-6.8397584	0.0	46.25	14.1875	21.125	1.6813762	-0.45639497	2.6459193
1276793289412	-1.334794	-3.8273177	-0.7627395	-5.6821127	0.0	44.0	14.1875	25.8125	2.072178	-0.18599786	2.806028
1276793289452	-2.1792557	-2.4516625	-5.366417	-3.5171165	0.0	41.5	14.6875	28.75	0.871072	-1.0221469	2.4149504
1276793289492	-4.0588636	-3.486809	-5.284695	-2.2859974	0.0	40.0	15.9375	30.5	1.1111755	-0.7791726	2.2805269
1276793289532	-9.343558	-9.466142	-3.0645783	3.8425817	0.0	38.8125	17.4375	30.5	2.5054073	-0.2264544	2.3627114
1276793289572	-9.084772	-14.2877445	-6.701211	8.402658	0.0	38.5625	18.875	29.5	2.127628	-0.37686813	2.5752337
1276793289612	-10.501288	-10.269742	-6.8237944	6.3893013	0.0	38.8125	19.375	29.75	2.195638	-0.43490824	2.3450475
1276793289652	-8.049625	-10.228881	-0.95342433	3.2446136	0.0	38.8125	18.875	29.75	2.5297549	-0.07311739	2.4748595
1276793289692	-2.3699405	-3.5957718	-0.08172209	-5.499346	0.0	39.0625	18.125	30.0	2.4836931	-0.018974045	2.5588531
1276793289732	-5.012288	-4.2904096	0.6946377	-3.172408	0.0	39.25	16.9375	30.0	2.786301	0.10489717	2.278751
1276793289772	-5.012288	-9.275456	0.46309182	0.74662304	0.0	39.5	17.1875	29.0	2.4241133	0.043895442	2.6461637
1276793289812	-2.3018389	-8.880466	-1.0351465	-0.57449627	0.0	39.75	18.625	26.5625	2.1733675	-0.11236032	2.8879719
1276793289852	-2.6014864	-5.175732	-1.56634	-3.8058705	0.0	41.0	19.625	24.0625	2.0325875	-0.26408154	2.675842
1276793289892	-6.0882955	-4.5628166	-1.1441092	-2.112781	0.0	42.5	21.125	21.125	2.5899718	-0.1492576	2.2139394
1276793289932	-7.3549876	-4.630918	-2.9147544	-0.6394787	0.0	44.25	21.625	17.6875	1.7943872	-0.32357252	2.1327178
1276793289972	-8.19945	-4.9850473	-2.2201166	0.042744637	0.0	45.25	21.625	14.9375	2.1522586	-0.22736016	2.117058
1276793290012	-7.5456724	-5.7477865	-2.8330324	0.09285927	0.0	45.5	22.375	12.75	1.3667885	-0.29023674	2.2217643
1276793290052	-7.205164	-5.366417	-2.6832085	-0.43048763	0.0	45.0	23.625	10.75	1.0971458	-0.29023084	2.210962
1276793290092	-8.499097	-2.982856	-2.7921712	-0.3764696	0.0	44.0	24.875	9.3125	-0.99035347	-0.30059528	1.9083275
1276793290132	-9.043911	-8.471856	0.14982383	2.5863762	0.0	43.75	26.3125	8.3125	2.265166	0.01208966	2.3235466
1276793290172	-5.8567495	-12.026767	2.7921712	3.8586655	0.0	43.75	27.0625	7.8125	2.112329	0.20577453	2.6884181
1276793290212	-3.636633	-14.369467	3.1463003	5.3461018	0.0	44.25	26.3125	8.0625	1.971498	0.20916061	2.8937168
1276793290252	-4.2495484	-16.930092	-0.95342433	7.6746464	0.0	45.5	24.375	9.8125	1.7748532	-0.054566756	2.8956678
1276793290292	-8.921328	-8.880466	-0.7218784	2.801834	0.0	46.6875	20.625	10.75	1.9827485	-0.057284713	2.3538992
1276793290324	-12.4489975	-0.29964766	-2.982856	2.9982224	0.0	47.4375	17.1875	12.25	-1.618726	-0.2351069	1.5948617
1276793290362	-7.3141265	-1.1441092	-2.3426998	-2.04175	0.0	48.1875	13.9375	14.5	-1.3848866	-0.30647922	1.7259635
1276793290402	-0.9125633	-1.6889231	-1.6480621	-7.2765627	0.0	47.1875	11.9375	16.6875	1.3302599	-0.709409	2.6462097
1276793290442	-1.3075534	-2.6832085	-0.5720546	-6.767481	0.0	45.5	11.4375	20.625	1.9564006	-0.18935686	2.6881487
1276793290482	-2.1792557	-3.5276701	-4.671779	-3.5601206	0.0	43.5	11.4375	24.0625	1.306067	-0.8448928	2.588216
1276793290522	-2.3426998	-2.7513103	-6.973618	-1.9523964	0.0	41.75	12.1875	26.3125	0.86967707	-1.0927119	2.436237
1276793290562	-8.076866	-3.9499009	-3.8273177	-0.03496456	0.0	41.25	13.6875	27.0625	2.5140069	-0.40245053	2.0256367
1276793290602	-10.991621	-15.785983	-5.597963	10.227076	0.0	41.0	14.4375	27.0625	2.1365576	-0.28319725	2.533361
1276793290642	-8.390134	-10.310603	-8.812365	6.1420383	0.0	41.25	15.1875	27.0625	1.644789	-0.5854144	2.4585307
1276793290682	-9.234595	-13.211738	-2.2609777	6.4703217	0.0	40.75	14.6875	27.5	2.2998714	-0.13935716	2.531559
1276793290722	-2.9556155	-3.759216	-0.38136974	-5.0094833	0.0	40.75	13.6875	28.0	2.3866022	-0.07958293	2.4753034
1276793290762	-2.7513103	-3.336985	0.84446156	-5.400031	0.0	41.25	13.4375	27.5	2.5413086	0.19282755	2.4520962
1276793290802	-6.851035	-7.4639506	0.6537767	0.3459196	0.0	41.0	13.6875	27.0625	2.523143	0.06443978	2.3989847
1276793290845	-2.6014864	-9.466142	-0.23154591	0.013186455	0.0	41.75	14.9375	24.5625	2.154127	-0.02358159	2.8733938
1276793290882	-1.9885708	-5.938472	-1.4573772	-3.3767352	0.0	41.75	16.4375	21.875	1.9766251	-0.22864267	2.8184667
1276793290922	-4.5628166	-5.597963	-0.14982383	-2.5831513	0.0	42.5	18.375	19.125	2.2789469	-0.020742659	2.457721
1276793290962	-6.742072	-5.407278	-2.0294318	-0.9289942	0.0	44.25	19.125	15.4375	1.9028713	-0.23063932	2.246768
1276793291002	-7.5456724	-6.510526	-1.8387469	0.32770348	0.0	45.5	20.375	12.5	1.8192551	-0.18244752	2.2826838
1276793291042	-8.349273	-4.903325	-3.0645783	0.34936237	0.0	45.75	21.625	9.3125	0.6201862	-0.30652785	2.101807
1276793291082	-7.5865335	-4.630918	-3.1054392	-0.39152145	0.0	45.25	22.875	7.0625	0.38479865	-0.33612883	2.118837
1276793291139	-9.043911	-3.759216	-2.7240696	0.3592043	0.0	44.5	24.375	5.375	-0.5769715	-0.27127776	1.9647317
1276793291187	-7.8180795	-8.880466	0.10896278	2.0253792	0.0	43.25	25.5625	4.125	1.8559582	0.009209268	2.4197304
1276793291222	-5.5162406	-12.340035	3.0645783	4.053257	0.0	44.0	26.0625	3.875	1.9857537	0.22295354	2.7212198
1276793291262	-4.5219555	-13.33432	2.2609777	4.453931	0.0	44.5	24.625	4.375	1.8625933	0.15921924	2.8146417
1276793291302	-5.8567495	-15.4046135	-1.0351465	6.7062283	0.0	45.75	23.125	5.375	1.6571399	-0.062728345	2.7782757
1276793291345	-9.275456	-7.6546354	-1.4982382	2.312436	0.0	47.1875	19.625	6.8125	1.6188614	-0.123943426	2.2607493
1276793291382	-9.956474	-0.7218784	-2.4925237	0.4824295	0.0	47.6875	16.4375	9.5625	-1.3776302	-0.24468367	1.6431731
1276793291412	-4.1814466	-0.9942854	-1.1168685	-5.365874	0.0	47.6875	14.4375	12.5	-1.4355978	-0.25423285	1.804246
1276793291452	-1.1441092	-1.0760075	-1.8387469	-7.3884344	0.0	46.25	13.1875	16.6875	0.7952297	-0.86388767	2.3255293
1276793291492	-1.8387469	-3.2961242	-1.6889231	-5.671691	0.0	44.75	13.4375	20.875	1.7339754	-0.42075506	2.6327417
1276793291532	-1.334794	-3.8681788	-4.630918	-3.626854	0.0	42.75	14.1875	24.0625	1.4438635	-0.84710133	2.8093162
1276793291572	-2.6832085	-3.8273177	-6.3198414	-1.9460926	0.0	41.75	14.9375	26.0625	1.0824873	-0.93398184	2.5301507
1276793291612	-10.269742	-8.62168	-3.0237172	3.9390335	0.0	41.25	15.4375	26.0625	2.4075043	-0.2217896	2.2691762
1276793291652	-8.771504	-13.375181	-6.973618	7.6423073	0.0	40.75	16.1875	26.0625	1.9330391	-0.41114387	2.5611477
1276793291692	-8.771504	-10.038197	-8.008764	5.7447157	0.0	41.0	16.1875	26.3125	1.6881561	-0.54099345	2.4234354
1276793291722	-10.56939	-12.489859	-2.1111538	6.69079	0.0	40.5	16.1875	26.3125	2.3731985	-0.12832043	2.4392867
1276793291752	-3.405087	-5.284695	-0.9942854	-3.4418073	0.0	40.75	15.6875	26.3125	2.2425704	-0.15685767	2.5692139
1276793291792	-2.2609777	-2.9556155	0.53119355	-6.047681	0.0	40.75	15.1875	26.0625	2.5004728	0.14178821	2.488575
1276793291832	-6.782933	-4.399372	1.3075534	-1.6168795	0.0	41.0	15.6875	25.0625	2.8597383	0.16034308	2.1461828
1276793291872	-4.7126403	-10.038197	-0.53119355	1.2954454	0.0	41.5	16.9375	23.5625	2.1968331	-0.047864515	2.7026653
1276793291912	-1.7978859	-8.921328	-1.879608	-0.5138893	0.0	41.75	18.125	21.875	1.979192	-0.20367102	2.9427295
1276793291952	-2.8738933	-4.7535014	-0.95342433	-4.170689	0.0	42.5	19.125	19.625	2.0227828	-0.16998546	2.597809
1276793291992	-7.3549876	-5.175732	-2.0294318	-0.5869627	0.0	43.5	20.125	16.4375	2.1537144	-0.22193684	2.1840038
1276793292032	-6.973618	-3.8681788	-2.7240696	-1.3796272	0.0	44.25	20.625	13.25	0.8191639	-0.32916617	2.0772312
1276793292072	-7.5865335	-4.3312707	-2.7921712	-0.63541126	0.0	44.5	21.625	10.75	0.6008917	-0.30935952	2.0895557
1276793292112	-6.782933	-6.0201936	-3.1054392	-0.22047901	0.0	44.75	23.375	8.8125	1.0185673	-0.32990158	2.2966902
1276793292152	-8.921328	-5.407278	-2.5606253	0.9351158	0.0	44.0	24.625	7.3125	0.3419224	-0.24069773	2.115694
1276793292202	-9.724928	-6.1700177	-2.0294318	1.8878756	0.0	43.75	25.8125	6.125	0.53380847	-0.17441994	2.1361651
1276793292252	-5.9793324	-10.147159	1.8387469	2.1138468	0.0	43.25	26.5625	5.125	2.0375407	0.1548692	2.6091063
1276793292293	-4.5219555	-10.991621	2.982856	2.44738	0.0	43.0	26.0625	4.375	2.0118835	0.2458887	2.7512972
1276793292332	-3.718355	-15.009624	-1.0351465	5.6913013	0.0	44.0	24.125	5.125	1.6476684	-0.066842236	2.8987503
1276793292372	-7.04172	-12.340035	-0.5720546	4.4126863	0.0	44.75	21.125	6.5625	1.7425817	-0.04024161	2.6230412
1276793292412	-10.923519	-4.440233	-3.568531	2.5129833	0.0	46.25	17.875	8.3125	0.13299389	-0.2938738	1.9568796
1276793292452	-7.164303	-1.2666923	-2.6014864	-2.0801063	0.0	46.9375	15.4375	10.5	-0.81840545	-0.34340444	1.7457938
1276793292492	-2.6832085	-0.14982383	-1.4165162	-6.7687936	0.0	46.25	14.1875	13.25	-0.84996	-0.48509005	1.626576
1276793292522	-1.4573772	-2.070293	-1.607201	-6.8077908	0.0	45.0	13.6875	16.9375	1.3801365	-0.5656178	2.5282223
1276793292552	-1.56634	-4.399372	-2.982856	-4.2654114	0.0	43.25	14.4375	20.875	1.6392652	-0.5684201	2.7995496
1276793292582	-1.1168685	-3.759216	-5.366417	-3.1600323	0.0	41.5	14.6875	23.5625	1.3764243	-0.9397161	2.8527973
1276793292622	-4.0180025	-4.0588636	-4.5628166	-2.496519	0.0	40.5	15.4375	24.5625	1.2759893	-0.67407787	2.3612535
1276793292662	-11.727119	-11.223166	-3.8273177	6.870676	0.0	40.5	16.4375	24.5625	2.305996	-0.23155601	2.3342395
1276793292702	-7.7772183	-10.841797	-7.8180795	5.6578913	0.0	40.75	16.4375	24.3125	1.6647152	-0.5300179	2.519326
1276793292732	-8.730643	-11.795221	-7.6546354	6.744629	0.0	40.0	16.6875	24.8125	1.7831098	-0.4807903	2.5044029
1276793292772	-9.956474	-13.525005	-1.56634	7.060791	0.0	40.0	16.4375	25.8125	2.3517597	-0.092995726	2.5070126
1276793292812	-1.920469	-4.2495484	0.23154591	-5.137552	0.0	40.25	15.9375	25.5625	2.303057	0.049611486	2.7171407
1276793292852	-4.2904096	-3.636633	0.9942854	-4.095143	0.0	40.25	15.6875	25.0625	2.7252297	0.17497608	2.2739065
1276793292892	-6.5513873	-7.3549876	-0.6537767	0.064720154	0.0	41.5	16.6875	23.0625	2.3678448	-0.06627809	2.4139168
1276793292932	-2.3699405	-9.575105	-1.3756552	0.1528511	0.0	42.0	18.375	20.875	2.0040696	-0.13856791	2.8989582
1276793292972	-2.3018389	-6.1291566	-2.1111538	-2.9275522	0.0	42.25	19.625	18.6875	1.7991489	-0.3119278	2.782335
1276793293012	-5.407278	-4.671779	-0.84446156	-2.6110063	0.0	42.5	20.875	16.1875	2.2994301	-0.1176284	2.2833507
1276793293052	-7.164303	-4.5628166	-2.8330324	-0.85273457	0.0	43.25	21.375	13.5	1.1436487	-0.32193372	2.1378944
1276793293092	-6.3607025	-5.134871	-1.8387469	-1.4277229	0.0	44.0	21.875	11.0	1.5899489	-0.22124964	2.249961
1276793293132	-7.9679036	-5.202973	-3.214402	0.23779106	0.0	43.75	23.375	8.8125	0.5275342	-0.32574847	2.1492717
1276793293172	-7.1234417	-6.428804	-2.982856	0.24175167	0.0	43.75	25.0625	6.125	0.88408804	-0.301391	2.3049831
1276793293202	-9.466142	-3.636633	-2.7513103	0.7006159	0.0	43.0	26.5625	4.875	-0.84614897	-0.2649369	1.9375844
1276793293242	-9.534244	-5.7477865	-1.4573772	1.4211187	0.0	42.5	27.8125	3.625	-0.55985373	-0.13016842	2.113314
1276793293282	-6.3198414	-10.310603	2.152015	2.476676	0.0	42.75	28.0625	2.625	2.027025	0.17610694	2.5917084
1276793293312	-5.243834	-12.598822	3.636633	4.316139	0.0	43.25	27.8125	2.875	2.0080712	0.26043513	2.7471855
1276793293352	-3.405087	-14.015338	1.1849703	4.6649942	0.0	43.75	26.0625	4.125	1.7617992	0.08197399	2.9032562
1276793293392	-5.134871	-14.015338	-1.3075534	5.1768847	0.0	45.0	23.875	5.875	1.6454324	-0.08737715	2.7904048
1276793293432	-10.528529	-6.3607025	-2.1383946	2.6785898	0.0	46.25	20.875	7.3125	1.3394934	-0.17212245	2.1142542
1276793293472	-10.501288	-1.7978859	-3.214402	1.3217745	0.0	46.9375	18.125	9.8125	-1.1168214	-0.29302132	1.7403586
1276793293512	-3.255263	-0.3405087	-1.6480621	-6.1421185	0.0	46.9375	16.1875	12.25	-0.80380833	-0.46646675	1.6750199
1276793293552	-0.42223078	-1.7570249	-1.334794	-7.560077	0.0	46.0	14.9375	15.4375	1.5078723	-0.6362044	2.9057546
1276793293592	-1.0351465	-4.4810944	-1.4165162	-4.994348	0.0	43.75	15.1875	19.875	1.8617254	-0.2987786	2.9145718
1276793293632	-0.9125633	-3.1054392	-7.082581	-2.019515	0.0	42.0	15.4375	22.625	1.1793166	-1.1421357	2.8557787
1276793293672	-7.8589406	-5.012288	-3.5276701	0.15981579	0.0	41.0	16.6875	24.0625	2.297601	-0.3617954	2.138534
1276793293712	-11.536434	-13.715691	-5.012288	8.803362	0.0	40.5	17.1875	23.8125	2.1262114	-0.27270022	2.4422812
1276793293752	-7.082581	-7.9270425	-8.19945	3.6183987	0.0	40.5	17.4375	23.8125	1.279714	-0.65701693	2.4123967
1276793293792	-11.536434	-15.322891	-4.2495484	9.838678	0.0	40.25	17.1875	24.3125	2.1894035	-0.21803692	2.4962451
1276793293822	-4.7535014	-7.5865335	-1.0760075	-0.7894964	0.0	40.5	16.9375	24.5625	2.2418423	-0.11961397	2.5818644
1276793293852	-1.334794	-4.903325	0.7218784	-4.673875	0.0	40.5	16.4375	24.8125	2.253975	0.14110878	2.8758106
1276793293892	-3.9090397	-4.5900574	1.4573772	-3.6039758	0.0	41.0	16.6875	24.0625	2.5828335	0.23717688	2.436152
1276793293932	-6.2108784	-7.504812	0.38136974	-0.057668686	0.0	41.5	17.875	22.375	2.4314744	0.039128914	2.4502559
1276793293972	-2.7921712	-9.724928	-1.1441092	0.375659	0.0	41.75	18.625	19.625	2.0042858	-0.112600245	2.8619986
1276793294012	-2.2201166	-6.0882955	-1.4982382	-3.155261	0.0	42.25	20.875	17.1875	1.8425547	-0.2272016	2.7919238
1276793294052	-5.6660647	-4.5219555	-0.6537767	-2.5279279	0.0	42.75	21.375	14.5	2.3701923	-0.08994147	2.2443635
1276793294092	-8.662541	-4.399372	-3.445948	0.5020189	0.0	43.75	21.625	11.0	0.08883675	-0.3408377	2.0407133
1276793294132	-6.782933	-5.407278	-1.56634	-0.9918747	0.0	44.0	22.375	9.0625	1.6036305	-0.1786435	2.2438207
1276793294172	-7.8861814	-5.053149	-3.568531	0.21635246	0.0	44.0	22.625	7.0625	0.4050129	-0.36402047	2.1406484
1276793294212	-6.891896	-4.9850473	-3.255263	-0.6991987	0.0	43.25	24.375	5.125	0.4109692	-0.36551312	2.1970026
1276793294252	-8.921328	-3.336985	-2.982856	0.17448139	0.0	42.25	26.3125	4.125	-0.7462951	-0.3034868	1.9287302
1276793294292	-9.084772	-7.04172	-1.0760075	1.7379017	0.0	41.75	27.5625	2.875	1.1304857	-0.09334026	2.2301767
1276793294332	-6.0474343	-11.536434	3.0645783	3.5743961	0.0	41.25	28.0625	1.4375	2.0250366	0.23107472	2.6587706
1276793294372	-4.3312707	-13.756551	3.336985	4.996662	0.0	41.75	27.8125	1.1875	1.8774118	0.22737567	2.836567
1276793294412	-3.1054392	-15.785983	-0.19068487	6.283016	0.0	42.5	26.0625	2.375	1.6245905	-0.011851665	2.9473517
1276793294452	-6.6331096	-9.915613	-0.50395286	2.1336803	0.0	44.0	23.625	3.875	1.656363	-0.04221848	2.5520067
1276793294492	-11.413852	-3.214402	-3.336985	2.5117855	0.0	45.75	20.875	6.125	-0.7936088	-0.2743212	1.8453093
1276793294532	-7.9679036	-1.8387469	-2.1383946	-1.3543596	0.0	46.9375	18.375	8.8125	-1.0629679	-0.25577563	1.7975951
1276793294572	-1.6889231	-1.4573772	-1.4982382	-7.1194344	0.0	46.6875	17.1875	11.5	0.81686	-0.59142315	2.282734
1276793294612	-1.2666923	-2.6832085	-1.7570249	-6.35828	0.0	46.25	16.6875	15.1875	1.4367089	-0.5346307	2.7005284
1276793294652	-1.7297841	-4.0588636	-4.2086873	-3.7091446	0.0	44.5	16.6875	19.125	1.3203304	-0.7618083	2.7387276
1276793294692	-2.7513103	-3.8273177	-6.2108784	-2.0096583	0.0	43.25	16.6875	21.375	0.9543668	-0.92160624	2.5183198
1276793294732	-9.00305	-6.428804	-3.5957718	1.8258047	0.0	42.25	17.1875	21.875	2.1617012	-0.3142628	2.1909027
1276793294772	-8.730643	-14.628253	-5.47538	8.087194	0.0	41.25	17.875	21.375	1.9072397	-0.31098062	2.6035042
1276793294812	-7.3549876	-8.076866	-7.7363577	3.5792694	0.0	41.0	18.125	21.625	1.2483084	-0.6162112	2.4029388
1276793294852	-10.7192135	-13.102775	-3.718355	7.5257015	0.0	40.25	18.125	21.875	2.1506903	-0.21621329	2.4559197
1276793294892	-4.0180025	-5.175732	-0.7218784	-3.2147117	0.0	40.75	17.6875	22.125	2.2638721	-0.109729335	2.481461
1276793294932	-3.568531	-4.5219555	0.6946377	-4.004494	0.0	41.25	17.1875	22.125	2.4572785	0.12000847	2.4734986
1276793294972	-6.3198414	-6.428804	0.27240697	-0.78755283	0.0	41.5	17.875	21.125	2.4901516	0.030207943	2.3647413
1276793295012	-2.8330324	-9.112013	-0.46309182	-0.25315285	0.0	42.75	19.375	18.875	2.0300014	-0.04849254	2.8401554
1276793295052	-2.3426998	-6.428804	-2.0294318	-2.6696787	0.0	43.75	20.625	16.9375	1.7585626	-0.28833336	2.7921414
1276793295092	-3.759216	-5.47538	-0.7627395	-3.121348	0.0	44.0	22.125	14.6875	1.9574178	-0.114340976	2.539939
1276793295132	-7.3141265	-5.407278	-2.4516625	-0.38615417	0.0	45.0	23.125	11.25	1.3150723	-0.26327875	2.2074091
1276793295172	-7.6546354	-5.9793324	-1.7570249	0.064165115	0.0	45.0	23.625	8.8125	1.5455406	-0.17895564	2.2339303
1276793295212	-6.932757	-5.053149	-2.6423476	-0.83004475	0.0	44.5	24.375	6.5625	0.65158707	-0.29878506	2.200643
1276793295252	-6.5922484	-4.671779	-3.214402	-1.1109247	0.0	44.0	25.3125	4.375	0.3166281	-0.37863564	2.1873226
1276793295292	-8.580819	-4.2086873	-2.4925237	0.0704031	0.0	43.0	26.8125	2.875	-0.47702017	-0.25511324	2.0267959
1276793295323	-9.275456	-6.891896	-1.8387469	1.8943462	0.0	42.25	28.3125	1.1875	0.34826708	-0.15779853	2.2098184
1276793295362	-8.049625	-9.00305	-0.61291564	2.2857876	0.0	41.75	29.8125	-0.3125	1.3228207	-0.05070759	2.412047
1276793295402	-5.597963	-10.651112	2.5333846	2.489747	0.0	42.0	30.3125	-1.0625	1.9242698	0.20751268	2.6576946
1276793295442	-4.3312707	-11.645397	1.920469	2.7656755	0.0	42.75	29.0625	-1.0625	1.748845	0.15335406	2.7855163
1276793295482	-5.597963	-15.745122	-0.46309182	6.9104214	0.0	44.0	27.0625	0.9375	1.5653155	-0.027705276	2.7999942
1276793295522	-7.7772183	-10.95076	-0.10896278	3.6252575	0.0	45.5	24.125	2.875	1.6785445	-0.008112324	2.5240545
1276793295562	-9.534244	-2.3699405	-2.2201166	0.2654562	0.0	46.9375	21.375	5.625	-1.0274282	-0.22224736	1.81443
1276793295602	-4.7126403	-0.7627395	-2.6014864	-4.369879	0.0	47.1875	19.125	9.3125	-0.6293671	-0.49894384	1.7312546
1276793295642	-2.1111538	-2.3426998	-1.8387469	-6.156143	0.0	46.6875	18.125	13.25	1.1141288	-0.5278722	2.4081354
1276793295682	-1.1441092	-5.407278	-2.4108016	-3.7767572	0.0	46.0	17.1875	17.4375	1.701621	-0.41130775	2.9330812
1276793295722	-2.6014864	-2.4108016	-6.0474343	-2.7958617	0.0	44.75	17.1875	20.375	0.5652068	-1.0403666	2.3181694
1276793295762	-4.5628166	-1.1849703	-4.7943625	-3.0828595	0.0	43.5	17.4375	21.875	-0.32208797	-0.79383117	1.8248848
1276793295802	-9.724928	-9.765789	-4.0588636	4.560647	0.0	43.0	17.6875	21.375	2.0072937	-0.28640667	2.358291
1276793295842	-8.580819	-13.211738	-6.891896	7.3886604	0.0	42.5	18.375	20.875	1.713017	-0.41239086	2.56558
1276793295882	-9.275456	-10.61025	-7.205164	6.0213594	0.0	41.75	18.125	21.625	1.5981752	-0.47261482	2.4232173
1276793295922	-8.499097	-10.501288	-2.3699405	3.909338	0.0	42.25	18.125	21.875	2.1660724	-0.17365825	2.4611833
1276793295962	-2.9147544	-3.636633	0.10896278	-5.144809	0.0	42.25	17.875	22.625	2.3952916	0.023375463	2.4659388
1276793296002	-5.366417	-4.1814466	0.61291564	-2.9759407	0.0	42.5	17.875	22.375	2.7125387	0.08985028	2.2327175
1276793296042	-6.510526	-8.662541	-0.6946377	1.0519457	0.0	42.5	19.125	20.875	2.2518404	-0.06401494	2.497086
1276793296082	-1.607201	-8.499097	-0.6946377	-1.1290779	0.0	42.0	20.625	18.6875	1.9832555	-0.08013552	2.9546971
1276793296122	-1.6889231	-5.243834	-1.4982382	-4.0974493	0.0	42.0	21.625	16.6875	1.7869295	-0.26553464	2.830006
1276793296162	-4.4810944	-6.469665	-0.88532263	-1.8870182	0.0	42.0	23.125	14.0	1.9740896	-0.112022504	2.535829
1276793296202	-8.117727	-4.862464	-3.173541	0.1739521	0.0	43.0	23.875	11.25	0.31438702	-0.32358855	2.1104753
1276793296242	-7.273266	-3.8273177	-2.1111538	-1.3210316	0.0	44.25	24.375	8.8125	-0.2348496	-0.2514328	2.055197
1276793296282	-7.246025	-4.7535014	-2.8738933	-0.67648506	0.0	44.25	25.5625	6.125	0.2756582	-0.32021332	2.1513884
1276793296322	-7.3141265	-7.4639506	-2.7240696	0.992774	0.0	44.0	27.0625	4.375	0.978016	-0.2549966	2.3663323
1276793296353	-9.152874	-4.2904096	-1.9885708	0.4956379	0.0	43.0	28.5625	2.875	-0.8247876	-0.19424139	2.0091329
1276793296412	-7.7772183	-9.466142	-0.08172209	2.4448662	0.0	42.25	30.0625	2.125	1.7021118	-0.0066704145	2.4538293
1276793296452	-5.8976107	-10.800936	2.7921712	2.812313	0.0	42.5	30.8125	2.125	2.0793684	0.22311439	2.6418042
1276793296492	-3.8681788	-12.217452	2.5606253	3.2618523	0.0	43.0	29.8125	2.375	1.8862284	0.1972146	2.834967
1276793296532	-3.636633	-15.826844	-1.3756552	6.4907894	0.0	44.0	27.8125	4.125	1.597814	-0.08450984	2.9157367
1276793296572	-7.246025	-10.18802	-0.53119355	2.7066545	0.0	45.25	24.875	5.625	1.7317485	-0.04246306	2.5233696
1276793296612	-11.645397	-2.7240696	-3.0645783	2.5395012	0.0	46.4375	21.625	7.0625	-1.0796613	-0.2508437	1.8005828
1276793296652	-6.238119	-0.95342433	-2.1792557	-3.1304007	0.0	46.6875	19.125	10.0625	-1.069369	-0.33251277	1.7224611
1276793296692	-1.6889231	-1.7570249	-1.4165162	-6.9877644	0.0	46.6875	17.6875	12.5	1.0647959	-0.5264987	2.3759546
1276793296732	-1.2258313	-4.440233	-1.0760075	-5.076309	0.0	45.5	17.4375	16.1875	1.8008583	-0.22947809	2.8722286
1276793296772	-1.1441092	-4.372132	-4.0588636	-3.732204	0.0	44.0	17.6875	19.625	1.4590118	-0.7317687	2.8856494
1276793296812	-2.7240696	-4.2904096	-6.5922484	-1.4828339	0.0	42.75	18.375	21.375	0.98574275	-0.9140358	2.5758913
1276793296852	-9.275456	-7.082581	-4.0588636	2.5493784	0.0	42.5	18.875	22.125	2.0809562	-0.33470714	2.222934
1276793296892	-8.62168	-11.182305	-6.1291566	5.5863314	0.0	42.25	19.375	21.625	1.7291995	-0.40953046	2.4847796
1276793296932	-6.891896	-4.903325	-8.158588	1.9450903	0.0	42.25	18.875	21.125	0.5099997	-0.7673706	2.189174
1276793296972	-12.299174	-15.785983	-2.3426998	10.341681	0.0	42.5	18.375	21.625	2.2166417	-0.116536245	2.4797137
1276793297012	-3.0237172	-6.510526	-0.7627395	-2.5878143	0.0	42.5	18.125	21.375	2.0890517	-0.10585721	2.7067995
1276793297052	-4.0588636	-3.8273177	0.6946377	-4.184795	0.0	42.75	17.6875	21.875	2.5949411	0.12387681	2.326842
1276793297092	-5.8976107	-7.4639506	0.6537767	-0.2714634	0.0	42.5	19.125	21.375	2.4146268	0.068618484	2.4728892
1276793297132	-2.4108016	-11.495573	-0.61291564	1.9549751	0.0	43.25	20.625	18.875	1.9978268	-0.052135088	2.9348729
1276793297172	-1.56634	-6.1291566	-1.1849703	-3.3704915	0.0	44.0	21.375	16.9375	1.8530897	-0.18516773	2.891392
1276793297212	-4.4810944	-5.053149	-0.10896278	-3.051919	0.0	44.75	22.625	14.5	2.2106	-0.016132027	2.4161227
1276793297252	-8.390134	-5.47538	-2.8330324	0.6048918	0.0	46.0	22.875	11.0	1.0668927	-0.27557987	2.1489954
1276793297292	-7.5456724	-4.7943625	-2.070293	-0.6300936	0.0	46.4375	23.375	8.3125	0.9665097	-0.22756578	2.1368244
1276793297332	-8.580819	-4.4810944	-2.9147544	0.30307102	0.0	45.75	24.625	5.375	-0.06602011	-0.29246357	2.0520632
1276793297372	-7.4639506	-5.325556	-2.8738933	-0.19772911	0.0	45.25	26.0625	2.125	0.35860664	-0.3037346	2.1905277
1276793297412	-8.19945	-3.9499009	-2.6832085	-0.31811523	0.0	44.0	27.5625	0.9375	-0.3966699	-0.28669563	2.0197194
1276793297442	-8.049625	-6.0474343	-1.8387469	0.4280424	0.0	43.25	29.0625	-0.0625	0.28356287	-0.18063904	2.215109
1276793297472	-6.4015636	-9.084772	-0.14982383	1.3080044	0.0	43.0	30.0625	-0.8125	1.4881334	-0.0134802535	2.5277543
1276793297502	-5.5571017	-10.760075	1.9885708	2.4658794	0.0	43.25	29.5625	-1.0625	1.823625	0.16275185	2.6648674
1276793297542	-4.944186	-11.114203	2.4108016	2.5942554	0.0	44.0	28.8125	-1.0625	1.8299136	0.19565113	2.7230272
1276793297582	-4.5900574	-16.167353	-1.2258313	7.044302	0.0	45.0	26.8125	0.1875	1.4990914	-0.07280983	2.8649628
1276793297622	-7.8861814	-12.176591	-1.0760075	4.7404804	0.0	46.4375	23.875	2.125	1.5235114	-0.07403461	2.5668705
1276793297692	-8.921328	-1.3075534	-1.879608	-0.5961828	0.0	47.6875	21.125	4.125	-1.1525886	-0.20551673	1.716325
1276793297732	-3.336985	-0.95342433	-1.4573772	-6.042552	0.0	48.4375	18.625	8.3125	-0.35668188	-0.39756927	1.849096
1276793297772	-1.607201	-2.4925237	-2.2609777	-6.0773354	0.0	47.9375	17.4375	12.5	1.1261383	-0.6513639	2.5688756
1276793297812	-1.9885708	-5.09401	-3.5276701	-3.299131	0.0	46.6875	17.4375	16.4375	1.4583168	-0.5729239	2.7694118
1276793297855	-2.3018389	-4.2086873	-5.175732	-2.7497592	0.0	45.5	17.875	19.875	1.1505789	-0.8233535	2.6411128
1276793297892	-5.8158884	-4.903325	-4.099725	-1.1651859	0.0	44.5	18.375	20.625	1.3293512	-0.49431047	2.2712657
1276793297932	-8.539958	-10.882658	-3.9090397	4.5684576	0.0	44.25	19.125	19.625	1.8806652	-0.27539924	2.4762318
1276793297972	-7.4639506	-9.343558	-8.008764	4.5861588	0.0	44.5	19.375	18.875	1.2239969	-0.5900975	2.4675632
1276793298012	-11.563675	-14.09706	-6.1291566	9.429052	0.0	44.25	19.375	19.375	1.7797865	-0.32428846	2.4546018
1276793298052	-6.2789803	-8.117727	-1.879608	0.6267586	0.0	44.0	19.125	19.875	2.0490003	-0.18114181	2.4832268
1276793298092	-2.8330324	-2.5606253	0.27240697	-5.9781933	0.0	44.0	18.375	21.125	2.562447	0.07121339	2.3057323
1276793298132	-5.7477865	-5.202973	1.334794	-1.9396529	0.0	43.5	18.375	21.375	2.6434803	0.17049488	2.3064842
1276793298172	-3.8273177	-10.7192135	0.040861044	1.5754213	0.0	43.5	19.625	20.375	2.108495	0.0035899556	2.7986493
1276793298212	-2.0294318	-9.466142	-1.879608	0.055365562	0.0	44.5	21.125	18.875	1.8876269	-0.19176379	2.930401
1276793298252	-3.0237172	-4.630918	-1.607201	-4.0471916	0.0	45.0	21.875	16.1875	1.7086362	-0.28280905	2.5631526
1276793298292	-6.891896	-5.366417	-1.920469	-0.863224	0.0	46.25	22.625	13.25	1.7688549	-0.21642077	2.2323866
1276793298332	-8.076866	-3.8681788	-3.5276701	-0.18152523	0.0	46.9375	22.625	10.0625	-0.013493961	-0.37525138	2.0174387
1276793298372	-7.014479	-4.1814466	-2.6832085	-1.2108936	0.0	46.4375	22.875	6.8125	0.40486574	-0.31746054	2.1083555
1276793298412	-6.851035	-5.366417	-3.1054392	-0.5665817	0.0	46.0	24.625	4.625	0.60745883	-0.34275594	2.2352712
1276793298452	-6.428804	-6.973618	-2.4516625	-0.010144234	0.0	45.25	26.5625	2.625	0.9898765	-0.25294763	2.3968225
1276793298492	-8.62168	-4.3312707	-2.1111538	0.07010269	0.0	44.25	28.0625	0.9375	-0.47124922	-0.21541187	2.0363379
1276793298532	-9.084772	-8.158588	-1.4982382	2.4953966	0.0	43.5	29.5625	-0.0625	0.8343885	-0.12209081	2.3025336
1276793298572	-5.8158884	-10.651112	2.2609777	2.537691	0.0	43.5	29.3125	-0.8125	1.880865	0.1841989	2.641798
1276793298612	-4.1814466	-10.147159	2.3699405	1.4212589	0.0	43.75	28.3125	-1.0625	1.8343856	0.21267548	2.7507155
1276793298652	-3.8681788	-13.756551	-0.9942854	4.517948	0.0	45.25	26.8125	0.4375	1.510122	-0.06946691	2.8674824
1276793298692	-7.205164	-13.143636	-0.9125633	5.210085	0.0	47.1875	24.125	1.6875	1.5379139	-0.06080722	2.640143
1276793298732	-11.304889	-4.7943625	-4.099725	3.1391659	0.0	48.1875	21.875	2.875	-0.0941588	-0.32223085	1.9719014
1276793298772	-8.308413	-1.7297841	-1.607201	-1.1692343	0.0	49.1875	19.875	5.375	-1.1314371	-0.18716513	1.7760608
1276793298812	-3.1463003	-0.38136974	-1.56634	-6.2713895	0.0	48.9375	18.625	8.3125	-0.69654536	-0.45901144	1.69142
1276793298855	-1.879608	-2.1383946	-2.2609777	-6.1710377	0.0	47.6875	18.125	12.25	0.9123385	-0.67116326	2.4205124
1276793298892	-1.607201	-4.140586	-3.486809	-4.159936	0.0	46.4375	18.125	16.6875	1.3645855	-0.665552	2.7713366
1276793298922	-1.1441092	-4.2904096	-5.8567495	-2.4569488	0.0	44.75	18.375	19.875	1.2846512	-0.92209506	2.8809903
1276793298972	-6.1291566	-6.1291566	-3.445948	-0.4788599	0.0	43.75	18.625	21.125	1.7564461	-0.37839353	2.3561945
1276793299012	-8.771504	-12.408136	-5.284695	6.281519	0.0	43.5	19.375	20.625	1.8138835	-0.33469734	2.5262403
1276793299052	-8.308413	-10.147159	-7.7772183	5.440634	0.0	43.75	19.875	20.375	1.3641828	-0.5352689	2.4554977
1276793299102	-10.651112	-13.525005	-5.134871	8.158283	0.0	44.0	19.375	20.875	1.9062557	-0.28986976	2.4745126
1276793299132	-2.6014864	-2.3426998	-1.9885708	-5.7804375	0.0	44.25	19.125	21.125	1.3049425	-0.5165763	2.3039007
1276793299172	-3.718355	-3.9771416	0.84446156	-4.2969375	0.0	44.5	19.125	21.625	2.5374074	0.15387431	2.38981
1276793299213	-7.5456724	-7.246025	0.5720546	0.670434	0.0	44.25	19.375	20.625	2.5157356	0.05462772	2.3359394
1276793299252	-1.7297841	-9.847511	-0.3405087	0.19742775	0.0	44.25	21.375	18.875	1.9923738	-0.034043565	2.9677095
1276793299292	-0.9125633	-7.7772183	-1.9885708	-1.7275219	0.0	44.5	22.375	16.6875	1.7937189	-0.24869241	3.0247889
1276793299332	-4.0180025	-4.7126403	-0.88532263	-3.5506835	0.0	44.5	23.125	13.75	1.9278584	-0.14199318	2.4355905
1276793299372	-8.499097	-5.284695	-2.7240696	0.5655823	0.0	45.25	24.125	11.0	0.87861305	-0.26574787	2.1270876
1276793299412	-7.8589406	-3.1054392	-3.445948	-0.68079376	0.0	46.0	23.875	7.5625	-0.40200529	-0.38720596	1.9471123
1276793299452	-7.205164	-4.0180025	-2.2201166	-1.2633696	0.0	45.75	25.5625	4.875	-0.004875028	-0.26288447	2.0794985
1276793299492	-7.164303	-7.8180795	-2.9147544	1.1908674	0.0	45.25	27.5625	2.875	0.9421596	-0.26824278	2.3998032
1276793299532	-8.499097	-5.6660647	-2.3018389	0.66413784	0.0	44.0	28.8125	0.6875	0.039769847	-0.22164465	2.158799
1276793299572	-8.430995	-5.012288	-1.3756552	0.09774971	0.0	43.25	30.0625	-0.5625	-0.4443163	-0.13934383	2.1071672
1276793299612	-6.2108784	-10.528529	0.6946377	2.4370203	0.0	43.25	30.3125	-1.8125	1.6128036	0.05676491	2.6086257
1276793299652	-5.134871	-11.304889	1.879608	2.7512293	0.0	43.75	29.3125	-1.8125	1.7461827	0.15024017	2.7152376
1276793299692	-3.1463003	-12.789507	-0.5720546	3.3765936	0.0	45.25	28.0625	-0.8125	1.504741	-0.043406185	2.9003763
1276793299744	-6.1291566	-14.056199	-1.334794	5.585717	0.0	46.6875	25.8125	0.6875	1.4791424	-0.08682697	2.730403
1276793299782	-11.727119	-6.1700177	-4.140586	4.076394	0.0	48.1875	23.125	2.125	0.14089331	-0.30285627	2.0551307
1276793299833	-8.076866	-2.7921712	-1.6889231	-1.0954819	0.0	49.1875	21.375	4.125	-0.5789016	-0.19511586	1.9036351
1276793299872	-1.920469	-0.42223078	-1.4982382	-7.334566	0.0	48.9375	19.125	8.3125	-0.31772745	-0.65110147	1.7872113
1276793299902	-1.0760075	-2.5333846	-1.7570249	-6.54123	0.0	47.6875	18.875	12.25	1.3277546	-0.5681459	2.7399497
1276793299933	-1.0760075	-4.440233	-3.2961242	-4.1730103	0.0	46.4375	18.625	16.9375	1.4911147	-0.6249774	2.9038446
1276793299972	-1.2666923	-4.2904096	-5.8976107	-2.404358	0.0	45.25	18.875	20.375	1.2577469	-0.9218609	2.8545103
1276793300012	-6.1291566	-5.5571017	-4.5219555	-0.37818146	0.0	44.75	20.125	20.875	1.308586	-0.5002063	2.3072824
1276793300052	-9.915613	-13.1708765	-5.134871	7.4606113	0.0	44.5	20.125	20.875	1.8683488	-0.30194324	2.496274
1276793300092	-6.701211	-11.141444	-7.4639506	5.184966	0.0	44.25	20.375	20.125	1.4764395	-0.5211467	2.6000953
1276793300132	-10.528529	-13.565866	-5.5162406	8.229746	0.0	44.5	19.875	20.625	1.8461838	-0.31081995	2.481593
1276793300172	-2.3426998	-2.2201166	-2.5606253	-5.6867037	0.0	44.75	19.125	20.625	0.9452763	-0.67068034	2.3293352
1276793300212	-4.9850473	-3.7864566	0.8036005	-3.4952536	0.0	45.5	18.875	20.625	2.7014859	0.12767187	2.2203896
1276793300252	-9.275456	-9.956474	0.42223078	3.8074512	0.0	45.5	19.625	20.875	2.4120214	0.031019196	2.3915906
1276793300292	-1.2258313	-9.384419	-1.0351465	-0.28606606	0.0	45.0	21.125	19.375	1.9429394	-0.10894257	3.011704
1276793300322	0.10896278	-6.2789803	-1.7297841	-3.292848	0.0	45.0	22.875	17.4375	1.8074124	-0.26878136	-3.1242409
1276793300362	-3.255263	-4.7943625	-1.1849703	-3.8916855	0.0	45.25	24.625	14.9375	1.7981652	-0.20169912	2.5451157
1276793300402	-6.932757	-6.2789803	-1.7978859	-0.281888	0.0	45.75	25.3125	11.5	1.7108834	-0.18989842	2.3067503
1276793300442	-6.3198414	-3.9499009	-2.8738933	-1.8190737	0.0	46.25	25.5625	7.5625	0.23335476	-0.36804858	2.1293957
1276793300482	-8.158588	-4.2086873	-1.879608	-0.43602943	0.0	46.25	26.5625	4.625	-0.3721525	-0.20195524	2.047051
1276793300522	-7.04172	-5.053149	-3.6774938	-0.39155102	0.0	45.0	28.0625	2.375	0.18380494	-0.40127823	2.193238
1276793300552	-6.701211	-5.8976107	-2.7513103	-0.4654646	0.0	44.0	29.8125	0.9375	0.42875937	-0.2989694	2.292497
1276793300592	-9.043911	-3.636633	-2.5333846	0.26486683	0.0	43.75	31.0625	0.4375	-0.7772958	-0.2542706	1.953119
1276793300632	-9.193735	-6.238119	-1.4982382	1.4042206	0.0	43.0	31.5625	-0.0625	-0.26817894	-0.13404259	2.1669593
1276793300672	-5.6252036	-12.026767	1.1441092	3.5198278	0.0	43.75	31.5625	-1.0625	1.6840776	0.085958146	2.7040977
1276793300712	-5.012288	-11.182305	2.1111538	2.6281385	0.0	45.0	30.8125	-1.3125	1.7988412	0.17060441	2.7202084
1276793300752	-4.903325	-15.976667	-1.607201	6.9826202	0.0	46.4375	29.5625	0.1875	1.464175	-0.095874675	2.8438127
1276793300792	-6.932757	-13.252599	-0.040861044	5.149825	0.0	48.1875	27.0625	1.4375	1.6142448	-0.0027320005	2.6596172
1276793300832	-9.888372	-2.7921712	-2.070293	0.6748686	0.0	49.1875	24.625	3.875	-0.983804	-0.1988258	1.8460006
1276793300872	-7.246025	-0.46309182	-3.1463003	-1.8934627	0.0	50.1875	21.875	6.8125	-0.9189059	-0.40890205	1.6346194
1276793300912	-2.1383946	-2.1383946	-0.95342433	-6.63577	0.0	50.1875	19.875	9.5625	1.3075614	-0.30540693	2.3561945
1276793300952	-0.6946377	-3.759216	-0.95342433	-5.8666954	0.0	49.6875	19.625	14.0	1.7182821	-0.24441488	2.9588711
1276793300992	-2.2609777	-4.099725	-3.8681788	-3.7335477	0.0	48.4375	19.375	17.4375	1.2155975	-0.6905175	2.6376023
1276793301032	-3.0237172	-4.630918	-7.4639506	-0.51693344	0.0	46.6875	20.125	20.125	0.9049219	-0.93309057	2.5631526
1276793301072	-7.3958488	-8.008764	-3.3642259	1.6019821	0.0	45.75	20.875	20.625	1.8715796	-0.2993344	2.3959613
1276793301112	-7.164303	-11.75436	-5.5571017	5.038336	0.0	45.25	21.625	20.125	1.677513	-0.3836871	2.5942159
1276793301152	-10.147159	-11.454713	-7.246025	7.124981	0.0	45.25	21.625	20.625	1.5131394	-0.4422321	2.4166505
1276793301192	-9.534244	-12.176591	-2.7240696	5.8965893	0.0	45.25	20.875	21.375	2.1016428	-0.17435385	2.4773052
1276793301232	-2.4516625	-3.173541	0.23154591	-5.789733	0.0	45.5	20.125	21.875	2.3698556	0.05767466	2.4838262
1276793301272	-5.5162406	-4.7943625	1.9885708	-2.2324018	0.0	45.0	19.625	22.625	2.7346978	0.2656574	2.2862954
1276793301312	-4.140586	-10.528529	-0.14982383	1.507802	0.0	45.25	20.625	21.875	2.1251888	-0.013242197	2.7668989
1276793301352	-1.9885708	-9.765789	-1.3756552	0.25403976	0.0	45.75	22.125	19.125	1.9203587	-0.13716538	2.9407127
1276793301392	-2.4516625	-4.7535014	-1.3075534	-4.3006425	0.0	46.0	23.375	16.4375	1.7679622	-0.23976833	2.6654172
1276793301432	-6.5922484	-4.7943625	-1.56634	-1.5062246	0.0	46.9375	24.625	13.0	1.9279037	-0.1898443	2.1995926
1276793301472	-7.3958488	-3.8681788	-3.1054392	-0.9013071	0.0	47.6875	25.0625	9.3125	-0.010657061	-0.35620117	2.05269
1276793301502	-6.66035	-3.718355	-2.9147544	-1.6407318	0.0	47.9375	26.3125	6.125	0.028480371	-0.36499155	2.079976
1276793301542	-7.4639506	-5.243834	-3.486809	-0.041088104	0.0	47.4375	28.0625	3.625	0.25940543	-0.36510947	2.183235
1276793301582	-6.851035	-6.932757	-2.8738933	0.35499668	0.0	46.9375	29.5625	1.6875	0.7453407	-0.28673044	2.3621233
1276793301622	-8.771504	-3.5957718	-3.0237172	0.14381409	0.0	46.0	31.5625	-0.0625	-0.61531276	-0.30875945	1.9598404
1276793301662	-9.275456	-6.469665	-1.334794	1.5807257	0.0	45.0	32.5	-1.3125	-0.11630065	-0.117487095	2.1798449
1276793301702	-5.407278	-12.176591	2.1111538	3.6827898	0.0	45.0	33.0	-2.0625	1.7680037	0.15715022	2.7236798
1276793301742	-5.434519	-12.789507	3.568531	4.540472	0.0	45.5	32.5	-2.25	1.8914473	0.25136676	2.7397897
1276793301782	-3.9499009	-16.698545	-1.7978859	7.4466267	0.0	46.4375	30.0625	-0.8125	1.4416401	-0.104394995	2.9093204
1276793301822	-6.701211	-11.114203	-0.61291564	3.1859407	0.0	48.4375	27.3125	1.1875	1.5307466	-0.047191758	2.5990133
1276793301862	-10.923519	-2.9147544	-2.6832085	1.8131037	0.0	50.4375	24.625	3.875	-0.87836015	-0.23302092	1.8315539
1276793301902	-7.4639506	-1.4982382	-2.4925237	-1.7961597	0.0	51.4375	21.875	7.0625	-0.83176464	-0.3164107	1.7688936
1276793301942	-1.9477097	-1.7570249	-0.7218784	-7.086022	0.0	51.9375	20.375	10.5	1.3832959	-0.26855153	2.3047693
1276793301982	-0.10896278	-3.405087	-1.1441092	-6.212839	0.0	51.1875	19.625	15.4375	1.7252656	-0.32399416	3.1096036
1276793302023	-1.56634	-4.630918	-3.5276701	-3.7781115	0.0	49.4375	19.125	19.125	1.4640533	-0.6250795	2.8154368
1276793302062	-3.214402	-3.6774938	-6.6331096	-1.5692673	0.0	47.9375	19.375	21.875	0.76776993	-0.9360881	2.4232874
1276793302102	-8.349273	-8.049625	-3.445948	2.2921677	0.0	47.1875	20.125	22.375	1.9741771	-0.28881544	2.3379242
1276793302142	-7.7363577	-12.912089	-5.7477865	6.3057766	0.0	46.9375	20.875	21.875	1.7530137	-0.3647653	2.6017938
1276793302182	-6.0474343	-6.1700177	-7.3958488	1.5660877	0.0	46.6875	20.875	21.875	0.9177375	-0.7079975	2.3662276
1276793302222	-11.563675	-14.628253	-3.173541	9.108309	0.0	46.6875	20.625	22.375	2.1168778	-0.16857673	2.4726696
1276793302262	-3.3642259	-6.428804	-0.53119355	-2.5313697	0.0	46.4375	20.125	23.5625	2.1460001	-0.073078506	2.6594753
1276793302302	-5.47538	-4.440233	1.1168685	-2.6692238	0.0	46.25	18.875	24.3125	2.7108872	0.15712631	2.2521756
1276793302342	-4.7535014	-8.308413	-0.38136974	-0.22693539	0.0	46.25	19.625	23.8125	2.2015963	-0.039820656	2.621917
1276793302382	-1.6480621	-10.501288	-0.84446156	0.85666466	0.0	46.25	20.375	21.625	1.9986417	-0.07927617	2.9859233
1276793302422	-2.1792557	-6.3607025	-1.4165162	-2.93539	0.0	46.9375	22.125	18.875	1.8585209	-0.20763968	2.8115144
1276793302462	-5.09401	-5.053149	-0.61291564	-2.6053367	0.0	47.4375	24.125	14.9375	2.1466744	-0.085214734	2.3521676
1276793302502	-7.9679036	-4.4810944	-3.568531	0.006713867	0.0	48.4375	24.875	11.75	0.22915581	-0.37217236	2.0831046
1276793302542	-5.706926	-4.903325	-2.0294318	-2.013692	0.0	49.6875	26.0625	8.5625	1.1286674	-0.26345584	2.2806005
1276793302582	-7.3141265	-4.5628166	-3.2961242	-0.5773392	0.0	48.6875	27.0625	5.375	0.18696219	-0.36520046	2.1285584
1276793302622	-7.5456724	-5.202973	-3.6774938	0.069182396	0.0	48.1875	28.8125	2.875	0.19714038	-0.38156465	2.1744614
1276793302662	-8.499097	-4.9850473	-2.4516625	0.3469696	0.0	47.1875	30.3125	0.6875	-0.17489733	-0.24386698	2.1012588
1276793302702	-8.430995	-8.19945	-1.1441092	2.00951	0.0	46.4375	31.8125	-0.5625	1.0160064	-0.09697775	2.3422723
1276793302742	-5.5571017	-12.217452	1.4165162	3.6897945	0.0	46.4375	32.25	-0.8125	1.7181064	0.10514841	2.7147133
1276793302812	-4.7126403	-13.293459	-0.8036005	4.320303	0.0	46.6875	30.8125	0.1875	1.5011292	-0.056914926	2.8009074
1276793302852	-7.273266	-15.472715	-0.8036005	7.309164	0.0	47.9375	28.0625	2.125	1.569931	-0.046968028	2.7021742
1276793302892	-9.997335	-4.7535014	-1.920469	1.4285936	0.0	48.6875	24.625	5.125	-0.3021845	-0.17177609	2.0146337
1276793302932	-8.62168	-0.46309182	-2.7240696	-0.75301075	0.0	50.1875	20.375	8.3125	-1.1700131	-0.30561647	1.6244572
1276793302972	-2.5333846	-1.0351465	-1.3075534	-6.7736216	0.0	50.6875	17.875	12.5	0.2177726	-0.44571695	1.9586964
1276793303012	-0.29964766	-3.3642259	-1.2666923	-6.1993914	0.0	49.6875	17.4375	16.6875	1.7356828	-0.35880002	3.0527582
1276793303052	-1.334794	-3.8681788	-1.7570249	-5.3533797	0.0	48.1875	16.9375	20.625	1.7301505	-0.40557492	2.8093162
1276793303092	-2.4108016	-3.0645783	-6.932757	-1.852612	0.0	46.0	17.6875	23.8125	0.7851064	-1.0584612	2.475035
1276793303132	-8.076866	-6.0882955	-2.9556155	0.73084354	0.0	45.0	18.375	25.3125	2.301043	-0.2843	2.2167213
1276793303172	-8.390134	-13.252599	-4.8216033	6.602907	0.0	44.5	18.625	25.0625	1.9907002	-0.29823017	2.5771945
1276793303212	-7.6273947	-6.4015636	-7.7772183	2.8283129	0.0	44.0	18.625	25.3125	1.0433731	-0.6630602	2.2690372
1276793303252	-12.980191	-14.982383	-3.486809	10.320818	0.0	44.0	18.125	26.3125	2.285285	-0.17411475	2.427675
1276793303292	-2.7240696	-6.3607025	-0.7218784	-2.849625	0.0	43.75	17.4375	26.0625	2.163694	-0.103949614	2.7369595
1276793303332	-4.1814466	-4.372132	-0.08172209	-3.7563019	0.0	43.25	16.9375	26.8125	2.5012956	-0.0135074165	2.3784838
1276793303372	-7.04172	-7.04172	0.7218784	0.17797565	0.0	43.25	17.4375	26.0625	2.5813472	0.072362125	2.3561945
1276793303412	-3.568531	-10.147159	-1.2258313	1.0193329	0.0	43.0	18.625	23.5625	2.0933833	-0.11347384	2.803424
1276793303452	-1.3075534	-6.5922484	-2.4925237	-2.638658	0.0	43.25	20.125	22.125	1.8479345	-0.35514858	2.945787
1276793303492	-3.8273177	-4.862464	-0.95342433	-3.5455852	0.0	43.75	20.875	19.375	2.0991597	-0.15287304	2.474758
1276793303532	-7.7363577	-5.175732	-2.5606253	-0.15283012	0.0	44.75	21.625	16.4375	1.9550296	-0.2684578	2.1604223
1276793303572	-5.5571017	-4.372132	-2.070293	-2.4389482	0.0	46.0	22.625	13.5	1.4648715	-0.2848315	2.2374148
1276793303612	-6.932757	-5.6252036	-2.2201166	-0.606925	0.0	45.75	24.125	10.0625	1.3301556	-0.24373019	2.252447
1276793303652	-6.932757	-7.43671	-2.5333846	0.67122173	0.0	45.25	25.8125	8.0625	1.3060077	-0.24420425	2.391251
