#timestamp	accel_x	accel_y	accel_z	accel_mag	temperature	mag_x	mag_y	mag_z	azimuth	pitch	roll
1276878081520	4.0588636	0.0	8.349273	-0.523077	0.0	-24.8125	1.75	-32.5	2.9289682	1.1183032	-1.5707964
1276878081557	4.140586	0.9942854	8.430995	-0.3612957	0.0	-23.5625	0.4375	-33.8125	2.2828457	1.1030965	-1.335127
1276878081590	4.0588636	1.0351465	8.430995	-0.3924284	0.0	-22.875	-0.5625	-34.5625	2.3035688	1.109687	-1.3210858
1276878081633	3.990762	1.0760075	8.240311	-0.5878277	0.0	-23.125	-1.0625	-34.8125	2.3147736	1.1058757	-1.3074344
1276878081670	4.099725	1.0760075	8.308413	-0.47952557	0.0	-22.875	-1.3125	-34.8125	2.315896	1.0990579	-1.3141268
1276878081710	4.2495484	0.95342433	8.281172	-0.4500761	0.0	-23.375	-1.0625	-34.5625	2.3829277	1.0866325	-1.350092
1276878081750	4.2495484	0.9942854	8.158588	-0.5540924	0.0	-23.5625	-1.625	-34.3125	2.4279199	1.0795927	-1.3409566
1276878081780	4.2904096	0.95342433	8.049625	-0.63533115	0.0	-23.5625	-1.3125	-33.8125	2.4062924	1.0710319	-1.3521274
1276878081820	4.399372	0.9942854	8.240311	-0.4127264	0.0	-24.3125	-1.3125	-33.8125	2.4393754	1.0699902	-1.3485243
1276878081860	4.399372	1.0760075	8.158588	-0.47526073	0.0	-24.3125	-1.875	-33.5625	2.4470732	1.0640259	-1.3309233
1276878081900	4.399372	1.0760075	8.076866	-0.54662704	0.0	-24.0625	-1.3125	-34.0625	2.3038075	1.0597426	-1.3309233
1276878081940	4.372132	0.9942854	8.158588	-0.4971552	0.0	-24.5625	-1.625	-34.0625	2.474093	1.0682788	-1.3471851
1276878081980	4.4810944	0.9942854	8.240311	-0.37417793	0.0	-24.5625	-1.875	-34.0625	2.5056677	1.0625739	-1.3524492
1276878082012	4.4810944	1.0351465	8.158588	-0.4410591	0.0	-24.8125	-1.3125	-33.8125	2.401348	1.0574859	-1.3437755
1276878082050	4.5628166	1.0351465	8.008764	-0.53135395	0.0	-25.8125	-1.3125	-33.3125	2.4342039	1.0420716	-1.3477068
1276878082090	4.630918	1.0760075	8.117727	-0.39916897	0.0	-25.8125	-0.8125	-32.75	2.3806098	1.0409827	-1.3424944
1276878082130	4.7943625	0.88532263	8.008764	-0.43061638	0.0	-26.3125	-0.3125	-32.25	2.4482965	1.0239604	-1.3881942
1276878082160	4.903325	0.95342433	7.6954966	-0.6321049	0.0	-26.75	0.1875	-31.5	2.3122923	0.99505293	-1.3787483
1276878082200	4.944186	0.84446156	7.4639506	-0.81395054	0.0	-27.0	0.4375	-31.25	2.3167357	0.9791096	-1.4016298
1276878082240	5.175732	0.7627395	7.6954966	-0.50124073	0.0	-27.5	0.4375	-31.25	2.402856	0.9737357	-1.424481
1276878082281	5.2165933	0.8036005	7.7772183	-0.40751457	0.0	-27.5	0.4375	-30.75	2.412044	0.97453296	-1.4179509
1276878082320	5.053149	0.95342433	7.668256	-0.573802	0.0	-27.5	0.1875	-31.0	2.343382	0.98007774	-1.3843094
1276878082360	4.862464	0.95342433	7.5456724	-0.77948284	0.0	-27.0	0.4375	-30.25	2.34249	0.9897429	-1.3771744
1276878082402	5.09401	0.61291564	7.8589406	-0.42115307	0.0	-27.0	0.6875	-29.6875	2.5754128	0.99241644	-1.4510511
1276878082453	5.366417	0.50395286	8.240311	0.039928436	0.0	-27.0	0.6875	-30.0	2.65191	0.99154085	-1.4771624
1276878082490	5.012288	0.5720546	8.049625	-0.30682087	0.0	-26.5	1.1875	-30.0	2.5526469	1.0109642	-1.4571576
1276878082521	4.7943625	0.5720546	7.6273947	-0.7794514	0.0	-26.5	0.9375	-30.25	2.5423365	1.0064433	-1.4520396
1276878082560	4.862464	0.5720546	7.8589406	-0.5473976	0.0	-26.0625	0.9375	-31.0	2.5142999	1.0136476	-1.4536875
1276878082590	5.175732	0.5720546	8.349273	0.03336048	0.0	-26.0625	1.1875	-31.25	2.4928043	1.0131489	-1.4607168
1276878082620	5.175732	0.6537767	8.390134	0.07312584	0.0	-26.3125	0.9375	-31.5	2.4806116	1.0145122	-1.445146
1276878082650	5.175732	0.6946377	8.158588	-0.11989212	0.0	-26.5	0.9375	-31.75	2.40378	1.0014274	-1.437383
1276878082690	5.09401	0.5720546	7.8589406	-0.42373276	0.0	-26.5	1.1875	-31.0	2.4513402	0.99283767	-1.4589654
1276878082730	5.053149	0.7627395	7.9270425	-0.375103	0.0	-26.5	0.6875	-30.0	2.457318	0.9981715	-1.4209839
1276878082770	5.012288	1.1441092	7.6954966	-0.5517769	0.0	-26.3125	-0.0625	-30.0	2.249827	0.98181593	-1.3463804
1276878082810	5.012288	1.3756552	7.668256	-0.5428715	0.0	-26.5	-0.5625	-30.25	2.1577528	0.97511715	-1.3029355
1276878082840	4.8216033	1.4165162	7.3549876	-0.89877605	0.0	-27.0	-1.625	-30.5	2.2166467	0.97139347	-1.2850509
1276878082880	4.630918	1.4165162	7.246025	-1.0913305	0.0	-26.5	-2.125	-32.0	2.1577997	0.9816448	-1.2739516
1276878082910	4.399372	1.4982382	8.008764	-0.54708767	0.0	-26.5	-2.375	-32.25	2.346364	1.0449874	-1.2425584
1276878082942	4.440233	1.607201	8.499097	-0.08382034	0.0	-25.5625	-2.625	-32.25	2.3478613	1.0636585	-1.2235038
1276878082980	4.3312707	1.4573772	8.19945	-0.41970062	0.0	-25.0625	-2.375	-32.75	2.3316636	1.0623349	-1.2462183
1276878083010	4.140586	1.2666923	7.9679036	-0.7382183	0.0	-25.0625	-2.375	-32.75	2.3316636	1.0623349	-1.2462183
1276878083040	4.372132	1.0760075	7.9270425	-0.6901083	0.0	-25.3125	-2.375	-32.75	2.5598044	1.0542357	-1.329486
1276878083080	4.6036777	0.9942854	8.049625	-0.48040104	0.0	-25.8125	-2.125	-32.75	2.6015668	1.0414057	-1.3580872
1276878083110	4.4810944	1.1441092	8.076866	-0.49939728	0.0	-25.8125	-2.625	-32.5	2.5808284	1.0507647	-1.3208177
1276878083150	4.671779	1.1849703	8.076866	-0.40104294	0.0	-25.8125	-1.625	-32.25	2.408922	1.0327839	-1.3223907
1276878083193	4.862464	1.0760075	7.6954966	-0.6402979	0.0	-25.0625	-1.3125	-32.25	2.238666	0.9964314	-1.3530173
1276878083231	4.8216033	1.0760075	7.7772183	-0.5930309	0.0	-25.3125	-0.8125	-32.0	2.2543359	1.004885	-1.3512303
1276878083271	4.7126403	1.1168685	7.7363577	-0.6793499	0.0	-25.8125	-0.3125	-32.0	2.2292936	1.0114579	-1.3380953
1276878083310	4.862464	1.1168685	7.7772183	-0.5667324	0.0	-26.3125	-1.0625	-31.75	2.3337772	1.0004199	-1.3450207
1276878083341	4.944186	1.1168685	7.7772183	-0.5234661	0.0	-27.0	-1.3125	-31.75	2.3874352	0.9931952	-1.3486298
1276878083380	4.944186	1.1168685	7.8589406	-0.45489502	0.0	-26.75	-1.625	-31.5	2.4453282	0.9979667	-1.3486298
1276878083410	4.944186	1.0351465	7.7772183	-0.5329437	0.0	-26.75	-1.625	-31.5	2.4453282	0.9979667	-1.3486298
1276878083443	4.862464	1.0351465	7.7772183	-0.5762539	0.0	-26.75	-1.3125	-31.0	2.486465	1.0020299	-1.3610424
1276878083480	4.862464	1.0351465	7.8861814	-0.4842615	0.0	-26.5	-1.0625	-30.75	2.4768898	1.0083253	-1.3610424
1276878083520	4.7535014	1.0760075	8.008764	-0.4314766	0.0	-27.25	-1.3125	-31.0	2.5357046	1.024111	-1.3481869
1276878083560	4.7535014	1.0760075	7.8180795	-0.5938368	0.0	-27.25	-1.3125	-31.25	2.4945269	1.013351	-1.3481869
1276878083602	4.8216033	1.0351465	7.8589406	-0.52859306	0.0	-27.25	-1.625	-32.0	2.5265758	1.0104027	-1.3593172
1276878083640	4.9850473	0.9942854	7.7363577	-0.5497322	0.0	-27.5	-1.3125	-31.5	2.4980936	0.98947525	-1.3739263
1276878083680	4.944186	1.0351465	7.668256	-0.6241312	0.0	-26.75	-1.3125	-31.75	2.4044836	0.9883015	-1.364411
1276878083720	5.09401	1.0760075	7.9679036	-0.28855038	0.0	-26.0625	-1.3125	-31.25	2.4001923	0.9920184	-1.3626264
1276878083760	4.903325	0.95342433	8.049625	-0.33310318	0.0	-26.0625	-0.8125	-31.25	2.4825377	1.0154065	-1.3787483
1276878083790	4.671779	0.9942854	7.8861814	-0.5867815	0.0	-25.8125	-0.8125	-31.5	2.4402287	1.0262191	-1.3610971
1276878083820	4.7535014	1.0760075	7.8861814	-0.5359745	0.0	-26.0625	-0.8125	-31.25	2.3935845	1.017237	-1.3481869
1276878083850	4.8216033	0.9942854	7.8589406	-0.5330639	0.0	-26.3125	-0.8125	-31.75	2.418827	1.0111715	-1.3674324
1276878083880	4.944186	0.88532263	7.9270425	-0.42226028	0.0	-26.75	-0.8125	-31.75	2.5115652	1.0060141	-1.3936107
1276878083910	4.944186	0.9942854	7.8861814	-0.4458046	0.0	-26.75	-0.8125	-32.5	2.3824797	1.0018418	-1.3723414
1276878083940	4.8216033	1.1168685	7.8861814	-0.49605846	0.0	-26.75	-0.3125	-32.25	2.287056	1.0103385	-1.3431724
1276878083970	4.7535014	1.1168685	7.8861814	-0.5311432	0.0	-26.75	-0.3125	-32.25	2.287056	1.0103385	-1.3431724
1276878084000	4.7943625	0.9942854	8.008764	-0.41970062	0.0	-26.3125	-0.8125	-32.5	2.4201431	1.022053	-1.3663087
1276878084040	4.8216033	0.8036005	7.8861814	-0.5284233	0.0	-26.5	-1.0625	-32.25	2.589877	1.0159215	-1.4056476
1276878084080	4.7126403	0.95342433	7.7363577	-0.69790554	0.0	-26.3125	-1.0625	-32.75	2.4251525	1.0147204	-1.3711785
1276878084120	4.5219555	1.1849703	8.390134	-0.20214176	0.0	-26.0625	-1.3125	-32.5	2.4538405	1.0624735	-1.3145107
1276878084160	4.440233	1.1849703	8.430995	-0.20448875	0.0	-25.8125	-1.3125	-32.0	2.4772305	1.0717324	-1.310003
1276878084200	4.440233	1.0351465	7.9270425	-0.6619692	0.0	-25.5625	-1.0625	-32.0	2.456377	1.0488437	-1.3417584
1276878084240	4.399372	1.0351465	7.8861814	-0.71721363	0.0	-25.3125	-1.625	-32.0	2.5122075	1.0503966	-1.3397056
1276878084280	4.5628166	1.1168685	8.281172	-0.28590965	0.0	-25.3125	-1.3125	-32.5	2.4407177	1.0548035	-1.3307403
1276878084320	4.5219555	1.0760075	8.158588	-0.41684532	0.0	-25.0625	-1.0625	-32.5	2.4099243	1.0529299	-1.3371888
1276878084360	4.440233	1.1168685	8.117727	-0.4867487	0.0	-24.8125	-1.0625	-33.0625	2.3481784	1.0572546	-1.3243747
1276878084402	4.440233	0.95342433	8.19945	-0.43351555	0.0	-24.5625	-1.0625	-33.3125	2.4587538	1.0649858	-1.359284
1276878084440	4.6036777	0.95342433	8.117727	-0.42579937	0.0	-24.5625	-1.0625	-32.75	2.4318027	1.04585	-1.3665828
1276878084480	4.5219555	1.0351465	7.8589406	-0.68072224	0.0	-24.5625	-1.0625	-33.0625	2.3056023	1.0375595	-1.3457581
1276878084521	4.4810944	1.1441092	7.9679036	-0.5937958	0.0	-24.5625	-1.0625	-32.25	2.31216	1.0448874	-1.3208177
1276878084560	4.440233	1.1441092	8.158588	-0.44784546	0.0	-24.8125	-0.5625	-31.75	2.3442326	1.0587738	-1.3186132
1276878084590	4.3312707	1.1168685	8.240311	-0.43061543	0.0	-24.8125	-0.8125	-32.0	2.4103289	1.0734873	-1.3184323
1276878084630	4.2086873	1.1849703	8.158588	-0.55031395	0.0	-24.3125	-1.0625	-32.0	2.3737652	1.07883	-1.2963477
1276878084670	4.2086873	1.1168685	8.117727	-0.59481335	0.0	-24.3125	-1.3125	-32.75	2.409205	1.0784535	-1.3114029
1276878084700	4.140586	1.1441092	8.240311	-0.51384926	0.0	-23.8125	-1.625	-33.5625	2.4007766	1.0902475	-1.3012072
1276878084740	4.140586	1.1168685	8.390134	-0.38400745	0.0	-23.375	-1.0625	-34.0625	2.333682	1.0982728	-1.3073298
1276878084780	3.990762	1.1168685	8.390134	-0.44887638	0.0	-23.5625	-1.0625	-34.8125	2.3426108	1.11202	-1.2979143
1276878084822	3.8273177	1.1168685	8.308413	-0.5911484	0.0	-23.375	-1.0625	-34.8125	2.347945	1.1233829	-1.2868656
1276878084860	3.6774938	1.1168685	8.240311	-0.7141218	0.0	-23.375	-1.625	-35.3125	2.4046326	1.1343812	-1.2759451
1276878084890	3.568531	1.1849703	8.430995	-0.5751686	0.0	-22.875	-1.625	-35.8125	2.3597965	1.1512831	-1.2501912
1276878084940	3.5276701	1.1441092	8.771504	-0.2833767	0.0	-22.375	-1.625	-36.125	2.4125297	1.1707934	-1.2571757
1276878084970	3.5957718	0.9942854	8.499097	-0.52479553	0.0	-21.875	-1.625	-36.625	2.4336653	1.1571666	-1.301022
1276878085000	3.5276701	1.0351465	8.349273	-0.6838026	0.0	-21.375	-1.3125	-36.375	2.322708	1.1560154	-1.2853721
1276878085030	3.568531	1.0760075	8.499097	-0.5261946	0.0	-21.375	-1.875	-36.375	2.3842962	1.1575102	-1.2779394
1276878085070	3.5957718	1.0760075	8.580819	-0.44087124	0.0	-21.375	-2.625	-36.125	2.5133796	1.1584637	-1.2800347
1276878085100	3.6774938	1.0760075	8.539958	-0.44648743	0.0	-21.375	-3.125	-35.8125	2.587863	1.1490436	-1.2861491
1276878085141	3.636633	1.0760075	8.430995	-0.5619459	0.0	-21.375	-3.125	-36.125	2.5614724	1.1480875	-1.2831235
1276878085180	3.6774938	1.1168685	8.662541	-0.3297844	0.0	-21.625	-2.875	-36.125	2.5289488	1.1532147	-1.2759451
1276878085221	3.6774938	1.1168685	8.730643	-0.26749516	0.0	-21.125	-2.375	-36.375	2.4291656	1.1561102	-1.2759451
1276878085260	3.486809	1.1849703	8.430995	-0.60645103	0.0	-21.125	-1.625	-36.625	2.2386687	1.1589735	-1.2431979
1276878085290	3.486809	1.3075534	8.390134	-0.627223	0.0	-21.375	-1.875	-36.375	2.1946483	1.1530732	-1.2120256
1276878085320	3.5276701	1.2666923	8.430995	-0.58002377	0.0	-21.625	-2.125	-36.125	2.282533	1.1524646	-1.2260613
1276878085360	3.486809	1.2258313	8.499097	-0.53868675	0.0	-21.875	-1.875	-36.125	2.3186114	1.1605946	-1.2327302
1276878085400	3.445948	1.2258313	8.580819	-0.4788599	0.0	-21.625	-2.625	-35.5625	2.4362693	1.167876	-1.2290249
1276878085440	3.5276701	1.1168685	8.430995	-0.59939575	0.0	-21.875	-2.375	-35.5625	2.4702437	1.1572226	-1.2641785
1276878085481	3.5957718	1.0760075	8.580819	-0.44087124	0.0	-22.125	-2.125	-35.8125	2.4882245	1.1584637	-1.2800347
1276878085520	3.568531	0.9942854	8.662541	-0.38525772	0.0	-22.375	-2.375	-35.3125	2.6233315	1.166691	-1.2990623
1276878085550	3.5276701	1.0760075	8.662541	-0.39166832	0.0	-22.375	-1.625	-35.5625	2.4652414	1.1682861	-1.274741
1276878085590	3.5276701	1.0760075	8.499097	-0.54183006	0.0	-22.125	-1.625	-35.8125	2.4220004	1.1613754	-1.274741
1276878085630	3.486809	1.0760075	8.390134	-0.6573343	0.0	-21.375	-1.875	-36.125	2.3901937	1.1605512	-1.2714741
1276878085670	3.486809	1.0351465	8.539958	-0.52439594	0.0	-20.6875	-2.125	-36.625	2.4284136	1.1681585	-1.2822089
1276878085700	3.405087	1.0351465	8.662541	-0.44151402	0.0	-20.4375	-2.125	-36.875	2.4417763	1.1809767	-1.2756739
1276878085740	3.405087	0.95342433	8.662541	-0.45019436	0.0	-20.4375	-1.875	-36.625	2.4889948	1.1832411	-1.2977877
1276878085772	3.445948	0.95342433	8.539958	-0.54844	0.0	-20.6875	-1.875	-36.375	2.48418	1.1743006	-1.3008691
1276878085810	3.486809	1.0760075	8.390134	-0.6573343	0.0	-21.125	-1.625	-36.125	2.341644	1.1605512	-1.2714741
1276878085850	3.5276701	1.1441092	8.430995	-0.59605217	0.0	-21.375	-1.875	-35.8125	2.3468137	1.1563963	-1.2571757
1276878085890	3.636633	1.1441092	8.471856	-0.51652527	0.0	-21.125	-2.375	-35.8125	2.3866296	1.1479402	-1.2659934
1276878085920	3.6774938	1.2666923	8.689782	-0.28610516	0.0	-20.875	-2.375	-35.5625	2.3149583	1.1499413	-1.2390794
1276878085950	3.636633	1.3075534	8.580819	-0.39573956	0.0	-21.375	-2.375	-35.3125	2.3117785	1.1476337	-1.2256386
1276878085980	3.5957718	1.2258313	8.471856	-0.52200794	0.0	-21.375	-2.625	-35.3125	2.3966322	1.1492543	-1.2422432
1276878086010	3.636633	1.2666923	8.499097	-0.47582722	0.0	-20.875	-3.125	-35.8125	2.380722	1.1453692	-1.2356238
1276878086042	3.718355	1.1849703	8.499097	-0.45437908	0.0	-21.125	-3.125	-35.5625	2.4688754	1.1403354	-1.26229
1276878086082	3.5957718	1.1849703	8.499097	-0.50243664	0.0	-20.875	-3.125	-36.125	2.4497843	1.1517258	-1.2524587
1276878086120	3.568531	1.1849703	8.430995	-0.5751686	0.0	-20.875	-2.625	-36.125	2.3619504	1.1512831	-1.2501912
1276878086160	3.5276701	1.2258313	8.471856	-0.54816914	0.0	-21.125	-1.875	-35.5625	2.2852197	1.1556007	-1.236359
1276878086190	3.5276701	1.2258313	8.499097	-0.5232363	0.0	-21.125	-1.875	-36.375	2.253596	1.1567842	-1.236359
1276878086220	3.568531	1.2258313	8.471856	-0.5325241	0.0	-20.875	-1.625	-36.125	2.200211	1.1517903	-1.2399136
1276878086260	3.5957718	1.2258313	8.499097	-0.4971447	0.0	-20.6875	-2.375	-36.375	2.2712147	1.1504514	-1.2422432
1276878086300	3.636633	1.334794	8.390134	-0.56537724	0.0	-21.125	-2.875	-36.375	2.2444956	1.1382422	-1.2190214
1276878086330	3.9499009	1.3075534	7.8861814	-0.8901901	0.0	-21.125	-3.125	-36.125	2.0152931	1.0853184	-1.2511162
1276878086372	3.8681788	1.4165162	8.499097	-0.3618641	0.0	-21.625	-3.125	-36.125	2.2294352	1.1194756	-1.2197654
1276878086411	3.568531	1.4165162	8.921328	-0.09423447	0.0	-22.375	-2.625	-36.125	2.347208	1.1643935	-1.192925
1276878086440	3.568531	1.1168685	8.62168	-0.40903378	0.0	-22.375	-2.375	-36.125	2.49635	1.1615794	-1.2674769
1276878086470	3.5957718	0.88532263	8.240311	-0.77248764	0.0	-22.375	-2.375	-35.8125	2.6479232	1.1484454	-1.3293859
1276878086510	3.636633	0.95342433	8.430995	-0.5754099	0.0	-22.375	-2.375	-35.5625	2.616882	1.1513417	-1.3143946
1276878086541	3.8681788	0.92618364	8.539958	-0.38584805	0.0	-21.875	-2.375	-35.3125	2.622872	1.1349193	-1.3357841
1276878086588	3.8681788	0.88532263	8.580819	-0.35270596	0.0	-21.875	-2.125	-35.3125	2.62652	1.1376375	-1.3457984
1276878086620	3.8273177	1.0760075	8.471856	-0.4483118	0.0	-21.875	-2.125	-35.5625	2.4281263	1.1320232	-1.296732
1276878086660	3.8681788	1.1849703	8.390134	-0.49207497	0.0	-21.125	-2.125	-35.8125	2.2269883	1.1215007	-1.273535
1276878086690	3.759216	1.2258313	8.430995	-0.49450493	0.0	-20.875	-2.125	-35.8125	2.2171822	1.132265	-1.2555816
1276878086724	3.5957718	1.2666923	8.471856	-0.51652527	0.0	-20.875	-2.125	-36.375	2.2107697	1.1479402	-1.2320982
1276878086760	3.5957718	1.2666923	8.539958	-0.45437908	0.0	-20.6875	-2.125	-35.3125	2.2666945	1.1509281	-1.2320982
1276878086800	3.5957718	1.2666923	8.771504	-0.24247837	0.0	-21.125	-2.125	-35.5625	2.3286219	1.160797	-1.2320982
1276878086835	3.759216	1.3075534	8.689782	-0.24873638	0.0	-21.875	-2.375	-35.8125	2.318131	1.1412901	-1.2360594
1276878086876	3.9499009	1.2666923	8.117727	-0.69052505	0.0	-22.125	-2.375	-35.0625	2.2257736	1.098399	-1.2604679
1276878086910	4.0588636	1.3756552	8.471856	-0.31248665	0.0	-22.625	-2.125	-35.5625	2.181694	1.1024646	-1.2440207
1276878086940	4.2495484	1.334794	8.471856	-0.23519897	0.0	-22.875	-2.375	-34.8125	2.2553787	1.0867459	-1.2664522
1276878086971	4.3312707	1.1441092	8.19945	-0.4632101	0.0	-22.875	-1.3125	-34.0625	2.2060127	1.0707538	-1.3125441
1276878087011	4.2904096	0.9942854	8.008764	-0.6668186	0.0	-22.625	-1.625	-33.8125	2.3295562	1.0680209	-1.3430703
1276878087050	4.2086873	0.95342433	8.158588	-0.5770979	0.0	-22.375	-1.625	-33.5625	2.4325237	1.0842726	-1.3480192
1276878087091	4.2904096	0.7627395	8.730643	-0.048909187	0.0	-22.375	-1.3125	-33.3125	2.6615021	1.1078491	-1.3948567
1276878087130	3.990762	0.8036005	8.19945	-0.652256	0.0	-22.625	-1.875	-33.3125	2.6874716	1.1099682	-1.3720884
1276878087170	3.8681788	1.1849703	8.281172	-0.5901022	0.0	-22.625	-1.3125	-33.5625	2.3253465	1.116366	-1.273535
1276878087200	4.099725	1.1168685	8.158588	-0.6078625	0.0	-23.125	-1.625	-33.8125	2.3604372	1.0906341	-1.3048254
1276878087230	4.140586	1.1441092	8.117727	-0.6223736	0.0	-23.375	-1.875	-34.3125	2.3434057	1.0840774	-1.3012073
1276878087260	3.990762	1.4982382	8.308413	-0.46852303	0.0	-22.875	-2.625	-34.5625	2.2039874	1.0967536	-1.2116517
1276878087300	3.990762	1.6889231	8.771504	-0.023096085	0.0	-22.875	-2.625	-34.5625	2.2039874	1.0967536	-1.2116517
1276878087330	4.0588636	1.5390993	8.853226	0.053512573	0.0	-22.375	-2.625	-34.5625	2.2479305	1.114926	-1.2083533
1276878087374	4.099725	1.2258313	8.471856	-0.31545734	0.0	-22.375	-2.375	-34.8125	2.3455362	1.1030836	-1.2802541
1276878087424	3.8681788	1.1849703	8.008764	-0.8340664	0.0	-22.625	-1.875	-35.0625	2.2608187	1.1030391	-1.273535
1276878087471	3.8681788	1.2258313	8.281172	-0.58475876	0.0	-22.875	-2.625	-35.3125	2.3941305	1.1151814	-1.2639067
1276878087511	4.1814466	1.0760075	8.430995	-0.3343773	0.0	-23.125	-2.375	-36.125	2.4272606	1.0975008	-1.3189317
1276878087551	4.1814466	1.0351465	8.430995	-0.33893204	0.0	-23.125	-2.375	-35.5625	2.4960635	1.098441	-1.3281182
1276878087590	4.0588636	1.1441092	8.076866	-0.6951666	0.0	-23.375	-2.625	-35.0625	2.421255	1.0896157	-1.2960459
1276878087671	4.2495484	1.0760075	8.240311	-0.47288513	0.0	-23.5625	-2.125	-34.5625	2.438562	1.0818955	-1.3228034
1276878087710	4.440233	1.0760075	8.076866	-0.52714443	0.0	-23.8125	-2.375	-33.5625	2.4645698	1.0560108	-1.3330482
1276878087740	4.4810944	1.1441092	8.240311	-0.35721016	0.0	-24.0625	-2.625	-33.0625	2.5156333	1.0593597	-1.3208177
1276878087771	4.440233	1.1441092	8.281172	-0.34079266	0.0	-24.5625	-2.625	-32.75	2.5651705	1.0651188	-1.3186132
1276878087810	4.440233	1.1849703	8.076866	-0.5138788	0.0	-24.8125	-3.375	-32.75	2.6150758	1.0534928	-1.310003
1276878087840	4.399372	1.2666923	7.7772183	-0.78201103	0.0	-25.3125	-3.375	-32.5	2.5227304	1.0387605	-1.2904533
1276878087872	4.5628166	1.1441092	7.7363577	-0.7523966	0.0	-25.0625	-3.625	-33.0625	2.60609	1.0244808	-1.3251154
1276878087919	4.7535014	1.0760075	7.9270425	-0.50119114	0.0	-24.5625	-4.125	-33.3125	2.7831564	1.0195456	-1.3481869
1276878087950	3.990762	1.334794	8.240311	-0.55405235	0.0	-24.3125	-3.625	-33.5625	2.5450702	1.0986502	-1.2480222
1276878088020	4.140586	1.5390993	8.19945	-0.49299145	0.0	-23.8125	-3.875	-33.8125	2.3706942	1.0766381	-1.2149127
1276878088060	3.9090397	2.152015	7.8861814	-0.7455454	0.0	-24.0625	-4.375	-33.5625	2.0102847	1.0558788	-1.0675519
1276878088130	4.2495484	1.920469	8.580819	-0.04051876	0.0	-24.3125	-4.9375	-33.8125	2.3179975	1.0729862	-1.1463443
1276878088161	4.099725	2.070293	8.076866	-0.5152769	0.0	-24.0625	-6.1875	-33.5625	2.2732124	1.0537571	-1.1031699
1276878088211	3.9499009	2.070293	8.158588	-0.5087795	0.0	-23.5625	-7.6875	-34.0625	2.4615571	1.0705584	-1.0880253
1276878088260	3.1054392	2.2609777	8.158588	-0.7889824	0.0	-22.875	-9.25	-35.3125	2.4060283	1.1307544	-0.9414786
1276878088301	2.5333846	2.1792557	7.246025	-1.8271718	0.0	-21.125	-10.25	-35.8125	2.3225741	1.1386825	-0.8604017
1276878088341	2.6014864	2.9147544	8.281172	-0.6501589	0.0	-19.9375	-12.0625	-36.625	2.1544585	1.1299819	-0.7286689
1276878088380	2.6014864	2.4516625	8.240311	-0.8243847	0.0	-19.1875	-13.0625	-36.875	2.6197813	1.1614918	-0.8150391
1276878088410	2.5606253	1.8387469	7.6273947	-1.5534725	0.0	-18.0	-14.375	-36.625	-2.9810755	1.1788746	-0.94803554
1276878088452	2.4108016	2.3426998	8.158588	-0.9826622	0.0	-17.5	-16.125	-36.375	3.0641289	1.1799631	-0.79972386
1276878088491	1.9885708	3.336985	8.430995	-0.52378654	0.0	-16.75	-17.6875	-35.8125	2.4619417	1.1390399	-0.53741294
1276878088530	2.5333846	4.903325	7.43671	-0.5456953	0.0	-15.75	-20.1875	-34.8125	1.4572374	0.9323416	-0.47689188
1276878088560	0.53119355	4.944186	8.390134	-0.053625107	0.0	-14.5625	-22.75	-34.3125	1.8383335	1.0357788	-0.10702747
1276878088591	-0.88532263	5.597963	9.00305	0.8317652	0.0	-13.3125	-24.8125	-33.0625	1.650907	1.0089583	0.15685177
1276878088640	1.7570249	8.281172	9.466142	2.8926716	0.0	-12.375	-26.625	-32.25	1.5450481	0.8411426	-0.20907062
1276878088671	5.407278	8.240311	11.563675	5.3874264	0.0	-10.375	-28.125	-32.5	-1.7388251	0.8649528	-0.5807202
1276878088710	4.3312707	7.5456724	7.9270425	1.9634428	0.0	-7.6875	-28.125	-33.0625	-0.9331033	0.73892033	-0.5210879
1276878088740	-0.84446156	3.0237172	4.099725	-4.642957	0.0	-2.5625	-28.875	-34.3125	1.6363447	0.91728204	0.27234024
1276878088770	-2.8330324	3.990762	7.164303	-1.1302748	0.0	4.0625	-29.9375	-34.8125	1.7446929	0.97148687	0.6173378
1276878088810	-4.099725	3.3778462	7.014479	-1.0077572	0.0	10.375	-31.1875	-34.3125	1.6551996	0.9226432	0.8816391
1276878088858	-5.6660647	4.1814466	6.2789803	-0.37190723	0.0	16.25	-33.5	-32.0	1.4589262	0.7281861	0.935032
1276878088896	-5.09401	1.9885708	4.0180025	-3.020805	0.0	21.375	-36.3125	-27.1875	1.4827324	0.6336811	1.1986154
1276878088939	-4.7126403	1.5390993	4.140586	-3.3473735	0.0	25.5625	-38.5625	-21.0625	1.8126541	0.6958386	1.2551273
1276878088980	-7.8589406	9.234595	-3.8681788	2.9214096	0.0	28.5	-40.375	-13.625	0.15840577	-0.30879366	0.7050932
1276878089014	-8.19945	9.193735	0.50395286	2.5225716	0.0	30.9375	-42.125	-7.5	0.74493486	0.040886063	0.7282951
1276878089050	-6.742072	7.504812	-0.040861044	0.28192806	0.0	32.125	-42.4375	-3.4375	0.8849636	-0.0040502395	0.73191196
1276878089080	-6.973618	5.407278	1.1168685	-0.9118538	0.0	33.625	-42.4375	-0.625	2.004019	0.12589657	0.9112423
1276878089110	-9.656827	6.510526	-0.29964766	1.8437166	0.0	36.5625	-41.125	0.625	1.5162237	-0.025722856	0.97760403
1276878089140	-8.430995	2.2609777	1.0760075	-1.0116806	0.0	40.0	-38.3125	2.6875	1.88329	0.12265079	1.3087867
1276878089180	-8.812365	1.7297841	-0.88532263	-0.78258705	0.0	43.125	-35.0	5.0	1.5770508	-0.09826493	1.37697
1276878089220	-10.079058	1.7978859	-1.7297841	0.57660294	0.0	45.375	-31.6875	7.5	1.5289065	-0.16737403	1.3942746
1276878089260	-9.152874	1.0351465	-2.6832085	-0.21257687	0.0	46.5625	-29.125	10.0625	1.395695	-0.28345406	1.4581796
1276878089300	-9.343558	2.1111538	-3.173541	0.2844553	0.0	46.3125	-28.625	12.125	1.3124578	-0.31991825	1.3485802
1276878089333	-9.915613	4.2904096	-1.56634	1.1103287	0.0	45.375	-29.375	12.625	2.0674741	-0.1439743	1.1624283
1276878089370	-8.880466	4.5219555	-2.5333846	0.47580147	0.0	44.625	-30.1875	13.125	1.5029321	-0.24894273	1.0998139
1276878089410	-7.5456724	3.214402	-2.1792557	-1.3202667	0.0	43.875	-31.1875	13.875	1.5625719	-0.2597039	1.1680851
1276878089440	-8.049625	2.8738933	-2.2609777	-0.9653969	0.0	43.625	-30.9375	14.4375	1.6253829	-0.25860322	1.2278795
1276878089470	-8.880466	3.255263	-1.4165162	-0.24286747	0.0	43.375	-31.1875	15.1875	2.0467062	-0.14865948	1.2194417
1276878089510	-10.800936	4.099725	-1.1441092	1.8026972	0.0	43.625	-31.4375	14.9375	2.1819386	-0.098710924	1.208024
1276878089550	-9.425281	4.099725	-1.7297841	0.61620045	0.0	43.625	-31.4375	14.4375	2.0205748	-0.16673219	1.1605104
1276878089590	-8.853226	3.173541	-1.8387469	-0.22375107	0.0	43.375	-31.4375	14.1875	1.8354658	-0.19307528	1.2266034
1276878089630	-8.539958	3.7864566	-2.0294318	-0.24700928	0.0	43.625	-31.4375	14.4375	1.8304225	-0.21391946	1.1534603
1276878089670	-8.539958	3.5957718	-2.0294318	-0.3209219	0.0	43.125	-31.4375	14.6875	1.8291295	-0.21561252	1.1722739
1276878089710	-9.084772	4.099725	-2.1383946	0.3871498	0.0	42.9375	-31.6875	14.4375	1.8462994	-0.21134384	1.1468831
1276878089740	-8.771504	4.0180025	-2.070293	0.06096077	0.0	42.6875	-32.1875	14.1875	1.8194888	-0.21137746	1.141248
1276878089780	-8.240311	3.8273177	-2.3018389	-0.4338417	0.0	42.4375	-32.1875	14.4375	1.6776004	-0.24812508	1.1359804
1276878089810	-8.076866	4.3312707	-2.2201166	-0.37666702	0.0	41.6875	-32.4375	14.6875	1.7939267	-0.2376627	1.0785661
1276878089840	-8.267551	4.7535014	-2.2201166	-0.014965057	0.0	40.9375	-33.0	15.1875	1.9230845	-0.22872394	1.048993
1276878089880	-8.158588	4.5219555	-2.2201166	-0.2181387	0.0	40.0	-33.75	15.9375	1.9136856	-0.23365961	1.0646906
1276878089920	-8.267551	5.09401	-1.6889231	0.05001259	0.0	38.75	-34.75	15.6875	2.1957655	-0.17219812	1.0185901
1276878089961	-8.962189	4.399372	-1.9885708	0.37321758	0.0	39.0	-35.0	15.4375	1.9265463	-0.19660766	1.1144701
1276878090000	-8.240311	4.671779	-1.9477097	-0.13598251	0.0	39.5	-35.25	15.9375	2.0052128	-0.20279092	1.0550388
1276878090040	-7.7772183	3.8273177	-1.920469	-0.92849255	0.0	40.0	-35.25	15.4375	1.8458866	-0.21803743	1.1134733
1276878090070	-8.390134	4.2904096	-1.607201	-0.24709702	0.0	40.25	-35.25	14.6875	1.9858907	-0.16892742	1.0980991
1276878090100	-8.921328	5.134871	-1.3075534	0.5696058	0.0	39.75	-36.0625	13.875	2.130332	-0.12634991	1.0485319
1276878090150	-8.580819	5.243834	-1.1168685	0.31143475	0.0	39.0	-36.5625	12.375	2.111526	-0.110608794	1.0222468
1276878090190	-8.349273	5.175732	-1.0760075	0.07547283	0.0	38.5	-37.0625	11.625	2.0527215	-0.10910055	1.0158713
1276878090220	-7.8589406	4.944186	-0.9125633	-0.47708988	0.0	38.5	-37.5625	11.125	2.054174	-0.097970836	1.0092427
1276878090250	-7.43671	4.862464	-1.3756552	-0.8155079	0.0	38.75	-38.3125	10.5625	1.7766697	-0.15360448	0.99172205
1276878090280	-7.4639506	4.903325	-0.9942854	-0.8210087	0.0	38.25	-38.5625	10.0625	1.9224988	-0.11087975	0.98956186
1276878090310	-8.158588	6.0474343	-0.84446156	0.3838911	0.0	38.25	-39.375	9.8125	2.1092334	-0.08296233	0.9329282
1276878090340	-8.430995	5.434519	-0.42223078	0.23296833	0.0	37.3125	-39.875	9.5625	2.074298	-0.042068865	0.99823505
1276878090370	-7.3141265	5.47538	-0.10896278	-0.6694679	0.0	36.0625	-40.125	9.0625	2.246868	-0.011925489	0.92818964
1276878090410	-6.510526	6.4424243	-0.7627395	-0.6157007	0.0	34.625	-41.125	8.8125	2.297814	-0.08308366	0.79065573
1276878090440	-6.851035	7.43671	-1.6889231	0.44487667	0.0	33.375	-42.4375	8.0625	1.3565874	-0.16550297	0.7444297
1276878090470	-6.973618	7.5865335	-1.6889231	0.63553905	0.0	32.875	-43.4375	7.75	1.3578464	-0.16245395	0.7433276
1276878090510	-7.4639506	6.932757	-1.0351465	0.43274498	0.0	32.125	-43.9375	8.0625	1.8190697	-0.10126749	0.8222783
1276878090540	-7.9679036	6.851035	-0.29964766	0.70591164	0.0	33.125	-43.1875	7.5	2.0629494	-0.028507631	0.8606236
1276878090570	-7.8180795	5.8567495	-1.0760075	0.020947456	0.0	33.875	-42.125	7.75	1.7167038	-0.109708294	0.9278529
1276878090610	-8.049625	4.5219555	-2.1792557	-0.32014847	0.0	35.3125	-41.125	7.5	1.338018	-0.23179178	1.0589694
1276878090640	-8.117727	4.1814466	-1.6480621	-0.52774334	0.0	37.3125	-39.875	7.5	1.4755666	-0.1785612	1.0951413
1276878090680	-7.3549876	5.284695	-0.0	-0.7499485	0.0	38.75	-39.875	8.0625	2.2606547	-0.0	0.9477496
1276878090710	-8.117727	4.2904096	-0.95342433	-0.57549953	0.0	39.0	-39.875	8.0625	1.7184889	-0.10346788	1.0845912
1276878090740	-8.471856	4.6036777	-0.9125633	-0.12166309	0.0	38.25	-39.375	7.5	1.7243766	-0.09436451	1.073028
1276878090770	-7.6954966	5.7477865	-1.0351465	-0.14594364	0.0	36.8125	-40.375	6.5	1.6398282	-0.10735629	0.9292805
1276878090810	-7.6546354	7.246025	0.313268	0.7383232	0.0	34.8125	-41.125	4.75	2.3891835	0.029712176	0.81281364
1276878090840	-6.932757	7.3549876	0.27240697	0.30439186	0.0	33.375	-41.875	2.6875	2.3197885	0.02694479	0.7558548
1276878090881	-8.049625	5.938472	-0.19068487	0.19826317	0.0	33.125	-42.9375	1.375	1.5963752	-0.019060276	0.93519264
1276878090920	-6.851035	6.469665	0.6537767	-0.360981	0.0	33.125	-42.9375	0.875	2.0662825	0.06926982	0.8140202
1276878090950	-6.3607025	3.9499009	-0.7627395	-2.2805605	0.0	32.625	-43.1875	1.125	1.3683159	-0.101520345	1.0150894
1276878090990	-7.205164	4.0180025	-1.2666923	-1.4601994	0.0	33.625	-42.9375	1.375	1.2821884	-0.15235288	1.0620942
1276878091030	-8.117727	7.205164	0.10896278	1.0480156	0.0	33.125	-43.1875	2.1875	1.8290749	0.010038504	0.84488344
1276878091070	-7.8861814	5.6252036	-0.29964766	-0.11518192	0.0	33.875	-42.9375	2.4375	1.6239192	-0.030923635	0.95120066
1276878091110	-8.812365	7.246025	-0.50395286	1.6133595	0.0	34.8125	-42.4375	2.6875	1.5997379	-0.04414327	0.8826308
1276878091140	-7.8180795	6.3607025	-0.50395286	0.28467655	0.0	34.8125	-42.4375	2.6875	1.5997379	-0.04414327	0.8826308
1276878091170	-7.273266	5.407278	-0.46309182	-0.7317667	0.0	34.8125	-42.4375	2.4375	1.549471	-0.051052228	0.9315032
1276878091210	-7.43671	5.5162406	0.38136974	-0.53955746	0.0	34.125	-42.6875	1.9375	1.85724	0.041164745	0.93259084
1276878091250	-7.4639506	4.9850473	0.6946377	-0.8042183	0.0	33.375	-43.1875	0.375	1.8169583	0.07723789	0.981952
1276878091290	-7.8180795	4.671779	1.7297841	-0.5362644	0.0	32.625	-43.6875	-1.125	1.9511026	0.18769255	1.0321722
1276878091333	-8.049625	4.6036777	2.2201166	-0.271492	0.0	32.375	-43.4375	-3.6875	1.9241138	0.23499157	1.0512859
1276878091370	-8.267551	4.099725	3.486809	0.058338165	0.0	31.6875	-42.9375	-8.8125	1.9073292	0.36125973	1.1104491
1276878091400	-7.164303	6.2789803	4.140586	0.58071136	0.0	30.6875	-41.875	-13.875	2.156716	0.4100091	0.8511593
1276878091430	-6.2789803	11.073342	4.5628166	3.7160645	0.0	29.1875	-39.875	-19.5	-1.2668225	0.34417343	0.5158283
1276878091460	-5.8976107	5.6252036	6.2789803	0.48170853	0.0	28.0	-38.3125	-24.375	2.401433	0.65643865	0.8090344
1276878091500	-6.701211	5.284695	7.7772183	1.7397499	0.0	27.0	-37.0625	-26.6875	2.2507708	0.7390177	0.9030343
1276878091540	-5.284695	4.0588636	6.1700177	-0.72526836	0.0	26.5	-36.0625	-28.4375	2.1605284	0.7469637	0.9158485
1276878091580	-3.5276701	4.0180025	5.434519	-2.1828194	0.0	25.8125	-35.5	-29.6875	2.7702742	0.79352945	0.72050744
1276878091620	-4.399372	5.053149	6.510526	-0.46450138	0.0	25.3125	-35.25	-30.5	2.6841109	0.77106327	0.7163438
1276878091660	-4.399372	4.399372	6.891896	-0.52186775	0.0	24.0625	-35.75	-31.5	2.4647467	0.8364646	0.7853982
1276878091700	-4.2904096	2.982856	7.7772183	-0.4370098	0.0	22.875	-35.75	-31.75	2.308883	0.9791875	0.9632734
1276878091730	-4.140586	3.990762	7.0553403	-0.7045374	0.0	22.375	-36.5625	-31.75	2.4127975	0.8869242	0.8038215
1276878091770	-3.5957718	3.9090397	6.469665	-1.4360628	0.0	21.125	-36.3125	-32.5	2.4578114	0.88340604	0.74368006
1276878091810	-4.0180025	3.7864566	7.4639506	-0.5226774	0.0	20.4375	-36.5625	-32.25	2.3697755	0.933926	0.8150579
1276878091840	-3.636633	6.1291566	6.701211	-0.02412033	0.0	20.1875	-36.8125	-32.25	2.8768458	0.75462866	0.5355031
1276878091880	-5.284695	4.099725	7.014479	-0.11445427	0.0	19.4375	-36.3125	-32.25	1.8586965	0.80918425	0.91100335
1276878091920	-4.862464	3.0237172	6.782933	-0.9300175	0.0	19.1875	-36.8125	-31.5	1.8901206	0.86969715	1.0144663
1276878091950	-4.2904096	4.399372	7.3958488	-0.1910038	0.0	19.1875	-36.0625	-31.75	2.28263	0.87750584	0.77285963
1276878091980	-3.3642259	5.6252036	7.082581	-0.15657806	0.0	18.6875	-36.0625	-31.75	2.8484793	0.8241058	0.538994
1276878092020	-2.7513103	6.742072	6.0201936	-0.35847664	0.0	19.1875	-36.3125	-31.0	-2.0592656	0.69083464	0.38745314
1276878092050	-3.8681788	4.4810944	6.2108784	-1.2265558	0.0	19.1875	-36.8125	-29.6875	2.3143857	0.8093961	0.7121202
1276878092090	-3.445948	6.4424243	5.829509	-0.45985603	0.0	19.6875	-38.5625	-27.4375	2.9935598	0.6734554	0.4911636
1276878092130	-4.0588636	6.0882955	6.3607025	-0.11127663	0.0	20.6875	-40.125	-24.625	2.7062922	0.7155802	0.5880026
1276878092170	-5.5571017	4.862464	7.8180795	0.9472933	0.0	20.875	-41.875	-21.5625	2.3240948	0.8139376	0.8519664
1276878092210	-4.7535014	4.8216033	7.6954966	0.44343758	0.0	21.125	-43.1875	-19.5	2.5203724	0.8492326	0.77828586
1276878092250	-4.2086873	5.7477865	5.829509	-0.6015825	0.0	21.625	-43.4375	-18.0	2.6761441	0.68580145	0.63202935
1276878092290	-3.173541	5.829509	4.7126403	-1.6664095	0.0	21.375	-43.9375	-17.75	2.980884	0.61741745	0.49852785
1276878092320	-3.405087	5.8976107	5.938472	-0.77106094	0.0	21.625	-43.9375	-18.5	2.9650602	0.7171393	0.5236115
1276878092350	-3.9090397	5.938472	6.6331096	-0.08326721	0.0	22.375	-43.9375	-18.75	2.8710582	0.75074166	0.5821578
1276878092390	-3.8681788	5.8567495	5.938472	-0.61264324	0.0	21.875	-43.9375	-19.25	2.8000813	0.7022105	0.58369696
1276878092420	-3.7864566	5.9793324	5.47538	-0.85849667	0.0	21.625	-43.6875	-18.75	2.8102555	0.65846133	0.56451523
1276878092450	-3.5957718	6.1291566	5.325556	-0.926466	0.0	21.125	-43.6875	-18.75	2.8709457	0.64314157	0.5305579
1276878092490	-3.445948	6.0474343	5.597963	-0.874506	0.0	20.875	-43.6875	-18.75	2.9221344	0.67733824	0.51793253
1276878092530	-3.3642259	6.2108784	5.366417	-0.9358301	0.0	20.6875	-44.1875	-18.0	2.9550924	0.6497051	0.49642277
1276878092570	-3.255263	6.1291566	4.8216033	-1.3561382	0.0	20.6875	-44.6875	-17.25	2.9502344	0.607199	0.48822558
1276878092610	-2.982856	6.891896	4.862464	-0.8601866	0.0	20.4375	-45.5	-15.4375	-3.09332	0.5746092	0.40846404
1276878092650	-3.1463003	7.164303	5.243834	-0.38729572	0.0	19.9375	-47.0	-13.625	3.1039627	0.59041816	0.41380584
1276878092690	-3.2961242	7.0553403	4.8216033	-0.64749527	0.0	20.1875	-47.0	-12.625	3.0428045	0.55438966	0.4370498
1276878092730	-4.099725	7.1234417	5.053149	-0.15856838	0.0	20.6875	-47.5	-11.625	2.8158526	0.55124295	0.5222294
1276878092772	-4.5219555	7.8589406	5.407278	0.7503233	0.0	21.125	-47.25	-10.5625	2.8467436	0.5377439	0.52212733
1276878092810	-4.5219555	7.3958488	5.053149	0.2273407	0.0	21.375	-46.75	-10.0625	2.794617	0.5277644	0.5487729
1276878092840	-4.1814466	7.5865335	4.630918	0.016047478	0.0	21.125	-47.0	-9.0625	2.8890367	0.49093506	0.5037387
1276878092870	-3.6774938	7.8589406	3.7864566	-0.33964634	0.0	20.875	-47.25	-8.3125	3.0559971	0.4114771	0.4376703
1276878092910	-4.099725	7.4639506	3.568531	-0.57341003	0.0	21.375	-48.0	-7.5	2.8243327	0.39682	0.5022826
1276878092940	-4.0588636	6.973618	3.5276701	-1.000392	0.0	22.375	-48.0	-7.0	2.8257818	0.41215712	0.5271024
1276878092970	-4.0588636	6.701211	3.5276701	-1.2144995	0.0	23.375	-48.0	-6.75	2.8401098	0.4230779	0.54459363
1276878093010	-4.3312707	7.246025	3.5957718	-0.63090134	0.0	23.8125	-47.75	-6.0	2.8826952	0.4026717	0.5387593
1276878093040	-4.2086873	8.539958	3.9090397	0.48531437	0.0	23.8125	-48.0	-5.5	-3.1323667	0.389596	0.45788953
1276878093070	-4.0588636	8.499097	3.173541	0.13218212	0.0	23.125	-48.0	-5.0	-3.126749	0.32499838	0.44553834
1276878093110	-3.9090397	7.504812	3.2961242	-0.7255039	0.0	22.875	-48.25	-4.1875	3.0128777	0.37144625	0.48020476
1276878093150	-4.2495484	6.6331096	3.3778462	-1.2353811	0.0	23.125	-48.0	-3.9375	2.7847445	0.40507686	0.56977916
1276878093190	-4.2495484	7.3549876	2.982856	-0.8037653	0.0	23.375	-47.5	-3.4375	2.8993156	0.33770463	0.52391934
1276878093220	-4.5900574	7.9679036	2.8738933	-0.1725769	0.0	23.5625	-47.0	-2.6875	2.9131606	0.3029164	0.52263683
1276878093250	-4.7943625	7.8180795	2.982856	-0.16270351	0.0	23.5625	-47.0	-1.9375	2.838936	0.31445503	0.55009824
1276878093280	-4.903325	7.7363577	2.8330324	-0.2191639	0.0	23.5625	-47.25	-1.375	2.778799	0.29997125	0.5649044
1276878093310	-4.7126403	7.6273947	2.6832085	-0.4479246	0.0	23.8125	-47.5	-1.375	2.8139825	0.29078737	0.55344635
1276878093340	-4.7535014	7.668256	2.6423476	-0.405591	0.0	24.3125	-48.25	-1.125	2.8150449	0.28490797	0.55491877
1276878093370	-4.7943625	7.9270425	2.7240696	-0.15033245	0.0	24.5625	-48.0	-1.125	2.8766687	0.28598472	0.5439495
1276878093400	-4.630918	7.8180795	2.9556155	-0.25136662	0.0	24.8125	-47.5	-0.625	2.9642956	0.31447515	0.534764
1276878093440	-4.5628166	7.7363577	3.0237172	-0.32965755	0.0	24.5625	-47.5	-0.625	2.962672	0.32473612	0.5328774
1276878093470	-4.5219555	7.7363577	2.6832085	-0.45256424	0.0	24.8125	-46.75	-0.625	2.9937649	0.29093578	0.5289497
1276878093510	-4.5219555	7.7363577	2.6014864	-0.4756775	0.0	24.8125	-47.5	-0.625	2.965535	0.2825456	0.5289497
1276878093540	-4.5219555	7.8180795	2.4925237	-0.43738556	0.0	24.5625	-48.0	-1.125	2.9353294	0.2692743	0.52438366
1276878093570	-4.3312707	7.9270425	2.5333846	-0.42496872	0.0	24.5625	-47.5	-0.875	3.05203	0.27342963	0.5000688
1276878093600	-4.7126403	7.7772183	2.6423476	-0.33690357	0.0	24.0625	-48.25	-0.875	2.8385334	0.2827843	0.5447863
1276878093630	-4.903325	7.4639506	3.405087	-0.24904728	0.0	24.0625	-47.5	-1.125	2.818029	0.3642729	0.58123446
1276878093660	-4.5219555	7.43671	3.2961242	-0.49981594	0.0	24.3125	-47.5	-1.375	2.9227917	0.3620175	0.5463239
1276878093700	-4.3312707	7.5865335	4.1814466	-0.12161541	0.0	24.3125	-47.5	-1.375	2.9227917	0.3620175	0.5463239
1276878093740	-4.2086873	7.8589406	2.8738933	-0.4399395	0.0	24.3125	-47.0	-2.4375	3.0873277	0.31184995	0.4916649
1276878093780	-4.1814466	7.7363577	3.5957718	-0.30584526	0.0	24.0625	-47.25	-3.1875	3.0658662	0.38814303	0.4955148
1276878093810	-3.9090397	7.5456724	4.099725	-0.3713169	0.0	23.5625	-47.0	-4.1875	3.1050193	0.44949162	0.47798353
1276878093840	-3.5276701	7.1234417	3.9090397	-0.9484072	0.0	23.375	-46.75	-5.75	-3.1304088	0.4570339	0.45981622
1276878093870	-3.568531	7.3958488	3.8273177	-0.7467747	0.0	22.875	-47.0	-6.0	-3.1309173	0.43614343	0.44955355
1276878093910	-3.636633	7.6954966	4.399372	-0.2254057	0.0	23.375	-47.0	-6.25	-3.0848873	0.47705504	0.44146085
1276878093940	-3.486809	7.5865335	4.372132	-0.38174343	0.0	23.375	-47.25	-6.75	-3.060152	0.48238266	0.43081272
1276878093970	-3.2961242	7.3549876	4.3312707	-0.6567764	0.0	23.125	-48.0	-6.75	-3.0652964	0.49311203	0.42131287
1276878094010	-3.336985	7.1234417	4.0180025	-0.9735737	0.0	23.125	-48.0	-7.0	-3.1094408	0.4722391	0.43809158
1276878094040	-3.2961242	7.164303	3.990762	-0.96821976	0.0	22.625	-47.75	-7.0	-3.1077464	0.46847245	0.43120152
1276878094070	-3.173541	7.43671	4.0588636	-0.75953007	0.0	22.875	-47.5	-6.5	-3.0079408	0.46523854	0.40334347
1276878094110	-3.0645783	7.668256	4.4810944	-0.41122627	0.0	22.875	-47.25	-6.5	-2.9514802	0.4971749	0.3802001
1276878094150	-3.1054392	7.4639506	4.2086873	-0.69252014	0.0	22.875	-47.25	-6.75	-2.9799933	0.47999653	0.39427269
1276878094190	-3.214402	7.3141265	4.2904096	-0.73821926	0.0	22.875	-47.5	-7.75	-3.04079	0.49282303	0.41406995
1276878094230	-3.5957718	7.43671	4.3312707	-0.47958565	0.0	22.625	-47.75	-8.3125	3.1173317	0.4829306	0.45037404
1276878094270	-3.6774938	7.6954966	4.099725	-0.3434391	0.0	22.625	-47.75	-8.5625	3.1300824	0.44807088	0.44579235
1276878094310	-3.759216	7.7772183	4.3312707	-0.14348602	0.0	22.125	-47.5	-8.0625	3.0954552	0.46477857	0.45024925
1276878094340	-3.6774938	7.5456724	4.372132	-0.3421545	0.0	22.125	-47.5	-7.25	3.089804	0.48019356	0.45348832
1276878094370	-3.5276701	7.5865335	4.2904096	-0.40412045	0.0	21.875	-47.25	-6.75	3.136698	0.47383684	0.4352503
1276878094410	-3.405087	7.6273947	4.099725	-0.5018387	0.0	22.125	-47.25	-6.75	-3.0860107	0.4562699	0.41987997
1276878094440	-3.445948	7.5865335	3.9499009	-0.5853834	0.0	22.875	-47.25	-6.75	-3.0632055	0.44266257	0.42635694
1276878094470	-3.5276701	7.5456724	3.990762	-0.5704279	0.0	22.625	-47.5	-6.0	-3.1197183	0.4467949	0.43731868
1276878094510	-3.486809	7.7363577	3.8681788	-0.4807787	0.0	22.875	-47.75	-5.75	-3.067918	0.42770028	0.4234394
1276878094540	-3.486809	7.8180795	3.7864566	-0.44622993	0.0	22.625	-47.5	-5.0	-3.0630035	0.4164515	0.41951674
1276878094570	-3.5276701	7.668256	3.6774938	-0.5995569	0.0	22.375	-47.5	-4.1875	-3.1138496	0.4108837	0.43116808
1276878094610	-3.9499009	7.3958488	3.173541	-0.84162617	0.0	22.125	-47.25	-3.9375	2.9578526	0.36183536	0.49053067
1276878094650	-4.140586	7.5456724	3.486809	-0.52013016	0.0	21.875	-47.0	-4.1875	2.9241993	0.38490373	0.50187266
1276878094690	-3.9499009	7.6954966	3.636633	-0.42328835	0.0	22.125	-47.0	-4.1875	3.0326626	0.39798522	0.47421062
1276878094730	-4.0588636	7.8861814	3.718355	-0.18935394	0.0	22.625	-47.0	-4.75	3.053638	0.39697683	0.4753229
1276878094770	-4.7126403	7.7772183	3.214402	-0.16162586	0.0	22.875	-47.25	-5.75	2.7521894	0.33977026	0.54478633
1276878094810	-4.630918	7.6954966	3.445948	-0.18684673	0.0	22.125	-47.5	-6.0	2.7408736	0.3663542	0.54171985
1276878094850	-4.5219555	7.668256	3.214402	-0.34184074	0.0	20.875	-48.0	-6.25	2.6433275	0.34650874	0.5328101
1276878094880	-4.2904096	7.3549876	3.486809	-0.6054926	0.0	18.9375	-48.5625	-7.25	2.5768564	0.388665	0.52807444
1276878094920	-3.9771416	7.164303	3.8273177	-0.7626877	0.0	17.5	-48.8125	-7.75	2.6209412	0.43696365	0.5067756
1276878094960	-3.0237172	7.3549876	4.399372	-0.7185707	0.0	15.75	-48.8125	-8.8125	2.9114401	0.5053133	0.39004806
1276878095000	-2.3018389	7.4639506	4.903325	-0.5843067	0.0	14.5625	-48.5625	-10.5625	3.1196342	0.56058156	0.29913998
1276878095040	-1.4982382	7.246025	5.434519	-0.62604046	0.0	12.8125	-48.25	-12.375	-3.0003502	0.6334838	0.20389366
1276878095080	-0.6946377	6.851035	5.5162406	-0.9834919	0.0	10.375	-47.25	-14.6875	-2.8510556	0.67538804	0.101046324
1276878095110	-0.19068487	6.4015636	5.6660647	-1.2555876	0.0	8.1875	-46.0	-16.9375	-2.7786405	0.7243053	0.029778428
1276878095140	-0.19068487	5.9793324	5.938472	-1.3772831	0.0	5.5	-44.6875	-19.0	-2.9203248	0.78171545	0.03187986
1276878095180	-0.23154591	5.597963	6.5513873	-1.1862392	0.0	3.0625	-43.4375	-20.8125	-3.0770001	0.8632908	0.04133897
1276878095210	-0.27240697	5.47538	7.4639506	-0.54573536	0.0	1.5625	-41.875	-22.8125	3.1159306	0.9372997	0.049710263
1276878095240	-0.3405087	5.6660647	7.9679036	-0.023617744	0.0	0.375	-40.625	-25.125	3.0303655	0.9518005	0.060023963
1276878095280	-0.27240697	5.8976107	8.049625	0.17595959	0.0	-0.375	-39.625	-26.9375	3.0045419	0.9379796	0.046156574
1276878095310	-0.3405087	5.6252036	8.049625	0.01960659	0.0	-0.625	-38.3125	-28.1875	2.9497612	0.9600069	0.060458917
1276878095340	-0.53119355	5.5571017	7.8589406	-0.16681099	0.0	-1.125	-37.8125	-28.6875	2.8162649	0.95317185	0.095298685
1276878095370	-0.42223078	5.706926	7.43671	-0.42305088	0.0	-1.125	-37.8125	-28.1875	2.8412292	0.9149337	0.07385112
1276878095410	-0.29964766	5.8567495	7.164303	-0.5482197	0.0	-1.375	-37.5625	-28.1875	2.853722	0.8848405	0.05111822
1276878095440	-0.19068487	5.706926	7.0553403	-0.73013115	0.0	-1.125	-37.8125	-27.9375	2.941512	0.89039105	0.03340046
1276878095471	0.10896278	5.5571017	7.082581	-0.80352783	0.0	-0.625	-38.0625	-27.4375	-3.132268	0.9054135	-0.019605331
1276878095510	0.10896278	5.366417	7.3549876	-0.70136833	0.0	-0.625	-38.5625	-27.4375	-3.1310477	0.94036204	-0.020301778
1276878095540	0.38136974	5.243834	7.504812	-0.643384	0.0	-0.375	-38.8125	-27.1875	-2.991353	0.95968443	-0.072599456
1276878095570	0.84446156	5.434519	7.3958488	-0.59005165	0.0	-0.375	-38.8125	-26.9375	-2.7793467	0.93138784	-0.15415563
1276878095610	0.9942854	5.434519	7.0553403	-0.8455992	0.0	-1.125	-38.8125	-27.1875	-2.7297435	0.9064728	-0.18095604
1276878095650	0.8036005	5.134871	7.205164	-0.92255974	0.0	-1.125	-38.0625	-26.9375	-2.831162	0.94589144	-0.15523948
1276878095690	0.88532263	4.9850473	7.273266	-0.94465923	0.0	-2.0625	-37.5625	-26.9375	-2.8525684	0.96268046	-0.17576304
1276878095730	1.0351465	5.134871	7.504812	-0.65456676	0.0	-3.0625	-37.3125	-26.9375	-2.8593	0.9614308	-0.19892539
1276878095760	0.61291564	5.012288	7.8589406	-0.46525574	0.0	-3.5625	-37.0625	-27.4375	-3.0832672	0.9996886	-0.12167851
1276878095810	0.3405087	4.7126403	8.430995	-0.14194107	0.0	-4.5	-37.0625	-28.1875	3.044969	1.0599858	-0.07212899
1276878095840	0.313268	4.7943625	8.19945	-0.30322838	0.0	-5.0	-36.8125	-28.6875	2.9944746	1.040761	-0.065248154
1276878095880	0.10896278	5.012288	8.008764	-0.35809422	0.0	-5.5	-36.5625	-29.1875	2.8486853	1.0114795	-0.021735705
1276878095920	0.19068487	5.366417	7.205164	-0.82059574	0.0	-5.5	-36.8125	-28.6875	2.8185034	0.93032837	-0.035518054
1276878095950	0.040861044	5.829509	6.701211	-0.92458534	0.0	-5.0	-37.3125	-27.9375	2.6928322	0.8548392	-0.007009231
1276878095980	-0.50395286	6.0882955	6.742072	-0.70847225	0.0	-3.3125	-38.0625	-27.1875	2.5531106	0.8346111	0.082585774
1276878096020	-1.1849703	6.891896	7.205164	0.23410511	0.0	-1.375	-38.8125	-26.6875	2.4020395	0.8003384	0.17027192
1276878096050	-1.0351465	6.973618	7.246025	0.30313492	0.0	1.125	-39.375	-25.875	2.704428	0.7991073	0.14736149
1276878096090	-1.2666923	6.2789803	6.8237944	-0.44746876	0.0	4.0625	-40.625	-25.375	2.8222833	0.8170084	0.1990636
1276878096130	-1.6480621	6.2789803	6.2108784	-0.822402	0.0	5.75	-42.125	-23.625	2.7405756	0.7632971	0.25668296
1276878096160	-1.920469	6.469665	5.8567495	-0.8709755	0.0	7.1875	-43.9375	-22.0625	2.7130322	0.71475774	0.28855714
1276878096200	-1.879608	6.3198414	5.7886477	-1.0327244	0.0	7.4375	-45.1875	-20.8125	2.759937	0.7204936	0.28908247
1276878096240	-1.3756552	6.0882955	5.6660647	-1.3767004	0.0	6.9375	-45.75	-19.75	2.942058	0.73708856	0.22221923
1276878096280	-1.2666923	6.4424243	5.47538	-1.257432	0.0	6.9375	-46.0	-19.75	3.000899	0.6950891	0.19414088
1276878096320	-1.607201	6.8237944	5.7886477	-0.71513176	0.0	7.1875	-46.25	-19.25	2.9036014	0.6902222	0.23131315
1276878096360	-1.9885708	6.782933	5.47538	-0.86559963	0.0	7.9375	-46.25	-19.0	2.7620845	0.65907604	0.2851815
1276878096390	-1.9885708	6.782933	4.903325	-1.2040234	0.0	8.9375	-45.75	-18.0	2.7888925	0.6064815	0.2851815
1276878096430	-2.1383946	6.932757	4.671779	-1.1775503	0.0	9.6875	-46.0	-17.25	2.7638807	0.57209927	0.29918906
1276878096460	-2.070293	6.782933	4.630918	-1.3367214	0.0	10.625	-45.75	-16.4375	2.8785062	0.57847553	0.29623967
1276878096500	-2.070293	6.891896	4.7943625	-1.1596708	0.0	11.375	-46.0	-16.1875	2.9603648	0.58770823	0.2918194
1276878096540	-1.7297841	6.851035	4.7126403	-1.3132515	0.0	11.625	-47.0	-16.4375	3.1238189	0.5881937	0.24731618
1276878096570	-1.7570249	6.742072	5.366417	-1.0122709	0.0	12.125	-47.25	-17.25	3.1302555	0.65632546	0.25493568
1276878096610	-1.4165162	6.5513873	5.8976107	-0.8786602	0.0	11.625	-47.0	-18.75	-3.061849	0.721585	0.21293834
1276878096650	-1.2666923	6.932757	6.742072	-0.05354023	0.0	10.875	-46.5	-20.0	-3.0158994	0.7632507	0.1807178
1276878096690	-1.7297841	6.932757	7.246025	0.36980057	0.0	10.125	-45.1875	-22.0625	3.077837	0.79239726	0.24451634
1276878096730	-1.920469	6.2789803	7.7363577	0.340518	0.0	9.1875	-43.4375	-23.875	2.9302788	0.8670378	0.29682136
1276878096771	-1.6480621	6.2108784	7.3141265	-0.07075977	0.0	8.9375	-42.125	-24.875	3.0061674	0.84996	0.25937358
1276878096810	-1.879608	6.1291566	6.891896	-0.39401436	0.0	9.1875	-41.625	-25.375	2.899112	0.82154083	0.29756173
1276878096850	-2.1111538	6.3607025	6.701211	-0.32921696	0.0	9.875	-41.875	-24.625	2.8535182	0.78534645	0.3204652
1276878096890	-2.2609777	6.4015636	6.1700177	-0.63271046	0.0	10.875	-42.9375	-23.625	2.8209765	0.73766154	0.33951518
1276878096930	-2.6423476	6.5513873	5.829509	-0.64772797	0.0	11.625	-44.1875	-22.3125	2.6830087	0.6899312	0.38337067
1276878096960	-2.982856	6.742072	5.5571017	-0.57440567	0.0	11.875	-44.4375	-20.8125	2.5559	0.64590716	0.41653606
1276878097000	-3.3642259	6.932757	5.175732	-0.5239067	0.0	12.8125	-44.9375	-19.5	2.4346678	0.59144956	0.45179045
1276878097040	-3.568531	7.0553403	4.7943625	-0.56012917	0.0	13.0625	-45.5	-17.75	2.3591056	0.54510105	0.46827006
1276878097070	-3.336985	6.851035	4.903325	-0.7449312	0.0	13.0625	-45.5	-16.9375	2.5015082	0.5717484	0.45325628
1276878097110	-2.982856	6.851035	5.134871	-0.7401724	0.0	13.8125	-46.0	-17.25	2.722521	0.60207987	0.41063607
1276878097150	-2.7240696	7.014479	5.5162406	-0.47646332	0.0	13.0625	-46.0	-17.75	2.828636	0.632577	0.3704227
1276878097190	-2.4108016	6.932757	5.597963	-0.5756006	0.0	12.5625	-46.0	-18.5	2.9161398	0.65156	0.33466065
1276878097230	-2.3018389	6.782933	5.47538	-0.79075146	0.0	12.5625	-46.0	-19.25	2.932653	0.6526611	0.3271624
1276878097260	-2.4516625	6.891896	5.434519	-0.69386387	0.0	11.125	-45.75	-19.0	2.7760775	0.63896126	0.34177145
1276878097300	-2.5606253	6.973618	5.434519	-0.60218716	0.0	11.125	-45.75	-19.0	2.7760775	0.63896126	0.34177145
1276878097330	-2.7513103	6.973618	5.47538	-0.52328587	0.0	11.125	-45.5	-19.0	2.6558676	0.63081807	0.3757831
1276878097360	-2.6832085	6.851035	5.434519	-0.65950394	0.0	10.625	-45.1875	-18.5	2.6540158	0.6361734	0.3732875
1276878097390	-2.6832085	6.8237944	5.47538	-0.65549946	0.0	11.375	-45.1875	-18.75	2.7012978	0.6414114	0.37464237
1276878097430	-2.6014864	6.973618	5.6252036	-0.47702026	0.0	11.125	-44.9375	-19.0	2.7437747	0.6471807	0.3570572
1276878097460	-2.6014864	6.851035	5.6252036	-0.5682888	0.0	10.625	-44.4375	-19.5	2.6925676	0.65466845	0.36290377
1276878097500	-2.4925237	6.782933	5.597963	-0.66564083	0.0	11.375	-44.6875	-19.5	2.7839453	0.6590941	0.35215265
1276878097540	-2.4516625	6.782933	5.5162406	-0.72657585	0.0	11.625	-44.4375	-19.5	2.8145497	0.6529227	0.3468349
1276878097570	-2.6423476	6.782933	5.5162406	-0.6732445	0.0	12.125	-44.6875	-19.0	2.770821	0.64846426	0.37147257
1276878097610	-2.7240696	6.891896	5.6252036	-0.5027962	0.0	13.0625	-45.1875	-19.0	2.8150802	0.64927626	0.37641087
1276878097650	-2.7240696	6.851035	5.6252036	-0.53302383	0.0	12.5625	-45.5	-19.5	2.764143	0.6517527	0.37844804
1276878097690	-2.6832085	6.932757	5.5162406	-0.5496721	0.0	12.125	-46.0	-19.5	2.7411993	0.63838696	0.36927852
1276878097730	-2.6423476	6.891896	5.407278	-0.65684795	0.0	11.875	-46.25	-19.75	2.717124	0.63226336	0.366114
1276878097770	-2.6423476	6.701211	5.325556	-0.8484268	0.0	11.375	-46.5	-19.25	2.6706717	0.63662875	0.3755907
1276878097800	-2.5333846	6.8237944	5.434519	-0.72280693	0.0	11.375	-46.0	-19.0	2.7498822	0.6413305	0.35548553
1276878097830	-2.5333846	6.973618	5.597963	-0.51221275	0.0	11.875	-45.75	-19.25	2.8104906	0.6463688	0.34845734
1276878097860	-2.5606253	7.014479	5.6660647	-0.43306923	0.0	12.125	-45.5	-19.25	2.828528	0.64910257	0.35001767
1276878097900	-2.4925237	6.8237944	5.597963	-0.63527966	0.0	12.125	-44.6875	-19.5	2.8408427	0.65653217	0.3502126
1276878097930	-2.4516625	6.782933	5.47538	-0.75134087	0.0	12.125	-45.1875	-19.5	2.8385618	0.6493384	0.34683487
1276878097960	-2.5333846	6.891896	5.434519	-0.6715393	0.0	12.125	-45.1875	-19.25	2.8104942	0.6371469	0.35225752
1276878098000	-2.6832085	6.973618	5.407278	-0.5833311	0.0	11.375	-45.1875	-19.5	2.6815128	0.62643653	0.3673047
1276878098040	-2.8330324	6.932757	5.47538	-0.5293131	0.0	11.625	-45.75	-19.25	2.6440232	0.63129264	0.38793617
1276878098070	-2.8330324	6.891896	5.5162406	-0.5355549	0.0	12.125	-45.75	-19.25	2.680798	0.63725746	0.3900105
1276878098150	-2.7513103	6.8237944	5.47538	-0.6352997	0.0	12.5625	-46.25	-19.0	2.7367523	0.6397677	0.38325647
1276878098190	-3.214402	6.932757	5.8567495	-0.17872143	0.0	12.5625	-46.0	-19.25	2.6034272	0.6539275	0.43415058
1276878098230	-4.3312707	7.5865335	6.3198414	0.9755478	0.0	12.375	-45.75	-19.5	2.3192348	0.6262822	0.51875937
1276878098270	-5.47538	7.9270425	5.8976107	1.4893484	0.0	12.375	-45.75	-19.75	1.9596311	0.54930824	0.6044717
1276878098300	-5.134871	7.3141265	4.903325	0.38677597	0.0	13.5625	-46.25	-18.75	1.9133677	0.5018271	0.61209947
1276878098331	-4.2904096	6.510526	3.6774938	-1.1858311	0.0	14.5625	-46.5	-17.5	1.8707881	0.44071126	0.5826732
1276878098370	-3.568531	5.8567495	2.7240696	-2.4271865	0.0	16.0	-47.0	-15.6875	1.8683777	0.3780856	0.5472314
1276878098400	-3.0237172	5.5571017	1.879608	-3.2068644	0.0	17.25	-46.75	-12.875	1.8030976	0.28879607	0.4983158
1276878098430	-2.6014864	5.6252036	1.5390993	-3.4207692	0.0	18.4375	-47.25	-11.875	1.785737	0.24341255	0.43317527
1276878098460	-2.070293	5.7886477	1.9477097	-3.3577642	0.0	19.1875	-48.0	-10.8125	-2.7966254	0.30681366	0.34347108
1276878098490	-1.4165162	6.3607025	2.9556155	-2.6511822	0.0	19.4375	-47.75	-10.5625	-2.4947345	0.4258082	0.21912235
1276878098530	-1.525479	7.205164	4.6036777	-1.1212988	0.0	18.1875	-47.75	-12.125	-2.6943648	0.55866057	0.20863917
1276878098560	-4.0588636	10.310603	8.117727	3.929449	0.0	15.75	-46.75	-14.9375	2.9979208	0.6322703	0.37502825
1276878098600	-3.336985	8.662541	8.662541	2.8903856	0.0	13.3125	-45.1875	-18.75	2.936026	0.7508344	0.36770055
1276878098640	-1.9477097	6.238119	8.240311	0.7104988	0.0	10.875	-44.1875	-21.5625	3.0165665	0.90029764	0.3026362
1276878098680	-1.334794	5.829509	6.510526	-0.9663	0.0	9.4375	-43.1875	-23.875	3.114785	0.82781607	0.22509179
1276878098720	-1.525479	6.4424243	5.8976107	-0.94021225	0.0	9.1875	-42.9375	-24.375	3.055151	0.72770965	0.23250428
1276878098750	-2.0294318	6.8237944	6.0474343	-0.46565342	0.0	9.4375	-43.1875	-23.875	2.835856	0.70417833	0.2890745
1276878098780	-2.5333846	6.5922484	5.829509	-0.6491966	0.0	9.6875	-43.6875	-23.3125	2.5649998	0.6900636	0.36689687
1276878098820	-3.0645783	6.5513873	5.7886477	-0.54270077	0.0	10.875	-43.9375	-22.3125	2.437778	0.67494893	0.43753725
1276878098850	-3.2961242	6.8237944	5.6252036	-0.36887932	0.0	11.875	-44.4375	-22.0625	2.388542	0.638549	0.44998285
1276878098890	-3.3642259	6.742072	5.407278	-0.5323734	0.0	12.375	-44.9375	-20.8125	2.3969855	0.622466	0.4628392
1276878098930	-3.1463003	6.5922484	5.175732	-0.8542681	0.0	13.0625	-45.5	-20.5625	2.488877	0.6164475	0.44530103
1276878098970	-3.0237172	6.66035	5.366417	-0.73462963	0.0	13.3125	-45.75	-20.8125	2.5932503	0.6329612	0.4261652
1276878099010	-2.9556155	6.742072	5.5571017	-0.5831709	0.0	12.8125	-45.5	-20.25	2.6445472	0.6466238	0.41315207
1276878099050	-2.8738933	6.742072	5.7477865	-0.49258327	0.0	12.8125	-45.1875	-20.5625	2.7006915	0.66506225	0.4029396
1276878099080	-2.8738933	6.701211	5.706926	-0.54735756	0.0	12.125	-44.9375	-20.25	2.656257	0.6640938	0.40513706
1276878099120	-2.7921712	6.742072	5.6660647	-0.56781673	0.0	11.375	-44.6875	-20.5625	2.630454	0.6602165	0.3926375
1276878099160	-2.7240696	6.701211	5.5571017	-0.6847992	0.0	11.625	-44.9375	-20.0	2.6733887	0.65506107	0.38610074
1276878099200	-2.7240696	6.5922484	5.597963	-0.7393751	0.0	11.375	-44.9375	-20.5625	2.6407657	0.6654091	0.3918534
1276878099240	-2.8330324	6.742072	5.7886477	-0.47980404	0.0	12.375	-44.9375	-21.0625	2.6836605	0.6695633	0.3977997
1276878099270	-2.8738933	6.701211	5.706926	-0.54735756	0.0	12.5625	-45.1875	-20.5625	2.6755755	0.6640938	0.40513706
1276878099310	-2.7921712	6.6331096	5.6252036	-0.6722498	0.0	11.875	-44.6875	-21.5625	2.6234257	0.6634342	0.39843062
1276878099343	-2.8738933	6.701211	5.597963	-0.61411667	0.0	12.125	-44.6875	-21.3125	2.6105363	0.6547594	0.40513706
1276878099380	-2.9147544	6.66035	5.5571017	-0.6558342	0.0	11.875	-44.1875	-21.0625	2.5747411	0.6526317	0.41251773
1276878099410	-2.9147544	6.742072	5.706926	-0.5050192	0.0	11.875	-44.4375	-20.5625	2.618578	0.66053617	0.4080571
1276878099440	-2.9556155	6.782933	5.6252036	-0.51220226	0.0	12.375	-44.4375	-20.0	2.6415622	0.6500446	0.41093475
1276878099470	-2.9147544	6.701211	5.597963	-0.6012602	0.0	12.125	-44.4375	-20.25	2.6256418	0.6536876	0.41027597
1276878099510	-2.8738933	6.701211	5.6252036	-0.5975027	0.0	11.625	-44.4375	-20.25	2.6135864	0.6571057	0.4051371
1276878099550	-2.8738933	6.701211	5.5571017	-0.6389427	0.0	11.375	-43.9375	-20.8125	2.5687659	0.65122414	0.40513706
1276878099580	-2.7921712	6.742072	5.5571017	-0.63423824	0.0	11.375	-44.4375	-20.25	2.6238225	0.6508333	0.3926375
1276878099620	-2.8738933	6.742072	5.6252036	-0.56772614	0.0	11.625	-44.4375	-19.75	2.6303158	0.65462166	0.40293962
1276878099660	-2.8330324	6.701211	5.6660647	-0.58512115	0.0	12.125	-44.4375	-19.5	2.690455	0.66167444	0.39997542
1276878099700	-2.7921712	6.701211	5.597963	-0.6393366	0.0	12.125	-44.1875	-19.5	2.701176	0.6568732	0.39479113
1276878099740	-2.8738933	6.701211	5.6660647	-0.5724869	0.0	12.125	-43.9375	-19.5	2.6767695	0.66060936	0.40513706
1276878099780	-2.8738933	6.742072	5.5571017	-0.60903263	0.0	11.625	-43.9375	-20.0	2.6148763	0.648748	0.40293962
1276878099810	-2.9147544	6.701211	5.597963	-0.6012602	0.0	11.125	-44.1875	-20.25	2.558925	0.6536876	0.41027597
1276878099850	-2.9556155	6.742072	5.5162406	-0.60773087	0.0	11.125	-44.4375	-20.5625	2.5175683	0.6430784	0.41315207
1276878099890	-2.9147544	6.742072	5.5162406	-0.6207781	0.0	11.125	-44.6875	-20.8125	2.5262904	0.64414316	0.40805712
1276878099930	-2.8738933	6.701211	5.47538	-0.6882467	0.0	11.125	-44.9375	-20.5625	2.543522	0.6440959	0.40513706
1276878099960	-2.8738933	6.701211	5.597963	-0.61411667	0.0	10.875	-44.9375	-20.5625	2.548551	0.6547594	0.40513706
1276878100000	-2.8738933	6.742072	5.6252036	-0.56772614	0.0	10.875	-44.9375	-20.25	2.5645676	0.65462166	0.40293962
1276878100040	-2.8738933	6.742072	5.706926	-0.5177431	0.0	11.375	-44.6875	-20.5625	2.6014588	0.6616009	0.40293962
1276878100070	-2.9556155	6.742072	5.6252036	-0.5419798	0.0	11.875	-44.4375	-20.5625	2.587876	0.65249044	0.41315207
1276878100110	-2.982856	6.782933	5.5571017	-0.54452324	0.0	12.375	-44.1875	-20.5625	2.6028445	0.6434776	0.41430494
1276878100150	-3.0237172	6.66035	5.434519	-0.69417953	0.0	12.5625	-44.6875	-20.5625	2.5667741	0.63898695	0.4261652
1276878100180	-2.9556155	6.8237944	5.47538	-0.5719538	0.0	12.375	-44.6875	-20.0	2.6191332	0.6346726	0.40873978
1276878100210	-2.7921712	6.8237944	5.5162406	-0.59853935	0.0	12.375	-44.4375	-19.75	2.708694	0.64233065	0.38839644
1276878100250	-2.7240696	6.742072	5.597963	-0.6298704	0.0	12.125	-44.6875	-19.5	2.7299314	0.65607804	0.38398463
1276878100290	-2.7513103	6.742072	5.6660647	-0.58008385	0.0	11.875	-44.6875	-20.0	2.6975248	0.6612492	0.3874531
1276878100320	-2.8330324	6.701211	5.5571017	-0.65166855	0.0	11.375	-44.6875	-20.0	2.6101804	0.65228397	0.39997542
1276878100360	-2.9147544	6.782933	5.5571017	-0.5662308	0.0	11.125	-45.1875	-20.0	2.5616176	0.64524055	0.40586075
1276878100400	-2.9556155	6.782933	5.5162406	-0.5777416	0.0	11.375	-45.1875	-20.25	2.545733	0.6406456	0.41093475
1276878100430	-2.982856	6.782933	5.434519	-0.617548	0.0	11.625	-44.6875	-19.75	2.5541317	0.63280517	0.41430497
1276878100460	-3.0237172	6.782933	5.407278	-0.6202631	0.0	11.625	-44.6875	-20.25	2.5138	0.62934893	0.41934165
1276878100490	-2.982856	6.8237944	5.407278	-0.6033764	0.0	11.625	-44.4375	-20.5625	2.5220075	0.6280136	0.41209626
1276878100530	-2.8330324	6.8237944	5.47538	-0.6104536	0.0	11.375	-44.9375	-20.8125	2.5756335	0.63775855	0.39351487
1276878100560	-2.6832085	6.8237944	5.47538	-0.65549946	0.0	10.875	-44.9375	-21.0625	2.6006522	0.6414114	0.37464237
1276878100600	-2.5606253	6.782933	5.5571017	-0.671752	0.0	11.375	-45.75	-20.8125	2.7095602	0.65396434	0.3609694
1276878100640	-2.5333846	6.782933	5.597963	-0.65441513	0.0	11.125	-45.75	-21.0625	2.703779	0.6581443	0.35744965
1276878100680	-2.6014864	6.8237944	5.597963	-0.60506916	0.0	11.125	-45.5	-21.0625	2.675637	0.6540048	0.36422795
1276878100720	-2.6423476	6.782933	5.597963	-0.6236563	0.0	11.625	-45.75	-21.0625	2.688581	0.6555573	0.3714726
1276878100750	-2.7240696	6.782933	5.597963	-0.5998087	0.0	10.875	-44.9375	-20.8125	2.6091366	0.6535669	0.38189045
1276878100780	-2.7240696	6.782933	5.6252036	-0.5832205	0.0	11.125	-44.9375	-20.5625	2.6382453	0.6559117	0.38189045
1276878100810	-2.7513103	6.782933	5.597963	-0.591712	0.0	10.875	-44.4375	-20.8125	2.5981343	0.65289414	0.38534397
1276878100840	-2.7513103	6.782933	5.5571017	-0.616477	0.0	10.625	-44.1875	-20.5625	2.5820036	0.6493624	0.38534394
1276878100880	-2.7921712	6.851035	5.597963	-0.529253	0.0	11.125	-44.4375	-21.3125	2.5837753	0.64775544	0.387002
1276878100920	-2.7240696	6.701211	5.5571017	-0.6847992	0.0	11.125	-44.4375	-21.5625	2.593586	0.65506107	0.38610074
1276878100950	-2.7240696	6.782933	5.597963	-0.5998087	0.0	11.375	-44.6875	-21.0625	2.6380353	0.6535669	0.38189045
1276878100990	-2.6832085	6.851035	5.597963	-0.56146336	0.0	11.375	-45.75	-21.0625	2.6559594	0.6503943	0.37328753
1276878101030	-2.7513103	6.8237944	5.5571017	-0.58627796	0.0	11.625	-45.5	-20.5625	2.6501603	0.6468781	0.38325647
1276878101060	-2.8330324	6.8237944	5.5162406	-0.5860672	0.0	11.875	-45.75	-20.5625	2.6231644	0.64131904	0.39351487
1276878101100	-2.982856	6.891896	5.5571017	-0.46443176	0.0	11.875	-45.75	-20.25	2.577723	0.63706344	0.40846404
1276878101141	-3.0645783	6.973618	5.5571017	-0.37773895	0.0	12.125	-44.9375	-19.75	2.5830092	0.63027674	0.4140486
1276878101180	-2.9556155	7.0553403	5.597963	-0.32769012	0.0	11.375	-45.1875	-20.0	2.579773	0.6317615	0.39670867
1276878101220	-2.6423476	6.891896	5.5162406	-0.59203434	0.0	10.625	-45.1875	-19.75	2.6511216	0.6418026	0.36611396
1276878101260	-2.4516625	6.782933	5.6252036	-0.6599703	0.0	10.375	-45.75	-19.75	2.7239144	0.66238534	0.3468349
1276878101300	-2.2609777	6.782933	5.5571017	-0.7511778	0.0	9.875	-46.0	-20.5625	2.7477598	0.6607046	0.32175055
1276878101340	-1.9885708	6.973618	5.47538	-0.72009087	0.0	9.875	-46.0	-20.25	2.889943	0.6467302	0.27778366
1276878101380	-2.070293	7.014479	5.407278	-0.711174	0.0	10.125	-45.75	-20.25	2.867151	0.6366461	0.28699732
1276878101410	-2.3699405	6.8237944	5.597963	-0.6678333	0.0	10.125	-45.1875	-20.8125	2.7200487	0.65927994	0.33427227
1276878101440	-2.7921712	6.510526	5.7477865	-0.6841383	0.0	10.375	-45.1875	-20.0	2.582007	0.6816385	0.40514424
1276878101470	-3.255263	6.4015636	5.829509	-0.5567894	0.0	10.625	-44.9375	-20.25	2.4268134	0.6818451	0.4704329
1276878101500	-3.405087	6.6331096	5.706926	-0.41720104	0.0	10.875	-44.6875	-20.25	2.3730514	0.6532897	0.4742681
1276878101540	-3.2961242	7.014479	5.597963	-0.24607754	0.0	11.125	-44.4375	-20.0	2.4234872	0.62552863	0.43928134
1276878101580	-3.0645783	6.851035	5.012288	-0.78160954	0.0	11.125	-44.4375	-20.5625	2.3537948	0.5888146	0.42061976
1276878101620	-2.8330324	7.014479	4.440233	-1.0348396	0.0	11.875	-45.1875	-20.0	2.3809562	0.53076524	0.38384974
1276878101660	-2.8330324	7.164303	4.8216033	-0.718132	0.0	12.125	-45.5	-20.0	2.5347261	0.55920905	0.37656683
1276878101700	-2.8738933	7.1234417	5.7886477	-0.18838024	0.0	12.8125	-45.75	-20.0	2.7434716	0.64580154	0.38346982
1276878101740	-2.7240696	6.469665	6.4015636	-0.3062744	0.0	13.0625	-45.5	-20.0	2.820568	0.7393695	0.39852244
1276878101780	-2.4516625	6.4015636	6.6331096	-0.2678442	0.0	12.125	-44.9375	-20.8125	2.872817	0.76895064	0.36574727
1276878101820	-2.3018389	6.469665	6.510526	-0.34398746	0.0	11.375	-44.6875	-21.0625	2.8858988	0.7587607	0.34182316
1276878101850	-2.3699405	6.5922484	6.0882955	-0.52539444	0.0	10.375	-44.4375	-21.3125	2.7730632	0.71547705	0.34511653
1276878101890	-2.2201166	6.932757	6.3607025	-0.13966656	0.0	9.875	-44.4375	-21.3125	2.8491795	0.71813595	0.3099168
1276878101930	-2.5606253	6.66035	5.8976107	-0.5492821	0.0	9.6875	-44.1875	-21.5625	2.6204364	0.69069374	0.3670368
1276878101960	-2.8330324	6.5513873	5.706926	-0.66795444	0.0	9.1875	-43.6875	-22.5625	2.3985634	0.6744646	0.4081491
1276878101991	-2.0294318	6.1700177	6.469665	-0.6390829	0.0	7.9375	-42.9375	-24.125	2.729506	0.783428	0.3177718
1276878102030	-1.7978859	5.9793324	6.3607025	-0.8935509	0.0	7.4375	-42.4375	-25.125	2.766077	0.7946741	0.29208362
1276878102060	-1.6480621	6.1700177	6.3607025	-0.7931175	0.0	7.1875	-41.375	-25.625	2.8241243	0.78338754	0.26101455
1276878102100	-1.6480621	6.3198414	6.238119	-0.7750044	0.0	7.4375	-41.125	-25.125	2.8504236	0.76245064	0.25509465
1276878102140	-1.56634	6.5513873	6.0201936	-0.77244663	0.0	7.9375	-41.875	-23.3125	2.960012	0.7293403	0.23467986
1276878102180	-1.7978859	6.782933	5.9793324	-0.5874853	0.0	7.4375	-42.4375	-22.0625	2.8197587	0.70571256	0.25910202
1276878102220	-1.9885708	7.0553403	5.8976107	-0.39845943	0.0	7.1875	-43.4375	-20.8125	2.7322173	0.6775155	0.27472642
1276878102260	-2.3426998	7.3958488	5.7886477	-0.12701893	0.0	7.1875	-44.4375	-19.75	2.5953953	0.6410329	0.30676
1276878102300	-2.5606253	7.082581	5.407278	-0.5352745	0.0	7.6875	-44.6875	-19.5	2.4783988	0.62269056	0.34691685
1276878102330	-2.5606253	7.273266	5.2165933	-0.49697495	0.0	7.9375	-44.9375	-19.75	2.443934	0.5947975	0.33850873
1276878102370	-2.5606253	7.082581	5.09401	-0.7144184	0.0	8.4375	-45.1875	-20.0	2.4432366	0.59469914	0.34691685
1276878102410	-2.6014864	6.701211	5.434519	-0.795105	0.0	8.1875	-45.1875	-20.8125	2.45263	0.64733386	0.37030268
1276878102440	-2.3699405	6.4015636	5.243834	-1.1988373	0.0	8.1875	-44.9375	-21.3125	2.4952984	0.65504473	0.35456705
1276878102470	-2.3426998	6.3198414	5.284695	-1.2418013	0.0	8.4375	-44.1875	-21.8125	2.5113602	0.66495204	0.3549864
1276878102500	-2.3699405	6.1700177	5.597963	-1.1450729	0.0	8.4375	-43.6875	-21.8125	2.5530226	0.7027235	0.36672997
1276878102540	-1.920469	6.742072	6.4424243	-0.28569603	0.0	8.1875	-43.6875	-22.0625	2.851284	0.7432134	0.27749902
1276878102570	-2.2201166	6.851035	6.2789803	-0.25200748	0.0	8.4375	-43.4375	-22.5625	2.71679	0.7170518	0.31337753
1276878102610	-2.5606253	6.2108784	5.434519	-1.1657124	0.0	8.4375	-43.9375	-22.3125	2.422678	0.6801722	0.39104816
1276878102650	-2.4516625	6.701211	5.9793324	-0.49701595	0.0	9.1875	-43.9375	-22.0625	2.6336455	0.697461	0.35072795
1276878102690	-2.6832085	7.0553403	6.0882955	-0.10898113	0.0	10.125	-44.1875	-22.0625	2.6259744	0.6787366	0.3634169
1276878102730	-2.8738933	6.3198414	5.7886477	-0.7673969	0.0	10.375	-43.9375	-21.8125	2.4961221	0.695006	0.42678985
1276878102760	-3.0237172	6.1700177	5.6660647	-0.90068245	0.0	10.625	-43.9375	-22.3125	2.4078126	0.6895757	0.45566902
1276878102800	-2.9556155	6.238119	5.938472	-0.70086956	0.0	11.125	-43.6875	-23.3125	2.4830422	0.71043694	0.44246808
1276878102830	-3.0237172	6.3607025	5.938472	-0.59432983	0.0	11.625	-43.1875	-23.625	2.4786038	0.7005298	0.44375405
1276878102860	-3.1054392	6.1291566	5.6660647	-0.90077496	0.0	11.875	-43.1875	-24.125	2.3773415	0.6895843	0.4689667
1276878102900	-3.3642259	6.469665	5.5571017	-0.63844585	0.0	12.8125	-42.125	-24.625	2.260233	0.65118283	0.4795193
1276878102930	-3.445948	6.66035	6.3607025	0.02662754	0.0	12.5625	-41.875	-25.625	2.3663006	0.7034529	0.47745663
1276878102960	-3.3642259	6.851035	7.082581	0.6057291	0.0	12.5625	-40.375	-27.1875	2.4866366	0.748046	0.45646495
1276878102990	-3.6774938	8.049625	8.430995	2.4163647	0.0	12.125	-38.8125	-30.0	2.445679	0.76116294	0.42853808
1276878103030	-3.2961242	7.7772183	9.043911	2.5684013	0.0	10.875	-37.0625	-32.5	2.4918528	0.81951964	0.40086895
1276878103060	-2.1792557	7.5865335	8.539958	1.8224316	0.0	9.4375	-34.0	-35.0625	2.9929512	0.8247266	0.2797218
1276878103100	-2.9556155	7.4639506	8.962189	2.2252674	0.0	8.1875	-31.9375	-37.125	1.4730155	0.8403368	0.3770407
1276878103140	-3.3642259	8.730643	8.62168	2.916381	0.0	7.1875	-31.1875	-37.625	0.6288009	0.7445535	0.36780092
1276878103180	-4.4810944	6.932757	9.043911	2.4381714	0.0	6.75	-31.6875	-37.125	1.3436073	0.83097744	0.57381594
1276878103220	-3.6774938	4.7535014	6.891896	-0.662364	0.0	6.0	-34.0	-35.0625	1.5702103	0.8536485	0.6584592
1276878103260	-3.0237172	3.5957718	7.7772183	-0.7205305	0.0	2.8125	-35.5	-32.25	1.945131	1.0273756	0.6991926
1276878103290	-0.84446156	0.38136974	5.706926	-4.024993	0.0	-2.0625	-36.0625	-30.25	1.8022987	1.4098394	1.1466019
1276878103330	2.8330324	-0.95342433	2.3699405	-5.99198	0.0	-8.1875	-35.25	-28.6875	-0.97078115	0.67036253	-1.8954287
1276878103370	7.5456724	-1.9885708	3.8273177	-1.1152782	0.0	-15.75	-31.9375	-26.6875	-1.0324878	0.45599768	-1.8284755
1276878103410	9.343558	-2.0294318	6.742072	1.8927603	0.0	-21.375	-27.875	-25.625	-1.2010835	0.6141628	-1.7846755
1276878103440	9.00305	-0.9125633	7.082581	1.6846781	0.0	-25.0625	-23.8125	-25.125	-1.3495547	0.6640882	-1.6718129
1276878103470	6.4424243	-0.42223078	7.5456724	0.12412453	0.0	-26.75	-20.75	-25.125	-1.6999495	0.8630472	-1.6362418
1276878103500	4.7126403	0.50395286	7.205164	-1.1824207	0.0	-25.8125	-19.9375	-26.6875	-2.034812	0.98896194	-1.4642648
1276878103530	4.2495484	1.0760075	6.851035	-1.673192	0.0	-24.0625	-20.75	-28.4375	-2.115679	1.001587	-1.3228034
1276878103560	4.671779	1.5390993	6.3607025	-1.7659483	0.0	-22.625	-22.0	-28.9375	-1.9014634	0.91254485	-1.2525483
1276878103590	4.7126403	1.8387469	6.238119	-1.7752056	0.0	-21.875	-23.0	-29.4375	-1.8443087	0.88942856	-1.1987897
1276878103630	4.5219555	2.070293	6.782933	-1.3958015	0.0	-22.375	-23.5625	-29.4375	-2.0893455	0.93812454	-1.141449
1276878103670	4.3312707	2.070293	7.3549876	-1.0236063	0.0	-22.625	-24.3125	-29.6875	-2.2407553	0.9925229	-1.1249133
1276878103710	4.140586	2.1111538	7.8589406	-0.6762409	0.0	-22.125	-24.8125	-30.25	-2.3224874	1.0367285	-1.0992852
1276878103750	4.140586	2.1792557	8.240311	-0.33055782	0.0	-21.625	-24.8125	-31.0	-2.3346121	1.0543705	-1.0863184
1276878103790	4.0588636	2.3018389	8.349273	-0.2419653	0.0	-20.4375	-25.3125	-32.5	-2.2952614	1.0611706	-1.0549088
1276878103820	3.7864566	2.4516625	8.580819	-0.11240673	0.0	-19.9375	-25.3125	-32.5	-2.4214833	1.0868074	-0.99619323
1276878103850	3.636633	2.4516625	8.662541	-0.097099304	0.0	-19.4375	-25.3125	-33.0625	-2.443631	1.1021202	-0.97762585
1276878103880	3.5957718	2.6014864	8.771504	0.023741722	0.0	-18.4375	-25.8125	-33.3125	-2.4329531	1.1023799	-0.94448197
1276878103920	3.486809	2.5606253	8.730643	-0.06299782	0.0	-18.0	-25.5625	-32.75	-2.4500499	1.1107545	-0.9373705
1276878103950	3.336985	2.8330324	8.853226	0.06964207	0.0	-17.5	-25.8125	-33.0625	-2.5443513	1.1116064	-0.8668949
1276878103980	3.1054392	2.7649305	8.689782	-0.17332745	0.0	-17.0	-25.8125	-33.5625	-2.57195	1.124506	-0.8433379
1276878104020	2.8330324	2.8330324	8.689782	-0.23771763	0.0	-16.75	-26.0625	-34.0625	-2.6797554	1.1387829	-0.7853982
1276878104050	2.4516625	2.8738933	8.853226	-0.18118763	0.0	-16.0	-26.3125	-34.5625	-2.8133001	1.1674979	-0.70627975
1276878104080	2.3018389	2.8330324	8.689782	-0.38132	0.0	-14.8125	-26.3125	-35.0625	-2.789249	1.1731126	-0.6823166
1276878104120	2.152015	2.6832085	8.730643	-0.42289257	0.0	-13.5625	-27.125	-34.8125	-2.7344928	1.1955012	-0.6759778
1276878104160	2.070293	2.4108016	8.730643	-0.51567554	0.0	-12.5625	-26.875	-35.0625	-2.6487932	1.2217251	-0.70955604
1276878104200	1.6480621	2.6832085	8.499097	-0.7429657	0.0	-11.875	-27.125	-35.3125	-2.8800342	1.2159758	-0.5508049
1276878104240	1.3075534	2.6014864	8.390134	-0.9256716	0.0	-10.875	-27.875	-36.125	-2.9713826	1.2367725	-0.46573967
1276878104280	1.4165162	2.5333846	8.580819	-0.7482281	0.0	-10.375	-27.625	-36.625	-2.870107	1.2446223	-0.5098333
1276878104310	1.0760075	2.4516625	8.730643	-0.6746969	0.0	-10.125	-27.625	-36.625	-3.036382	1.273235	-0.4135756
1276878104341	1.0760075	2.2609777	8.812365	-0.6454506	0.0	-8.9375	-27.125	-36.875	-2.9357674	1.2939514	-0.44418535
1276878104380	0.95342433	2.152015	8.771504	-0.7248287	0.0	-9.1875	-26.3125	-37.125	-3.011105	1.3086307	-0.41704923
1276878104420	0.92618364	1.6889231	7.9270425	-1.6489372	0.0	-9.1875	-25.5625	-37.875	-2.899186	1.3324242	-0.501604
1276878104450	2.3018389	0.9942854	9.152874	-0.31654167	0.0	-8.1875	-24.8125	-38.625	-1.8936039	1.3034097	-1.1630515
1276878104490	0.61291564	3.1054392	10.337844	1.0049381	0.0	-8.4375	-24.3125	-39.6875	2.8685746	1.27367	-0.19486393
1276878104520	-0.88532263	4.0588636	9.888372	0.91893005	0.0	-7.4375	-23.25	-39.9375	1.8880358	1.173067	0.21475717
1276878104550	-1.1168685	3.8681788	9.043911	0.092972755	0.0	-6.9375	-23.5625	-40.1875	1.7636912	1.151956	0.28108773
1276878104580	0.95342433	1.7978859	9.575105	-0.017674446	0.0	-7.6875	-23.25	-40.4375	-2.8781931	1.3613772	-0.4875951
1276878104620	2.6832085	0.50395286	9.152874	-0.25527954	0.0	-7.9375	-22.75	-40.1875	-1.5714095	1.2809178	-1.385142
1276878104660	2.8738933	2.4108016	9.112013	0.047283173	0.0	-9.4375	-22.5	-40.4375	-1.9662482	1.1802683	-0.87280375
1276878104700	2.3426998	1.920469	9.534244	0.19726181	0.0	-11.125	-21.5	-40.6875	-2.3180115	1.2631584	-0.8841177
1276878104740	3.8273177	2.7921712	10.038197	1.2933483	0.0	-12.125	-20.75	-40.6875	-1.8301923	1.129836	-0.9405204
1276878104771	5.366417	0.7218784	8.008764	-0.13918686	0.0	-11.625	-19.6875	-41.6875	-0.99618	0.97628903	-1.4370812
1276878104810	4.440233	0.313268	5.9793324	-2.3523746	0.0	-10.625	-18.4375	-42.5	-0.83934236	0.93086135	-1.5003608
1276878104850	2.1111538	-0.7627395	7.9679036	-1.5285931	0.0	-8.4375	-16.375	-43.75	-1.0877614	1.2961938	-1.9174937
1276878104890	0.7218784	-1.4573772	10.882658	1.1968632	0.0	-5.25	-14.875	-45.8125	-0.56976205	1.4224486	-2.6816905
1276878104920	1.8387469	-1.1441092	10.310603	0.72893333	0.0	-1.8125	-12.3125	-47.3125	-0.66392577	1.3637661	-2.1273956
1276878104950	3.718355	-1.1168685	10.18802	1.0960703	0.0	3.5625	-9.0	-48.625	-0.3199338	1.2067045	-1.8625891
1276878104990	2.9147544	-0.19068487	8.430995	-0.8839922	0.0	9.6875	-5.4375	-49.375	-0.18486716	1.2372805	-1.6361238
1276878105030	-2.2201166	0.10896278	5.243834	-4.1111617	0.0	15.5	-0.8125	-49.125	0.010590383	1.1698693	1.5217559
1276878105060	-6.1291566	2.6014864	6.4424243	-0.5417099	0.0	20.6875	2.25	-48.0625	-0.43396494	0.768914	1.1693964
1276878105100	-5.5571017	4.399372	8.049625	0.9186621	0.0	25.5625	4.0	-47.3125	-0.81007946	0.8488576	0.9011574
1276878105140	-5.243834	4.1814466	4.862464	-1.5225782	0.0	29.0	4.25	-45.8125	-0.70143443	0.62730557	0.8976412
1276878105180	-3.636633	5.47538	0.6537767	-3.2011743	0.0	33.125	3.25	-44.0	-0.6079369	0.09913726	0.5862785
1276878105220	-2.6014864	11.223166	4.140586	2.4355583	0.0	36.0625	-0.8125	-42.5	-0.7572387	0.34502703	0.22777359
1276878105260	-10.841797	6.510526	-2.070293	3.008092	0.0	36.5625	-6.4375	-41.1875	-0.28011492	-0.16226673	1.0300074
1276878105290	-4.5628166	3.255263	9.302697	1.0541143	0.0	36.5625	-11.3125	-41.1875	-2.257851	1.0285307	0.95111185
1276878105320	-0.6537767	4.399372	6.469665	-1.9556332	0.0	33.875	-15.125	-42.1875	-1.3364651	0.96853095	0.14752716
1276878105350	-1.56634	3.8681788	6.0474343	-2.4590187	0.0	30.4375	-15.875	-43.75	-1.4220061	0.9667523	0.38474876
1276878105390	-2.8738933	4.5628166	5.6252036	-2.0142517	0.0	28.25	-13.8125	-45.25	-0.94289464	0.8065201	0.56207985
1276878105430	-6.5513873	6.6331096	8.008764	2.483961	0.0	26.3125	-11.8125	-46.3125	-0.53441167	0.70971346	0.7791999
1276878105460	-3.336985	4.3312707	6.891896	-1.0092869	0.0	24.5625	-10.25	-47.3125	-0.86283994	0.90012515	0.65645504
1276878105490	-1.0760075	3.9499009	7.6954966	-1.0899887	0.0	20.875	-8.5	-48.3125	-1.03607	1.0818944	0.26596025
1276878105521	0.19068487	4.2495484	8.539958	-0.2659006	0.0	15.75	-7.4375	-49.125	-0.79113936	1.1086632	-0.044841714
1276878105560	0.61291564	4.099725	6.3198414	-2.248621	0.0	10.375	-5.6875	-49.625	-0.43651706	0.99027324	-0.14840253
1276878105600	3.486809	3.3778462	8.962189	0.38592052	0.0	5.75	-3.375	-50.125	-0.24737084	1.0743619	-0.8012698
1276878105640	1.9885708	3.0237172	9.915613	0.7487583	0.0	5.25	-1.3125	-50.125	-0.26439852	1.2208378	-0.58173966
1276878105680	1.0760075	2.7649305	9.302697	-0.04228592	0.0	7.1875	1.1875	-49.875	-0.32351658	1.262063	-0.371129
1276878105720	1.4573772	1.7570249	10.528529	0.9665117	0.0	9.4375	3.0	-49.875	-0.2783997	1.3572826	-0.6924465
1276878105760	1.3756552	0.61291564	10.119919	0.424716	0.0	11.125	4.25	-49.875	-0.03377728	1.4230633	-1.1516538
1276878105800	2.7649305	1.607201	9.043911	-0.21393108	0.0	12.125	5.8125	-49.625	-0.036588456	1.2308996	-1.0442547
1276878105840	2.4108016	1.1441092	9.084772	-0.33806896	0.0	12.375	6.0625	-49.875	0.006280221	1.2850976	-1.1276938
1276878105870	1.607201	1.6889231	8.049625	-1.4261951	0.0	13.3125	4.5	-49.875	-0.24812368	1.2888784	-0.76060987
1276878105900	2.7240696	1.9885708	7.9679036	-1.1543407	0.0	13.8125	1.75	-49.625	-0.21672635	1.1703808	-0.94021857
1276878105940	3.5957718	3.1054392	8.19945	-0.33013725	0.0	13.0625	-2.375	-49.125	-0.31387398	1.045627	-0.85843873
1276878105970	3.759216	4.2904096	8.349273	0.3052082	0.0	11.375	-6.9375	-48.0625	-0.42514476	0.9714264	-0.7195039
1276878106010	3.9499009	4.2904096	7.4639506	-0.33459187	0.0	10.375	-10.75	-47.3125	-0.4830551	0.9075484	-0.7440993
1276878106050	2.7921712	3.990762	7.9679036	-0.4680271	0.0	10.375	-13.8125	-46.5625	-0.6947374	1.0221292	-0.6104968
1276878106080	2.6423476	3.7864566	9.384419	0.65215397	0.0	10.375	-16.125	-47.0625	-0.8943295	1.1135569	-0.609276
1276878106120	4.5628166	3.568531	6.8237944	-0.8557911	0.0	10.375	-16.875	-47.3125	-0.59756136	0.86695504	-0.90707225
1276878106150	5.7477865	3.8273177	7.082581	0.08518314	0.0	8.9375	-16.375	-47.5625	-0.5257033	0.79805964	-0.98334074
1276878106190	4.440233	2.0294318	7.9270425	-0.49685574	0.0	7.4375	-16.625	-47.5625	-0.6330931	1.0187886	-1.1420908
1276878106230	3.7864566	1.0760075	7.9270425	-0.9560547	0.0	6.75	-16.125	-47.0625	-0.65066904	1.1098924	-1.2939225
1276878106270	3.759216	1.5390993	7.014479	-1.7008839	0.0	7.1875	-15.625	-47.3125	-0.61466557	1.0458863	-1.1821954
1276878106300	3.759216	1.3756552	7.3141265	-1.46875	0.0	8.4375	-15.875	-47.0625	-0.62351084	1.0700291	-1.2199905
1276878106330	3.5276701	0.6946377	8.662541	-0.42759895	0.0	9.875	-15.125	-47.3125	-0.6017844	1.1773813	-1.3763726
1276878106370	3.214402	1.6889231	9.888372	0.7273302	0.0	11.875	-15.625	-47.3125	-0.78541833	1.2188742	-1.0870172
1276878106410	3.718355	1.879608	8.921328	0.039627075	0.0	12.8125	-16.875	-46.8125	-0.73034436	1.1338804	-1.1027628
1276878106440	3.445948	1.7297841	7.6273947	-1.2600803	0.0	13.0625	-17.4375	-46.8125	-0.71785253	1.1027491	-1.105569
1276878106470	3.336985	1.334794	7.3549876	-1.6205044	0.0	12.5625	-17.9375	-46.5625	-0.7073653	1.1162668	-1.19029
1276878106500	3.445948	1.1849703	8.076866	-0.9458113	0.0	12.125	-17.4375	-46.3125	-0.69857556	1.1469744	-1.2395898
1276878106530	3.3778462	1.4982382	9.302697	0.20308208	0.0	12.375	-16.875	-46.5625	-0.7638568	1.1926895	-1.1533204
1276878106560	3.255263	1.7297841	9.847511	0.7082138	0.0	12.5625	-16.875	-46.5625	-0.8227734	1.212605	-1.0823604
1276878106600	2.982856	1.7570249	9.534244	0.3366413	0.0	13.8125	-17.6875	-46.5625	-0.8734575	1.2225002	-1.0384738
1276878106640	2.5606253	1.3756552	8.962189	-0.38486385	0.0	14.3125	-18.4375	-46.5625	-0.90550965	1.2571656	-1.0778071
1276878106680	2.3426998	1.3756552	8.471856	-0.909852	0.0	14.3125	-19.4375	-46.3125	-0.9680499	1.2604784	-1.0398349
1276878106720	2.7649305	1.920469	8.430995	-0.7283945	0.0	14.3125	-19.9375	-46.5625	-0.94806194	1.1908972	-0.9637163
1276878106750	2.4925237	1.6480621	8.430995	-0.8617935	0.0	14.0625	-19.6875	-46.0625	-0.98021084	1.2301899	-0.9865864
1276878106780	2.3426998	1.3075534	8.008764	-1.3604536	0.0	13.3125	-19.9375	-46.3125	-0.9659488	1.247551	-1.0617254
1276878106810	1.56634	0.53119355	6.5922484	-3.0100827	0.0	12.375	-19.4375	-46.8125	-0.92966014	1.3249756	-1.2438375
1276878106850	-1.6480621	-0.38136974	5.8976107	-3.6712313	0.0	11.875	-19.1875	-46.0625	1.308517	1.2914652	1.7981987
1276878106880	-0.6537767	-1.8387469	9.656827	0.045391083	0.0	10.625	-19.1875	-46.5625	0.6113174	1.3713952	2.799977
1276878106910	-2.5333846	-1.7297841	6.0201936	-3.0499558	0.0	11.875	-18.1875	-46.8125	0.78685564	1.0995363	2.1698823
1276878106940	-4.9850473	-2.0294318	1.2666923	-4.2772923	0.0	17.25	-17.6875	-45.5625	0.4967486	0.23113745	1.9574116
1276878106970	-9.234595	1.2666923	8.853226	3.0487719	0.0	25.5625	-17.4375	-42.75	0.85827506	0.75966203	1.4344789
1276878107000	-4.7943625	1.7978859	14.2877445	5.3708973	0.0	36.5625	-13.8125	-36.625	3.1377013	1.2266793	1.2120256
1276878107040	-4.140586	0.313268	13.375181	4.1982794	0.0	46.0625	-7.1875	-30.0	3.037934	1.2697737	1.4952823
1276878107070	-7.5865335	-1.607201	9.80665	2.6957083	0.0	50.75	2.0	-24.625	2.798863	0.9017024	1.7795589
1276878107110	-11.114203	-1.525479	9.956474	5.192816	0.0	51.0	12.9375	-21.0625	-2.8406608	0.7258729	1.707199
1276878107150	-10.882658	-0.7627395	11.536434	6.0711117	0.0	49.25	21.875	-19.25	-2.47957	0.8133284	1.6407695
1276878107190	-16.88923	3.990762	6.510526	8.728703	0.0	48.3125	25.9375	-16.9375	-1.5312494	0.35890487	1.3387619
1276878107230	-9.384419	-1.2258313	0.14982383	-0.34132195	0.0	47.0625	29.5	-14.1875	-1.0466284	0.01582936	1.700685
1276878107270	-6.4015636	-2.9556155	6.2789803	-0.36518383	0.0	46.0625	31.8125	-11.625	-2.812112	0.7275513	2.003339
1276878107300	-8.730643	0.6946377	6.0474343	0.83656883	0.0	45.625	33.625	-9.8125	-1.9833102	0.60431194	1.4914004
1276878107330	-8.812365	0.0	5.012288	0.33143616	0.0	43.625	35.875	-8.0625	-1.9563408	0.5171465	1.5707964
1276878107370	-9.724928	-4.399372	-0.7218784	0.89147186	0.0	43.375	35.875	-6.0	-0.9932169	-0.06752843	1.9956285
1276878107410	-7.246025	-6.3198414	-0.08172209	-0.1914568	0.0	43.625	35.375	-3.4375	0.47540933	-0.008499368	2.2880273
1276878107440	-8.662541	-6.2789803	0.313268	0.89677715	0.0	42.9375	35.125	-0.875	-1.797141	0.029272188	2.1980014
1276878107470	-5.6660647	-5.5571017	0.5720546	-1.8497086	0.0	42.1875	35.625	0.375	2.383064	0.07195586	2.346486
1276878107500	-5.175732	-4.3312707	3.2961242	-2.2958217	0.0	40.9375	36.9375	0.375	-3.0579822	0.454318	2.2676017
1276878107540	-6.973618	-6.66035	5.434519	1.2624779	0.0	40.0	37.6875	-0.125	3.1277177	0.5131934	2.3332214
1276878107570	-8.240311	-6.1700177	4.944186	1.613368	0.0	39.75	37.9375	-1.6875	-2.853725	0.4477521	2.2135036
1276878107610	-8.240311	-5.706926	3.2961242	0.7449446	0.0	39.75	37.6875	-2.1875	-2.6288228	0.3176991	2.176513
1276878107650	-8.662541	-5.407278	2.3018389	0.6612406	0.0	39.75	37.4375	-1.6875	-2.3282738	0.22170702	2.1288302
1276878107690	-7.246025	-3.759216	0.7218784	-1.6116705	0.0	40.0	38.1875	-1.6875	-1.7620001	0.08820221	2.0493681
1276878107730	-8.008764	-5.366417	1.4573772	-0.056640625	0.0	39.25	38.6875	-0.625	-2.1990054	0.15003671	2.16115
1276878107770	-8.962189	-6.891896	2.3426998	1.7392273	0.0	38.5	39.75	0.375	-2.5304255	0.20432226	2.226345
1276878107810	-8.539958	-6.428804	2.5606253	1.1850376	0.0	37.75	40.75	1.375	-2.5307853	0.23512049	2.2160814
1276878107840	-6.469665	-6.2789803	3.173541	-0.24874592	0.0	36.3125	41.5	2.6875	-2.928802	0.3384582	2.3412383
1276878107880	-5.8158884	-5.366417	1.334794	-1.7813988	0.0	35.0625	42.3125	3.1875	-2.6012416	0.16710083	2.3160212
1276878107920	-7.4639506	-6.2789803	0.92618364	-0.008998871	0.0	34.375	42.5625	3.9375	-2.281997	0.09467255	2.2701833
1276878107950	-8.539958	-7.6546354	3.0237172	2.05367	0.0	33.875	42.8125	4.4375	-2.6661592	0.25778976	2.3015811
1276878107980	-7.164303	-6.701211	2.982856	0.4466858	0.0	34.375	42.5625	4.4375	-2.7784698	0.29518375	2.322808
1276878108010	-7.4639506	-7.3141265	2.1792557	0.8683748	0.0	34.8125	42.3125	5.5	-2.8006678	0.20559049	2.3460567
1276878108050	-6.469665	-7.8861814	1.4982382	0.50320625	0.0	35.3125	42.3125	6.0	3.1083307	0.14583738	2.454548
1276878108080	-6.0882955	-6.3198414	1.920469	-0.8235588	0.0	36.3125	41.75	5.75	-2.981518	0.21545005	2.3748531
1276878108120	-7.1234417	-5.5162406	0.84446156	-0.7575922	0.0	36.8125	41.0	6.0	-2.4113657	0.093456365	2.229718
1276878108160	-8.430995	-4.4810944	1.6889231	-0.11055088	0.0	38.5	40.0	5.75	-2.2816432	0.17507891	2.0593271
1276878108200	-8.880466	-4.440233	3.336985	0.6677866	0.0	40.6875	38.4375	5.0	-2.5032105	0.324235	2.0344439
1276878108240	-9.152874	-4.372132	1.607201	0.46339035	0.0	42.6875	36.4375	5.0	-2.3183928	0.15714003	2.0164278
1276878108280	-10.079058	-1.1441092	4.0588636	1.1190424	0.0	45.375	34.375	4.75	-2.2321513	0.38062105	1.683826
1276878108310	-10.310603	-2.6832085	2.0294318	1.0389357	0.0	47.8125	31.8125	5.75	-2.271321	0.18823008	1.8253871
1276878108340	-6.851035	-4.440233	-1.8387469	-1.438057	0.0	49.25	29.5	7.0	0.3379637	-0.2215274	2.1458426
1276878108380	-5.8567495	-3.0237172	-2.2609777	-2.838408	0.0	50.25	28.0	8.5625	-0.17144534	-0.33045018	2.047382
1276878108420	-9.493382	-3.5276701	1.5390993	0.4372549	0.0	51.4375	26.4375	9.0625	-2.769443	0.15081646	1.9265763
1276878108450	-12.176591	-3.255263	5.134871	3.8033829	0.0	52.4375	25.1875	8.3125	-2.7883575	0.38686362	1.8320252
1276878108480	-9.534244	-1.9885708	4.140586	0.7763872	0.0	53.9375	23.6875	7.5	-2.749591	0.4019867	1.7764199
1276878108510	-11.032481	-2.3699405	3.1463003	1.9079332	0.0	55.375	22.375	5.75	-2.6940022	0.27191833	1.7823955
1276878108550	-10.337844	-3.1463003	3.3778462	1.5150137	0.0	55.875	21.625	5.0	-2.9484718	0.30296603	1.8662372
1276878108580	-9.384419	-2.070293	2.070293	0.023891449	0.0	56.125	20.875	5.25	-2.701688	0.21218671	1.787928
1276878108620	-7.04172	-3.5276701	1.9885708	-1.6835546	0.0	55.625	21.125	6.0	2.8530905	0.24731812	2.0352173
1276878108660	-9.956474	-0.29964766	-3.255263	0.6727543	0.0	55.125	20.375	8.3125	-1.1049557	-0.31586036	1.600883
1276878108700	-8.730643	-1.4165162	0.14982383	-0.96057224	0.0	55.125	19.3125	10.8125	-2.426474	0.016937563	1.7316412
1276878108740	-12.762266	-2.2609777	4.2904096	3.8460073	0.0	55.125	19.0625	12.875	-2.8484328	0.31967133	1.7461381
1276878108770	-8.771504	0.10896278	-4.8216033	0.20329571	0.0	55.125	17.5625	15.1875	-0.94680893	-0.5025722	1.5583746
1276878108810	-8.689782	-1.920469	0.92618364	-0.8591175	0.0	55.125	17.5625	15.6875	-2.9026828	0.10369849	1.7883033
1276878108840	-12.108489	-0.95342433	1.607201	2.4451914	0.0	54.625	17.3125	17.25	-2.653369	0.13155954	1.6493744
1276878108880	-10.18802	-0.5720546	-2.8738933	0.79439926	0.0	53.9375	17.0	18.75	-1.7956336	-0.27453062	1.6268872
1276878108910	-8.853226	-0.95342433	-2.3699405	-0.59224606	0.0	53.1875	17.5625	18.75	-1.901105	-0.26012313	1.6780752
1276878108940	-9.724928	-1.2258313	-0.53119355	0.009614944	0.0	52.6875	17.5625	19.75	-2.5680425	-0.054140057	1.6961855
1276878108970	-10.038197	-2.1383946	-0.3405087	0.46243286	0.0	51.9375	18.8125	19.75	-2.741595	-0.033164706	1.7806847
1276878109000	-10.038197	-1.56634	-0.040861044	0.35309792	0.0	51.0	20.0625	19.0	-2.5746396	-0.0040218667	1.725586
1276878109040	-9.493382	-1.9885708	-0.7218784	-0.080405235	0.0	50.75	20.875	18.75	-2.5427935	-0.07428794	1.7772801
1276878109070	-9.384419	-2.3426998	-1.0351465	-0.07900429	0.0	50.25	22.375	18.25	-2.4852037	-0.1066147	1.8154335
1276878109110	-11.141444	-1.920469	-2.1111538	1.6945219	0.0	50.0	23.125	17.75	-2.0639298	-0.18460664	1.7414906
1276878109150	-11.182305	-1.6889231	-0.27240697	1.5057602	0.0	49.5	24.6875	16.9375	-2.3148196	-0.024082694	1.7206987
1276878109190	-7.43671	-4.671779	1.607201	-0.8784218	0.0	47.8125	27.75	15.9375	3.066186	0.1810001	2.1316972
1276878109230	-8.349273	-5.202973	0.6537767	0.052797318	0.0	45.125	31.0625	15.1875	-3.0094264	0.06635836	2.128075
1276878109270	-7.164303	-5.597963	-1.4165162	-0.604969	0.0	41.4375	35.125	14.9375	-2.8156304	-0.1545556	2.2340732
1276878109300	-4.440233	-5.7477865	-2.6014864	-2.0917006	0.0	37.5	38.1875	15.4375	1.0794876	-0.3439419	2.483839
1276878109330	-5.407278	-5.012288	-1.3756552	-2.306376	0.0	34.375	40.5	15.9375	-2.32861	-0.18445823	2.318304
1276878109370	-4.5628166	-8.117727	-0.50395286	-0.48083878	0.0	31.4375	42.0	15.4375	2.6452577	-0.054064836	2.6295218
1276878109410	-8.539958	-6.891896	1.334794	1.2482481	0.0	29.4375	43.0625	14.4375	-2.5059507	0.12103764	2.2498016
1276878109440	-7.7772183	-8.267551	1.6889231	1.6689758	0.0	27.75	44.0625	12.625	-2.6790032	0.14771138	2.3867452
1276878109470	-6.238119	-8.812365	0.040861044	0.9902735	0.0	26.3125	45.3125	11.625	-2.762901	0.003784517	2.525596
1276878109500	-6.510526	-7.5456724	-1.2666923	0.23967457	0.0	25.5625	46.125	11.125	-1.9684929	-0.12642163	2.4297051
1276878109540	-6.238119	-7.8180795	1.9885708	0.39094353	0.0	24.8125	46.625	10.0625	-2.6905136	0.19626145	2.4681277
1276878109570	-4.9850473	-7.8180795	0.5720546	-0.5168543	0.0	23.375	47.125	10.0625	-2.7403882	0.0616178	2.5739622
1276878109610	-4.1814466	-7.7363577	-0.3405087	-1.0059872	0.0	21.875	47.625	9.3125	-2.704661	-0.038700916	2.6460779
1276878109650	-3.6774938	-7.6546354	1.9885708	-1.084734	0.0	18.9375	48.125	8.8125	-2.958303	0.23002002	2.6937256
1276878109690	-5.7477865	-12.4489975	0.14982383	3.9060097	0.0	15.5	48.6875	8.5625	-2.5341578	0.010926167	2.7090461
1276878109730	-3.9499009	-10.310603	0.53119355	1.2474174	0.0	12.8125	48.9375	7.75	-2.642102	0.04807264	2.7757473
1276878109770	-0.9125633	-9.956474	1.1441092	0.25680542	0.0	9.1875	48.9375	7.25	2.7918696	0.11393584	3.0501928
1276878109810	-1.2666923	-10.460427	0.7218784	0.7548914	0.0	6.9375	48.6875	6.75	3.0395014	0.06840305	3.0210857
1276878109840	-3.718355	-8.853226	0.7218784	-0.1771698	0.0	5.5	48.125	7.0	-2.2279656	0.075035855	2.7439647
1276878109870	-2.9147544	-9.425281	-1.4165162	0.16020584	0.0	4.75	48.125	7.25	-1.6164889	-0.14260553	2.8416727
1276878109900	-2.982856	-9.234595	-0.27240697	-0.09843826	0.0	5.0	47.875	7.75	-2.143857	-0.02806312	2.8291628
1276878109930	-3.1054392	-9.384419	0.38136974	0.08559513	0.0	5.25	48.125	7.75	-2.3275003	0.038561948	2.8220208
1276878109960	-2.6423476	-9.575105	-0.0	0.12635708	0.0	5.25	48.375	8.0625	-2.3722463	-0.0	2.872334
1276878109990	-3.255263	-9.193735	0.23154591	-0.050876617	0.0	-5.8125	50.8125	5.0	-1.835791	0.023736473	2.801293
1276878110030	-4.2904096	-8.049625	-0.14982383	-0.6837921	0.0	-6.3125	51.0625	5.25	-1.7236433	-0.016423643	2.6518989
1276878110060	-2.8738933	-8.471856	-0.9942854	-0.8055277	0.0	-6.8125	50.8125	5.75	-1.5989428	-0.11068826	2.814546
1276878110110	-0.61291564	-7.4639506	0.38136974	-2.3078723	0.0	-7.75	50.8125	4.75	-2.1209104	0.050879538	3.0596597
1276878110150	-3.1463003	-12.598822	-0.29964766	3.1825485	0.0	-9.5	50.8125	5.0	-1.7506623	-0.023071034	2.8968685
1276878110190	-0.9125633	-9.847511	-0.61291564	0.10202885	0.0	-11.6875	50.0625	3.6875	-1.6115972	-0.061895955	3.0491872
1276878110230	0.92618364	-10.378705	0.50395286	0.62547874	0.0	-14.375	49.3125	2.9375	-2.0662165	0.048326574	-3.0525897
1276878110270	-0.29964766	-10.501288	1.1168685	0.7581148	0.0	-16.5625	48.5625	2.9375	-1.9903756	0.10591427	3.113066
1276878110310	0.08172209	-10.991621	-0.88532263	1.22087	0.0	-17.5625	48.25	2.4375	-1.486455	-0.08036951	-3.134158
1276878110340	-0.42223078	-9.765789	-0.23154591	-0.028995514	0.0	-18.25	48.25	2.6875	-1.6476176	-0.023683345	3.098384
1276878110380	-0.9125633	-8.962189	-0.23154591	-0.795146	0.0	-18.25	48.25	2.4375	-1.625023	-0.025697308	3.0401187
1276878110420	-0.08172209	-9.765789	-0.3405087	-0.034585	0.0	-18.25	48.25	2.4375	-1.625023	-0.025697308	3.0401187
1276878110450	-0.38136974	-9.888372	-0.08172209	0.08941078	0.0	-18.75	48.25	2.4375	-1.6697762	-0.008258136	3.1030443
1276878110480	-0.50395286	-10.038197	0.040861044	0.24427128	0.0	-18.75	48.25	2.6875	-1.7061412	0.004065414	3.0914311
1276878110520	-0.50395286	-9.888372	-0.0	0.094555855	0.0	-19.0	48.5625	2.9375	-1.7069142	-0.0	3.0906725
1276878110560	-0.53119355	-9.915613	-0.0	0.12318134	0.0	-19.5	48.8125	2.6875	-1.6918992	-0.0	3.0880723
1276878110590	-0.38136974	-9.915613	0.040861044	0.11637783	0.0	-19.5	48.8125	2.6875	-1.6918992	-0.0	3.0880723
1276878110630	-0.27240697	-9.956474	-0.08172209	0.15388489	0.0	-19.5	48.8125	1.9375	-1.6446724	-0.008204681	3.1142397
1276878110670	-0.27240697	-9.847511	-0.08172209	0.044966698	0.0	-20.0	48.8125	1.9375	-1.6427016	-0.008295392	3.1139371
1276878110710	-0.27240697	-9.888372	-0.23154591	0.0881834	0.0	-19.25	48.8125	2.4375	-1.6342188	-0.023402825	3.1140513
1276878110750	-0.3405087	-9.915613	-0.19068487	0.11664009	0.0	-19.0	48.0	2.4375	-1.6446946	-0.019217074	3.1072655
1276878110780	-0.3405087	-9.888372	-0.27240697	0.091332436	0.0	-19.25	47.75	3.1875	-1.6611142	-0.02752494	3.107171
1276878110820	-0.38136974	-9.915613	-0.27240697	0.12003231	0.0	-18.75	47.75	3.1875	-1.6627371	-0.02744534	3.1031501
1276878110850	-0.42223078	-9.888372	-0.27240697	0.094480515	0.0	-19.25	47.75	2.9375	-1.6480509	-0.027516184	3.098919
1276878110890	-0.5720546	-9.80665	-0.27240697	0.020446777	0.0	-19.5	48.0	3.1875	-1.6554662	-0.027723534	3.0833254
1276878110920	-0.50395286	-9.888372	-0.27240697	0.09830189	0.0	-19.5	48.25	2.9375	-1.6453676	-0.027505565	3.0906725
1276878110950	-0.50395286	-9.888372	-0.29964766	0.09908867	0.0	-19.75	48.0	2.4375	-1.6166277	-0.03025452	3.0906725
1276878110980	-0.5720546	-9.915613	-0.3405087	0.13128567	0.0	-19.75	47.75	2.4375	-1.6082408	-0.03427023	3.083964
1276878111020	-0.6537767	-9.888372	-0.27240697	0.10705376	0.0	-19.5	48.25	2.1875	-1.6104875	-0.027481278	3.075573
1276878111060	-0.6537767	-9.80665	-0.27240697	0.02554226	0.0	-19.0	48.25	2.4375	-1.6220764	-0.027709164	3.0750244
1276878111090	-0.6946377	-9.847511	-0.23154591	0.068045616	0.0	-19.25	48.5625	2.9375	-1.6516372	-0.023450559	3.0711699
1276878111130	-0.6946377	-9.888372	-0.14982383	0.10722256	0.0	-19.0	48.5625	3.1875	-1.6810613	-0.015113119	3.07146
1276878111160	-0.50395286	-9.888372	-0.14982383	0.09568882	0.0	-18.75	48.5625	3.1875	-1.686693	-0.015130723	3.0906725
1276878111200	-0.3405087	-9.888372	-0.040861044	0.087667465	0.0	-19.0	48.25	3.1875	-1.7146451	-0.00412976	3.107171
1276878111240	-0.27240697	-9.847511	-0.08172209	0.044966698	0.0	-18.5	48.5625	2.9375	-1.698103	-0.008295392	3.1139371
1276878111280	-0.3405087	-9.888372	-0.10896278	0.0881834	0.0	-18.25	48.8125	2.4375	-1.6662458	-0.011012311	3.107171
1276878111310	-0.46309182	-9.888372	-0.10896278	0.093159676	0.0	-18.75	48.8125	2.1875	-1.6496482	-0.011006776	3.094795
1276878111346	-0.53119355	-9.915613	-0.10896278	0.12377834	0.0	-18.75	49.0625	1.6875	-1.62512	-0.010972836	3.0880723
1276878111416	-0.50395286	-9.915613	-0.23154591	0.12446022	0.0	-19.0	48.8125	1.9375	-1.6091332	-0.02331732	3.0908122
1276878111450	-0.46309182	-9.697687	-0.19068487	-0.09603977	0.0	-19.5	48.8125	2.1875	-1.6279618	-0.019638017	3.0938761
1276878111480	-0.29964766	-9.888372	-0.14982383	0.08739567	0.0	-19.25	48.5625	2.1875	-1.6412202	-0.015143406	3.1112988
1276878111510	-0.19068487	-9.997335	0.040861044	0.1925869	0.0	-19.25	48.25	2.1875	-1.6884221	0.0040864274	3.1225214
1276878111540	-0.10896278	-9.997335	0.040861044	0.19136238	0.0	-19.0	48.0	2.4375	-1.7048504	0.004086928	3.130694
1276878111570	-0.10896278	-10.038197	0.08172209	0.23247051	0.0	-18.75	48.0	2.4375	-1.7164361	0.008140454	3.1307383
1276878111600	-0.23154591	-9.888372	0.040861044	0.08451748	0.0	-19.0	48.5625	2.1875	-1.688776	0.0041310755	3.118181
1276878111640	-0.50395286	-9.724928	-0.08172209	-0.068330765	0.0	-19.25	48.25	2.1875	-1.6530834	-0.008391905	3.0898182
1276878111680	-0.6946377	-9.80665	-0.08172209	0.024909973	0.0	-19.25	48.25	1.6875	-1.6281692	-0.008312316	3.0708773
1276878111720	-0.6946377	-9.915613	-0.14982383	0.13439369	0.0	-19.25	48.0	1.125	-1.5895684	-0.015071808	3.071652
1276878111750	-0.84446156	-9.80665	-0.14982383	0.037431717	0.0	-18.75	47.75	1.375	-1.6004337	-0.015220273	3.0556934
1276878111790	-0.7627395	-9.888372	-0.14982383	0.11222744	0.0	-18.75	48.25	1.6875	-1.6146168	-0.015105492	3.06461
1276878111830	-0.46309182	-9.847511	-0.040861044	0.051828384	0.0	-19.0	48.25	1.6875	-1.6408806	-0.0041447734	3.094601
1276878111860	-0.50395286	-9.724928	-0.10896278	-0.068063736	0.0	-18.75	48.5625	1.6875	-1.6251557	-0.011189002	3.0898182
1276878111900	-0.46309182	-9.915613	0.040861044	0.11985493	0.0	-19.25	48.5625	0.875	-1.6205807	0.004116369	3.0949233
1276878111930	-0.42223078	-10.106298	0.19068487	0.31026173	0.0	-18.75	48.5625	0.375	-1.6321186	0.018849246	3.099838
1276878111960	-0.53119355	-9.956474	0.14982383	0.16510963	0.0	-18.5	49.0625	0.125	-1.6109067	0.015025379	3.0882916
1276878112000	-0.7218784	-9.765789	-0.0	-0.014217377	0.0	-18.25	49.3125	0.125	-1.5765209	-0.0	3.0678077
1276878112040	-0.88532263	-9.915613	-0.0	0.14840794	0.0	-18.0625	49.5625	0.375	-1.5875368	-0.0	3.0525432
1276878112070	-1.1168685	-9.915613	0.23154591	0.17435169	0.0	-18.25	49.5625	0.625	-1.6432956	0.023200745	3.029428
1276878112130	-0.7627395	-9.915613	0.14982383	0.13938427	0.0	-18.25	49.3125	0.625	-1.6318933	0.015064245	3.0648208
1276878112160	-0.7627395	-9.847511	0.38136974	0.07771587	0.0	-18.5	48.8125	0.375	-1.6693903	0.038592704	3.064292
1276878112200	-0.7627395	-9.847511	0.42223078	0.079377174	0.0	-18.5	48.5625	0.375	-1.6776886	0.042722847	3.064292
1276878112240	-0.6537767	-9.847511	0.38136974	0.06990528	0.0	-18.25	48.25	-0.125	-1.6494626	0.038623244	3.0753
1276878112280	-0.5720546	-9.888372	0.3405087	0.1041069	0.0	-18.25	48.25	-0.625	-1.6180869	0.034364246	3.0838058
1276878112320	-0.6537767	-9.915613	0.313268	0.13542938	0.0	-18.25	48.8125	-1.125	-1.5881805	0.031514518	3.075754
1276878112360	-0.88532263	-9.765789	0.14982383	3.30925E-4	0.0	-17.8125	48.8125	-1.6875	-1.5270618	0.015277857	3.0511842
1276878112400	-0.95342433	-9.888372	0.27240697	0.13131428	0.0	-17.5625	49.0625	-2.1875	-1.5305188	0.027414173	3.045471
1276878112440	-0.9125633	-9.847511	0.27240697	0.08680534	0.0	-17.0625	48.8125	-2.1875	-1.5293316	0.027537536	3.0491872
1276878112470	-0.9125633	-9.765789	0.23154591	0.0044164658	0.0	-17.0625	48.5625	-2.1875	-1.5204718	0.023602674	3.0484183
1276878112500	-0.95342433	-9.80665	0.14982383	0.047376633	0.0	-17.0625	48.5625	-1.9375	-1.5142426	0.015204911	3.044675
1276878112530	-0.9125633	-9.847511	0.14982383	0.08418846	0.0	-17.0625	48.8125	-2.1875	-1.5022862	0.015148317	3.0491872
1276878112560	-0.9942854	-9.956474	0.27240697	0.20305443	0.0	-17.3125	49.5625	-2.4375	-1.5193208	0.027217645	3.0420594
1276878112600	-1.1168685	-9.997335	0.313268	0.25775528	0.0	-17.3125	49.5625	-2.6875	-1.5174361	0.031131359	3.0303373
1276878112640	-0.6946377	-9.847511	0.313268	0.0703001	0.0	-17.5625	49.3125	-3.4375	-1.4798189	0.031722397	3.0711699
1276878112680	-0.6537767	-9.765789	0.27240697	-0.015212059	0.0	-17.5625	49.0625	-3.4375	-1.4698501	0.027824523	3.0747468
1276878112720	-0.7627395	-9.847511	0.27240697	0.07411194	0.0	-17.3125	48.25	-3.6875	-1.4570886	0.027572922	3.064292
1276878112750	-0.88532263	-9.956474	0.27240697	0.19281864	0.0	-16.5625	48.5625	-3.6875	-1.455516	0.027245516	3.0529065
1276878112780	-1.1168685	-9.956474	0.19068487	0.21408558	0.0	-15.8125	49.0625	-3.6875	-1.4397223	0.019030178	3.0298846
1276878112820	-1.3756552	-9.80665	0.10896278	0.09661579	0.0	-15.8125	48.5625	-3.9375	-1.4187875	0.011002934	3.0022242
1276878112860	-1.4165162	-9.80665	0.040861044	0.10186005	0.0	-15.8125	48.8125	-3.6875	-1.4174443	0.0041238447	2.9981403
1276878112900	-1.4573772	-9.888372	0.19068487	0.19036007	0.0	-16.5625	49.0625	-3.9375	-1.4416498	0.019075347	2.995263
1276878112940	-1.1849703	-9.915613	0.27240697	0.18323135	0.0	-17.0625	49.3125	-3.9375	-1.4547913	0.027271667	3.0226512
1276878112971	-0.88532263	-9.888372	0.3405087	0.12711334	0.0	-17.0625	50.0625	-3.4375	-1.4881088	0.034284633	3.052299
1276878113010	-0.8036005	-9.888372	0.38136974	0.12164879	0.0	-17.0625	51.0625	-3.6875	-1.4866686	0.038421843	3.0605037
1276878113040	-0.88532263	-9.765789	0.50395286	0.012127876	0.0	-16.5625	50.8125	-3.4375	-1.5275458	0.051347975	3.0511842
1276878113070	-0.84446156	-9.915613	0.53119355	0.15902424	0.0	-16.8125	50.0625	-3.4375	-1.5303501	0.053327594	3.0566328
1276878113100	-0.6946377	-9.956474	0.46309182	0.18476391	0.0	-16.5625	50.0625	-4.4375	-1.4626833	0.04636559	3.071938
1276878113140	-0.8036005	-9.80665	0.23154591	0.035593987	0.0	-16.5625	49.3125	-5.25	-1.3725945	0.023527892	3.059831
1276878113180	-0.9125633	-9.80665	-0.0	0.042367935	0.0	-16.5625	49.0625	-5.5	-1.3150778	-0.0	3.0488043
1276878113220	-0.84446156	-9.956474	0.040861044	0.18565464	0.0	-16.3125	49.3125	-5.5	-1.3166559	0.0040892623	3.05698
1276878113260	-0.61291564	-10.079058	0.14982383	0.29213715	0.0	-16.5625	49.5625	-5.0	-1.355147	0.014836368	3.0808566
1276878113300	-0.6537767	-9.80665	0.19068487	0.023617744	0.0	-16.5625	49.8125	-4.1875	-1.4087181	0.019398944	3.0750246
1276878113340	-0.46309182	-9.615966	-0.10896278	-0.1789236	0.0	-16.8125	50.0625	-3.9375	-1.3408854	-0.011317844	3.0934713
1276878113372	-0.46309182	-9.80665	-0.10896278	0.0115327835	0.0	-16.5625	50.5625	-3.4375	-1.3630942	-0.011098288	3.0944054
1276878113410	-0.6946377	-10.079058	-0.10896278	0.2969036	0.0	-16.5625	50.5625	-3.4375	-1.3630942	-0.011098288	3.0944054
1276878113450	-0.95342433	-10.106298	-0.10896278	0.34510612	0.0	-17.0625	50.0625	-3.4375	-1.3904252	-0.010733598	3.0475314
1276878113480	-1.0351465	-9.888372	-0.23154591	0.13845158	0.0	-17.0625	50.3125	-3.1875	-1.379092	-0.023284514	3.0372894
1276878113510	-1.1849703	-9.765789	-0.14982383	0.031908035	0.0	-17.3125	49.8125	-2.9375	-1.4143044	-0.015228819	3.020844
1276878113550	-1.334794	-9.765789	0.040861044	0.050022125	0.0	-17.3125	49.5625	-2.4375	-1.4770579	0.004145533	3.0057538
1276878113590	-1.0760075	-9.765789	0.040861044	0.018322945	0.0	-17.0625	49.8125	-2.1875	-1.4822792	0.0041589085	3.031854
1276878113620	-0.88532263	-9.765789	0.08172209	-4.7302246E-4	0.0	-17.5625	49.5625	-2.1875	-1.4895171	0.008333832	3.0511842
1276878113660	-1.1849703	-9.765789	0.08172209	0.031106949	0.0	-17.5625	49.5625	-2.4375	-1.4835881	0.00830708	3.020844
1276878113690	-1.1849703	-9.724928	-0.14982383	-0.008648872	0.0	-17.8125	49.5625	-1.9375	-1.459058	-0.01529186	3.0203416
1276878113730	-1.1849703	-9.915613	-0.27240697	0.18323135	0.0	-17.3125	49.0625	-1.6875	-1.4429021	-0.027271667	3.0226512
1276878113770	-1.3075534	-10.038197	-0.14982383	0.31745625	0.0	-17.0625	49.3125	-1.375	-1.4823219	-0.0147992615	3.0120642
1276878113800	-1.4165162	-9.724928	-0.040861044	0.02098465	0.0	-16.8125	49.5625	-1.125	-1.515395	-0.004157782	2.9969516
1276878113840	-1.2258313	-9.724928	0.040861044	-0.0046834946	0.0	-16.8125	49.5625	-1.125	-1.515395	-0.004157782	2.9969516
1276878113880	-1.0760075	-9.847511	0.14982383	0.100605965	0.0	-16.8125	50.0625	-1.125	-1.5527452	0.015123213	3.0327575
1276878113910	-0.9942854	-9.956474	0.19068487	0.20116425	0.0	-16.5625	49.3125	-1.375	-1.5487623	0.019054752	3.0420594
1276878113950	-0.88532263	-9.847511	0.19068487	0.082416534	0.0	-16.8125	49.3125	-1.375	-1.5492157	0.019283589	3.0519304
1276878113980	-0.8036005	-9.915613	0.23154591	0.14416695	0.0	-16.5625	49.3125	-2.4375	-1.5062618	0.023271136	3.0607255
1276878114010	-0.9942854	-9.956474	0.313268	0.20424938	0.0	-16.8125	49.0625	-2.9375	-1.5032911	0.031297807	3.0420594
1276878114040	-1.2258313	-9.915613	0.27240697	0.1881609	0.0	-16.5625	49.3125	-3.1875	-1.4861591	0.027258214	3.0185905
1276878114070	-1.3075534	-9.847511	0.19068487	0.12912083	0.0	-16.8125	49.0625	-3.1875	-1.4718311	0.019192932	3.0095847
1276878114100	-1.2258313	-9.80665	0.14982383	0.07745266	0.0	-16.8125	49.0625	-2.6875	-1.4840138	0.01515864	3.0172377
1276878114140	-1.1168685	-9.915613	0.23154591	0.17435169	0.0	-16.8125	48.8125	-2.6875	-1.4985213	0.023200745	3.029428
1276878114180	-1.0760075	-9.847511	0.313268	0.10442448	0.0	-16.8125	49.0625	-2.9375	-1.5050101	0.031613138	3.0327575
1276878114210	-0.9942854	-9.80665	0.42223078	0.059314728	0.0	-16.0625	49.0625	-3.6875	-1.4914367	0.04280978	3.040549
1276878114250	-0.9125633	-9.847511	0.42223078	0.09206295	0.0	-16.0625	49.0625	-3.9375	-1.4778297	0.042668063	3.0491872
1276878114280	-1.0760075	-9.888372	0.313268	0.14502525	0.0	-16.0625	49.8125	-4.75	-1.420076	0.031484123	3.0332036
1276878114310	-1.1849703	-9.888372	0.23154591	0.1551609	0.0	-16.5625	49.8125	-5.0	-1.3984259	0.02324545	3.0223267
1276878114340	-1.334794	-9.80665	0.10896278	0.091023445	0.0	-17.0625	50.0625	-5.25	-1.3735132	0.011009151	3.0063128
1276878114380	-1.525479	-9.765789	0.08172209	0.07790375	0.0	-17.3125	49.8125	-5.5	-1.3673414	0.00826775	2.9866385
1276878114410	-1.4165162	-9.80665	0.08172209	0.10211277	0.0	-17.0625	49.5625	-5.25	-1.3705616	0.00824755	2.9981403
1276878114450	-1.3756552	-9.915613	0.10896278	0.20452785	0.0	-16.3125	49.5625	-5.5	-1.3568783	0.010884327	3.0037363
1276878114481	-1.3756552	-9.915613	0.23154591	0.20661163	0.0	-16.0625	49.5625	-5.75	-1.3683234	0.023125987	3.0037363
1276878114520	-1.2666923	-9.847511	0.27240697	0.12573051	0.0	-16.0625	49.8125	-6.0	-1.3629954	0.027429592	3.0136645
1276878114550	-1.0351465	-9.847511	0.38136974	0.102458954	0.0	-15.8125	49.5625	-6.5	-1.3514113	0.03849629	3.0368598
1276878114580	-0.9125633	-9.888372	0.53119355	0.1379385	0.0	-15.8125	49.8125	-6.75	-1.3684919	0.05344077	3.0495667
1276878114610	-0.88532263	-9.956474	0.61291564	0.20788097	0.0	-16.0625	50.0625	-7.75	-1.3414329	0.061240904	3.0529065
1276878114640	-0.88532263	-9.915613	0.5720546	0.16483021	0.0	-15.8125	50.0625	-8.5625	-1.2926608	0.057400595	3.0525432
1276878114680	-0.9125633	-9.888372	0.6537767	0.14523888	0.0	-16.0625	49.8125	-9.0625	-1.2923337	0.06574107	3.0495667
1276878114710	-0.95342433	-9.847511	0.5720546	0.103432655	0.0	-16.0625	49.3125	-9.3125	-1.26476	0.05775661	3.0450747
1276878114750	-1.1168685	-9.80665	0.42223078	0.07242203	0.0	-15.8125	49.0625	-9.3125	-1.2402074	0.042752944	3.0281923
1276878114780	-1.0351465	-9.915613	0.42223078	0.17178535	0.0	-15.5625	49.3125	-9.5625	-1.2196016	0.042326964	3.0375738
1276878114810	-0.95342433	-9.997335	0.42223078	0.24491787	0.0	-15.125	49.8125	-9.8125	-1.196104	0.042018823	3.0465124
1276878114850	-0.8036005	-9.956474	0.42223078	0.1911211	0.0	-15.125	50.0625	-10.5625	-1.152283	0.042245056	3.061056
1276878114880	-0.9125633	-9.847511	0.46309182	0.09389019	0.0	-15.125	50.3125	-10.5625	-1.1732694	0.04679147	3.0491872
1276878114910	-1.0351465	-9.888372	0.46309182	0.14653492	0.0	-14.875	50.0625	-10.5625	-1.1772611	0.046543803	3.0372894
1276878114940	-0.9942854	-9.997335	0.46309182	0.25067425	0.0	-15.3125	50.0625	-10.5625	-1.1796405	0.04606152	3.0424635
1276878114970	-1.1168685	-9.956474	0.42223078	0.22116375	0.0	-15.125	50.5625	-10.3125	-1.1906344	0.042118415	3.0298846
1276878115010	-1.334794	-9.80665	0.50395286	0.103245735	0.0	-14.875	50.3125	-10.3125	-1.220432	0.050875444	3.0063128
1276878115045	-1.2258313	-9.765789	0.46309182	0.046661377	0.0	-15.125	50.3125	-10.8125	-1.188933	0.047015917	3.0167227
1276878115080	-1.0351465	-9.915613	0.50395286	0.17557812	0.0	-15.125	50.3125	-10.5625	-1.1904979	0.050506476	3.0375738
1276878115120	-1.1441092	-9.888372	0.53119355	0.16185284	0.0	-15.8125	50.0625	-10.8125	-1.2040496	0.053312443	3.0264025
1276878115160	-1.0760075	-9.847511	0.38136974	0.10681057	0.0	-15.8125	50.0625	-10.8125	-1.2040496	0.053312443	3.0264025
1276878115190	-1.1441092	-9.997335	0.38136974	0.2631626	0.0	-16.0625	50.0625	-10.8125	-1.1772177	0.037881635	3.027647
1276878115220	-1.3075534	-9.915613	0.46309182	0.20551872	0.0	-15.5625	49.8125	-11.375	-1.1748194	0.046269406	3.010481
1276878115260	-1.3075534	-9.956474	0.50395286	0.24795246	0.0	-14.875	49.3125	-11.625	-1.1585714	0.05014262	3.011013
1276878115290	-1.0760075	-9.888372	0.61291564	0.15895844	0.0	-14.625	49.0625	-11.875	-1.1471438	0.06154192	3.0332036
1276878115320	-0.9125633	-9.888372	0.53119355	0.1379385	0.0	-14.625	49.0625	-11.875	-1.1471438	0.06154192	3.0332036
1276878115350	-0.95342433	-9.915613	0.61291564	0.17353344	0.0	-14.875	49.3125	-11.625	-1.152679	0.06145193	3.0457335
1276878115390	-1.334794	-9.80665	0.53119355	0.10466766	0.0	-15.125	50.0625	-11.375	-1.1857789	0.053620335	3.0063128
1276878115420	-1.56634	-9.847511	0.38136974	0.17194366	0.0	-15.125	50.5625	-11.125	-1.1847522	0.038228095	2.9838545
1276878115450	-1.56634	-9.956474	0.42223078	0.2811184	0.0	-14.375	50.5625	-11.125	-1.1788187	0.04186795	2.9855528
1276878115480	-1.607201	-9.888372	0.42223078	0.22037697	0.0	-14.375	50.5625	-11.375	-1.173388	0.04212172	2.9804673
1276878115510	-1.334794	-9.765789	0.5720546	0.06652355	0.0	-14.125	50.0625	-11.125	-1.1889024	0.057972766	3.0057538
1276878115550	-0.6946377	-9.956474	0.7627395	0.20312881	0.0	-14.375	50.0625	-11.125	-1.1790411	0.07627337	3.071938
1276878115580	-0.19068487	-10.038197	0.5720546	0.24964142	0.0	-13.8125	50.3125	-10.875	-1.0737048	0.05691597	3.1225991
1276878115610	-0.38136974	-9.915613	0.38136974	0.12362003	0.0	-13.8125	50.3125	-10.875	-1.0737048	0.05691597	3.1225991
1276878115640	-0.9942854	-9.765789	0.38136974	0.017028809	0.0	-13.8125	50.3125	-11.1875	-1.112624	0.038831234	3.0401292
1276878115680	-1.334794	-9.80665	0.19068487	0.09226036	0.0	-13.3125	50.3125	-10.875	-1.1087903	0.01926441	3.0063128
1276878115710	-1.4165162	-9.888372	0.08172209	0.18299961	0.0	-13.625	49.9375	-11.0625	-1.0921246	0.008180767	2.99931
1276878115750	-1.4573772	-9.915613	0.14982383	0.21661186	0.0	-13.875	49.9375	-11.0625	-1.1125641	0.014948168	2.9956596
1276878115790	-1.4573772	-9.888372	0.19068487	0.19036007	0.0	-14.125	50.4375	-10.25	-1.1582069	0.019075347	2.995263
1276878115820	-1.4165162	-9.888372	0.23154591	0.18534851	0.0	-14.625	49.9375	-10.5	-1.1596372	0.023175208	2.99931
1276878115860	-1.4165162	-9.956474	0.27240697	0.25377178	0.0	-14.875	49.9375	-10.25	-1.1800292	0.027080402	3.0002701
1276878115890	-1.56634	-9.888372	0.27240697	0.20871449	0.0	-14.625	50.1875	-9.75	-1.2081354	0.02720226	2.9844956
1276878115920	-1.6889231	-9.765789	0.23154591	0.10681057	0.0	-14.625	49.9375	-10.0	-1.2001926	0.023358842	2.9703438
1276878115950	-1.4982382	-9.724928	0.23154591	0.035736084	0.0	-14.625	50.6875	-9.75	-1.1999619	0.023527553	2.9887328
1276878115980	-1.2666923	-9.915613	0.3405087	0.19534111	0.0	-14.625	50.4375	-9.75	-1.2008605	0.03405067	3.0145335
1276878116010	-1.1441092	-9.915613	0.313268	0.17966557	0.0	-14.375	50.1875	-9.5	-1.1915884	0.031374875	3.026716
1276878116040	-1.1168685	-9.888372	0.313268	0.14952564	0.0	-13.875	49.9375	-9.25	-1.1913453	0.031469885	3.0291216
1276878116080	-1.1849703	-9.847511	0.313268	0.116846085	0.0	-14.125	49.4375	-9.5	-1.1891226	0.031573556	3.0218365
1276878116120	-1.1441092	-9.956474	0.3405087	0.22112656	0.0	-13.875	49.4375	-9.5	-1.1854483	0.03396308	3.0271833
1276878116150	-1.1168685	-10.038197	0.313268	0.2983446	0.0	-13.875	49.6875	-9.5	-1.177025	0.03100627	3.0307865
1276878116191	-1.0351465	-9.847511	0.27240697	0.0988636	0.0	-14.375	49.9375	-10.25	-1.1420305	0.027504008	3.0368598
1276878116270	-0.7627395	-9.888372	0.19068487	0.11292839	0.0	-14.125	49.9375	-10.0	-1.1026917	0.019224267	3.06461
1276878116300	-0.9942854	-9.888372	0.10896278	0.13218212	0.0	-14.625	49.6875	-10.5	-1.0984967	0.010963558	3.0413785
1276878116340	-1.1441092	-9.888372	0.14982383	0.14881706	0.0	-14.125	49.4375	-10.75	-1.0999764	0.01504997	3.0264025
1276878116380	-0.95342433	-9.915613	0.10896278	0.1552906	0.0	-14.375	49.6875	-11.0625	-1.0659293	0.010938125	3.0457335
1276878116410	-0.95342433	-10.079058	0.23154591	0.3200493	0.0	-13.875	49.6875	-11.5625	-1.056101	0.022866886	3.0472786
1276878116450	-1.0760075	-9.888372	0.3405087	0.1459198	0.0	-13.625	49.6875	-11.5625	-1.0880488	0.034219824	3.0332036
1276878116480	-1.3075534	-9.615966	0.23154591	-0.09943104	0.0	-14.625	50.1875	-11.3125	-1.1244904	0.023855224	3.0064442
1276878116510	-1.3075534	-9.656827	0.10896278	-0.06109333	0.0	-14.875	49.6875	-11.5625	-1.0948981	0.011180998	3.0070093
1276878116540	-1.1441092	-9.847511	0.14982383	0.10823345	0.0	-15.3125	49.6875	-11.5625	-1.0931218	0.015111578	3.0259287
1276878116570	-1.0351465	-9.80665	0.19068487	0.05632496	0.0	-15.3125	49.6875	-11.5625	-1.0931218	0.015111578	3.0259287
1276878116600	-0.9942854	-9.888372	0.14982383	0.13271332	0.0	-15.125	49.1875	-11.3125	-1.082964	0.0150743555	3.0413785
1276878116630	-0.7627395	-9.997335	0.313268	0.22463226	0.0	-15.125	49.6875	-11.5625	-1.0814022	0.031234186	3.065446
1276878116660	-0.84446156	-9.997335	0.3405087	0.2320633	0.0	-14.875	50.1875	-11.5625	-1.0913651	0.033926062	3.057324
1276878116700	-1.0351465	-9.915613	0.313268	0.16776943	0.0	-15.125	49.9375	-11.8125	-1.0999801	0.031412307	3.0375738
1276878116730	-1.0760075	-9.888372	0.23154591	0.14278793	0.0	-15.3125	49.9375	-12.0625	-1.0830085	0.023274362	3.0332036
1276878116760	-1.1441092	-9.888372	0.3405087	0.153512	0.0	-15.5625	49.6875	-12.0625	-1.1130586	0.034193728	3.0264025
1276878116790	-1.2666923	-9.888372	0.313268	0.16744423	0.0	-16.0625	49.4375	-11.8125	-1.1354958	0.03141333	3.0141873
1276878116820	-1.1849703	-9.847511	0.27240697	0.11563969	0.0	-15.5625	49.4375	-11.5625	-1.1228912	0.02745749	3.0218365
1276878116860	-1.1849703	-9.80665	0.14982383	0.07246876	0.0	-15.125	49.6875	-11.3125	-1.1032492	0.015166289	3.0213423
1276878116900	-1.2666923	-9.888372	0.19068487	0.1643467	0.0	-14.875	49.9375	-11.3125	-1.1128696	0.019125119	3.0141873
1276878116930	-1.1168685	-9.956474	0.23154591	0.2149458	0.0	-15.125	50.1875	-11.3125	-1.1116822	0.023106752	3.0298846
1276878116960	-1.0351465	-9.997335	0.42223078	0.2529974	0.0	-15.5625	50.1875	-11.3125	-1.1486428	0.041985057	3.038418
1276878116990	-0.95342433	-9.915613	0.38136974	0.16199303	0.0	-15.8125	49.4375	-11.5625	-1.1271392	0.038266275	3.0457335
1276878117020	-0.88532263	-9.888372	0.3405087	0.12711334	0.0	-15.5625	48.9375	-11.5625	-1.1071393	0.034284633	3.052299
1276878117060	-0.7627395	-9.847511	0.38136974	0.07771587	0.0	-15.125	48.375	-11.8125	-1.0827885	0.038592704	3.064292
1276878117090	-0.7627395	-9.915613	0.3405087	0.14408302	0.0	-14.875	48.6875	-12.0625	-1.0588032	0.034226142	3.0648208
1276878117120	-0.8036005	-9.915613	0.38136974	0.14877987	0.0	-14.875	49.1875	-12.3125	-1.0625967	0.038317088	3.0607255
1276878117160	-0.84446156	-9.915613	0.3405087	0.15068054	0.0	-14.875	49.1875	-12.0625	-1.0689553	0.034203455	3.0566328
1276878117200	-0.9125633	-9.915613	0.313268	0.15579414	0.0	-14.625	49.1875	-12.3125	-1.0551951	0.031450078	3.0498183
1276878117230	-0.9942854	-9.997335	0.27240697	0.24369907	0.0	-14.875	49.1875	-12.3125	-1.0600724	0.027107548	3.0424635
1276878117270	-1.0760075	-9.888372	0.38136974	0.14740086	0.0	-14.625	48.9375	-11.8125	-1.1037678	0.038322397	3.0332036
1276878117310	-1.3075534	-9.80665	0.313268	0.09174442	0.0	-14.875	48.9375	-12.3125	-1.0986166	0.03165365	3.009041
1276878117340	-1.3756552	-9.80665	0.313268	0.10097027	0.0	-15.125	49.1875	-11.8125	-1.1283786	0.03162417	3.0022242
1276878117370	-1.2666923	-9.915613	0.313268	0.19445133	0.0	-15.125	49.1875	-11.5625	-1.1272916	0.031328477	3.0145335
1276878117400	-1.1849703	-9.888372	0.313268	0.15739536	0.0	-15.3125	49.1875	-11.5625	-1.1243725	0.031445023	3.0223267
1276878117430	-1.1441092	-9.956474	0.42223078	0.22423363	0.0	-15.125	49.6875	-11.0625	-1.158711	0.04210552	3.0271833
1276878117460	-1.0351465	-9.956474	0.46309182	0.2141962	0.0	-15.125	49.6875	-11.0625	-1.158711	0.04210552	3.0271833
1276878117490	-0.88532263	-9.956474	0.38136974	0.19638062	0.0	-15.125	49.6875	-11.8125	-1.0975423	0.03813466	3.0529065
1276878117520	-0.88532263	-9.888372	0.42223078	0.13024998	0.0	-15.125	50.1875	-12.0625	-1.098394	0.042503994	3.052299
1276878117550	-0.8036005	-9.915613	0.3405087	0.14729881	0.0	-15.5625	49.9375	-12.3125	-1.0720654	0.034215078	3.0607255
1276878117580	-0.7627395	-9.956474	0.38136974	0.18627644	0.0	-15.125	50.1875	-12.5625	-1.0564659	0.038173236	3.0651345
1276878117610	-0.88532263	-9.956474	0.42223078	0.19802094	0.0	-15.125	49.9375	-12.0625	-1.0963385	0.042215902	3.0529065
1276878117640	-0.9942854	-9.888372	0.42223078	0.14054966	0.0	-15.125	49.1875	-11.8125	-1.1150469	0.042459954	3.0413785
1276878117670	-0.9942854	-9.847511	0.42223078	0.09993172	0.0	-14.625	49.1875	-11.5625	-1.1161089	0.042634152	3.0409656
1276878117710	-0.9942854	-9.724928	0.3405087	-0.025097847	0.0	-14.875	48.9375	-11.5625	-1.1061074	0.034818348	3.0397058
1276878117740	-1.0351465	-9.847511	0.27240697	0.0988636	0.0	-14.625	48.9375	-11.5625	-1.0897533	0.027504008	3.0368598
1276878117780	-1.0351465	-9.915613	0.42223078	0.17178535	0.0	-14.625	49.6875	-11.8125	-1.1102995	0.042326964	3.0375738
1276878117810	-1.1849703	-9.888372	0.42223078	0.16141605	0.0	-14.625	49.9375	-12.3125	-1.1054498	0.042371023	3.0223267
1276878117840	-1.1849703	-9.888372	0.23154591	0.1551609	0.0	-14.625	49.6875	-12.3125	-1.0692798	0.02324545	3.0223267
1276878117880	-1.2666923	-9.997335	0.14982383	0.2717266	0.0	-14.625	50.1875	-11.5625	-1.0903964	0.014866416	3.015561
1276878117910	-1.525479	-10.038197	0.19068487	0.34858704	0.0	-15.125	49.9375	-11.3125	-1.1361219	0.0187781	2.9907792
1276878117940	-1.56634	-9.997335	0.27240697	0.31631088	0.0	-15.3125	49.6875	-11.0625	-1.1650993	0.02691306	2.9861803
1276878117980	-1.607201	-9.847511	0.27240697	0.17487144	0.0	-15.5625	49.9375	-10.5	-1.1955237	0.027294515	2.9798102
1276878118010	-1.4165162	-9.847511	0.42223078	0.15117455	0.0	-16.0625	49.4375	-11.5625	-1.1753818	0.042414624	2.9987276
1276878118040	-1.2666923	-9.888372	0.5720546	0.17892265	0.0	-15.8125	49.4375	-11.5625	-1.1878191	0.057319496	3.0141873
1276878118070	-1.0760075	-9.956474	0.5720546	0.224123	0.0	-15.8125	49.1875	-11.5625	-1.171989	0.057060923	3.0339394
1276878118100	-0.88532263	-9.956474	0.5720546	0.20546341	0.0	-16.0625	48.9375	-12.0625	-1.140249	0.05716738	3.0529065
1276878118130	-0.88532263	-9.847511	0.5720546	0.097112656	0.0	-15.8125	49.1875	-11.5625	-1.1592953	0.05779351	3.0519304
1276878118170	-0.84446156	-9.956474	0.6537767	0.20693588	0.0	-15.5625	49.1875	-11.8125	-1.1553863	0.065335445	3.05698
1276878118210	-0.8036005	-9.997335	0.53119355	0.23698711	0.0	-15.3125	49.4375	-12.0625	-1.1116507	0.052913252	3.0613837
1276878118240	-0.88532263	-9.915613	0.38136974	0.15571022	0.0	-15.125	49.9375	-12.3125	-1.0789402	0.03829042	3.0525432
1276878118280	-1.0351465	-9.765789	0.3405087	0.019748688	0.0	-15.125	49.9375	-12.5625	-1.0785289	0.034659382	3.0359898
1276878118310	-1.1849703	-9.888372	0.27240697	0.15619373	0.0	-14.625	49.6875	-12.3125	-1.0766987	0.027345698	3.0223267
1276878118340	-1.1168685	-9.847511	0.14982383	0.105127335	0.0	-14.875	49.9375	-12.3125	-1.0544344	0.0151163135	3.0286589
1276878118380	-0.9942854	-9.915613	0.313268	0.16361141	0.0	-14.875	50.1875	-12.0625	-1.0820279	0.03142541	3.041652
1276878118410	-1.0351465	-9.888372	0.313268	0.14068985	0.0	-14.625	50.1875	-11.8125	-1.0912032	0.031497847	3.0372894
1276878118440	-1.0351465	-9.915613	0.19068487	0.1646719	0.0	-14.625	50.6875	-12.0625	-1.0590684	0.019124495	3.0375738
1276878118470	-0.8036005	-9.915613	0.19068487	0.14330006	0.0	-14.625	50.1875	-11.5625	-1.0525454	0.019165577	3.0607255
1276878118500	-1.1441092	-9.888372	0.23154591	0.150383	0.0	-14.625	49.4375	-11.5625	-1.0933386	0.023256605	3.0264025
1276878118530	-1.1849703	-9.80665	0.19068487	0.07317257	0.0	-14.875	50.1875	-11.5625	-1.0979903	0.019301632	3.0213423
1276878118560	-1.0351465	-9.915613	0.313268	0.16776943	0.0	-15.125	49.6875	-11.0625	-1.1290402	0.031412307	3.0375738
1276878118590	-1.1441092	-9.956474	0.27240697	0.21904469	0.0	-15.3125	50.1875	-10.75	-1.147347	0.027174225	3.0271833
1276878118620	-1.2258313	-9.847511	0.23154591	0.11956501	0.0	-15.3125	50.4375	-10.75	-1.1486366	0.023328822	3.0177484
1276878118650	-1.1441092	-9.915613	0.27240697	0.1784668	0.0	-15.5625	49.4375	-11.3125	-1.1280447	0.027284684	3.026716
1276878118680	-1.2258313	-9.80665	0.313268	0.08128166	0.0	-15.8125	49.9375	-11.5625	-1.140332	0.031687155	3.0172377
1276878118710	-1.3075534	-9.847511	0.313268	0.13222885	0.0	-15.5625	49.6875	-12.0625	-1.1223772	0.031524673	3.0095847
1276878118740	-1.2666923	-9.915613	0.313268	0.19445133	0.0	-15.8125	49.6875	-11.5625	-1.1409967	0.031328477	3.0145335
1276878118770	-1.1441092	-9.997335	0.27240697	0.25962543	0.0	-15.5625	49.9375	-11.0625	-1.1381134	0.027064651	3.027647
1276878118810	-1.0760075	-9.956474	0.313268	0.21269608	0.0	-15.8125	49.6875	-11.0625	-1.1444409	0.03127141	3.0339394
1276878118840	-1.1849703	-9.915613	0.313268	0.18442917	0.0	-15.3125	49.4375	-10.75	-1.1566291	0.031359915	3.0226512
1276878118880	-1.2258313	-9.915613	0.42223078	0.19336605	0.0	-14.875	49.4375	-11.3125	-1.150535	0.042235564	3.0185905
1276878118920	-1.1168685	-9.888372	0.313268	0.14952564	0.0	-14.875	49.4375	-11.5625	-1.1111388	0.031469885	3.0291216
1276878118950	-1.1849703	-9.847511	0.3405087	0.11774254	0.0	-14.625	49.4375	-11.3125	-1.1281829	0.034317017	3.0218365
1276878118980	-1.0351465	-9.915613	0.50395286	0.17557812	0.0	-15.125	49.6875	-11.0625	-1.166967	0.050506476	3.0375738
1276878119010	-0.84446156	-10.038197	0.5720546	0.28323364	0.0	-15.3125	49.1875	-10.25	-1.200355	0.056726273	3.0576653
1276878119050	-0.88532263	-9.956474	0.50395286	0.2018032	0.0	-15.3125	49.1875	-10.25	-1.200355	0.056726273	3.0576653
1276878119080	-0.95342433	-9.888372	0.42223078	0.136549	0.0	-15.5625	48.9375	-10.5	-1.172884	0.042477053	3.045471
1276878119120	-1.1441092	-9.847511	0.3405087	0.11294651	0.0	-15.5625	49.1875	-10.75	-1.1630994	0.034333616	3.0259287
1276878119150	-1.334794	-9.888372	0.23154591	0.17409134	0.0	-15.5625	49.4375	-11.3125	-1.1364945	0.02320135	3.0074174
1276878119190	-1.4165162	-9.888372	0.23154591	0.18534851	0.0	-15.5625	49.1875	-11.3125	-1.1419684	0.023175208	2.99931
1276878119220	-1.2666923	-9.80665	0.27240697	0.08522034	0.0	-15.125	48.9375	-11.5625	-1.1207727	0.02754195	3.013137
1276878119250	-0.9942854	-9.888372	0.46309182	0.14236832	0.0	-14.875	48.6875	-11.5625	-1.1264993	0.04656331	3.0413785
