#timestamp	accel_x	accel_y	accel_z	accel_mag	temperature	mag_x	mag_y	mag_z	azimuth	pitch	roll
1276779404034	2.0294318	0.040861044	9.915613	0.31459713	0.0	-19.75	2.0625	-38.125	2.9336593	1.3688743	-1.5506648
1276779404073	2.0294318	-0.040861044	9.697687	0.101195335	0.0	-18.5	2.3125	-38.875	2.9534082	1.3644629	-1.5909278
1276779404112	2.0294318	0.040861044	9.847511	0.24788857	0.0	-18.25	1.8125	-39.375	2.9245937	1.3675156	-1.5506648
1276779404142	2.070293	0.040861044	9.765789	0.17625618	0.0	-18.25	1.0625	-39.625	2.9946437	1.3618551	-1.551062
1276779404193	2.0294318	-0.040861044	9.724928	0.12786007	0.0	-18.5	0.8125	-39.875	3.0975168	1.3650246	-1.5909278
1276779404232	1.9885708	-0.040861044	9.80665	0.19967175	0.0	-19.25	0.8125	-39.875	3.1035488	1.37069	-1.5913414
1276779404273	2.152015	-0.08172209	9.888372	0.31351566	0.0	-19.25	1.0625	-39.875	3.1095974	1.3563572	-1.6087527
1276779404312	2.1111538	-0.040861044	9.80665	0.22475243	0.0	-19.75	1.0625	-39.875	3.0794513	1.3587161	-1.5901488
1276779404342	2.1111538	-0.040861044	9.765789	0.18480968	0.0	-20.0	1.3125	-39.375	3.059521	1.3578556	-1.5901488
1276779404382	2.1111538	-0.08172209	9.847511	0.2649498	0.0	-20.0	1.3125	-39.125	3.0943716	1.359455	-1.6094867
1276779404422	2.0294318	-0.08172209	9.888372	0.28815937	0.0	-20.25	1.0625	-38.875	3.121092	1.3682135	-1.6110431
1276779404452	2.070293	0.0	9.724928	0.13620377	0.0	-20.25	1.0625	-38.875	3.121092	1.3682135	-1.6110431
1276779404482	2.1111538	0.0	9.80665	0.2246685	0.0	-20.0	0.8125	-39.125	3.069927	1.3587549	-1.5707964
1276779404512	2.152015	-0.08172209	9.847511	0.2735939	0.0	-20.0	0.8125	-39.125	3.069927	1.3587549	-1.5707964
1276779404543	2.1111538	-0.08172209	9.80665	0.22500134	0.0	-20.0	1.3125	-39.375	3.0940003	1.3586009	-1.6094867
1276779404583	2.070293	0.0	9.80665	0.21614838	0.0	-20.0	1.5625	-38.875	3.0069978	1.3627404	-1.5707964
1276779404622	2.152015	0.0	9.724928	0.15354061	0.0	-20.0	1.8125	-38.875	2.980136	1.3530169	-1.5707964
1276779404652	2.152015	-0.040861044	9.80665	0.23343086	0.0	-20.0	1.5625	-38.875	3.036644	1.3547384	-1.5897814
1276779404682	2.152015	-0.040861044	9.765789	0.1935234	0.0	-20.0	1.3125	-38.375	3.059194	1.3538624	-1.5897814
1276779404722	2.1111538	-0.040861044	9.80665	0.22475243	0.0	-19.75	1.8125	-38.625	3.0146914	1.3587161	-1.5901488
1276779404762	2.070293	0.0	9.847511	0.25613213	0.0	-20.25	2.0625	-38.375	2.9702833	1.3635792	-1.5707964
1276779404802	2.152015	-0.040861044	9.80665	0.23343086	0.0	-20.5	2.0625	-38.625	3.0004902	1.3547384	-1.5897814
1276779404842	2.152015	0.08172209	9.847511	0.2735939	0.0	-20.75	2.0625	-39.375	2.9041061	1.3554945	-1.5328399
1276779404873	2.1792557	0.040861044	9.847511	0.27919674	0.0	-21.0	1.5625	-39.875	2.9780693	1.3529692	-1.5520486
1276779404912	2.2201166	0.040861044	9.697687	0.14200401	0.0	-21.0	1.5625	-39.875	2.9780693	1.3529692	-1.5520486
1276779404942	2.3426998	0.040861044	9.888372	0.35552597	0.0	-21.0	1.5625	-39.375	2.9729397	1.3381364	-1.5533563
1276779404983	2.4925237	0.0	9.765789	0.2722044	0.0	-21.25	1.8125	-39.125	2.977027	1.3209012	-1.5707964
1276779405022	2.6014864	-0.08172209	9.697687	0.2342434	0.0	-21.75	2.0625	-38.875	3.0167122	1.3085849	-1.6021996
1276779405052	2.4516625	0.040861044	9.724928	0.22263432	0.0	-22.0	1.8125	-38.625	2.959857	1.3238086	-1.5541312
1276779405084	2.3426998	0.0	9.847511	0.31568813	0.0	-22.25	2.0625	-38.875	2.9799552	1.3372401	-1.5707964
1276779405122	2.5606253	0.040861044	9.765789	0.2893448	0.0	-22.0	2.0625	-38.875	2.932714	1.3143339	-1.5548402
1276779405152	2.7649305	0.0	9.534244	0.12041664	0.0	-21.5	1.5625	-38.875	2.9838264	1.2885387	-1.5707964
1276779405187	2.4516625	-0.14982383	9.656827	0.15765667	0.0	-21.25	1.3125	-39.125	3.140331	1.3217256	-1.6318315
1276779405222	2.2609777	0.3405087	9.765789	0.22323513	0.0	-20.75	1.0625	-38.875	2.7804232	1.340808	-1.4213172
1276779405262	2.6423476	0.14982383	9.915613	0.45608997	0.0	-20.5	1.0625	-38.375	2.9191444	1.3099651	-1.514156
1276779405293	2.4925237	-0.040861044	9.697687	0.20631504	0.0	-20.25	1.0625	-38.125	3.069646	1.319187	-1.5871882
1276779405332	2.4925237	0.08172209	9.915613	0.41776848	0.0	-20.5	1.3125	-38.125	2.9553895	1.3243984	-1.5380212
1276779405372	2.6832085	-0.040861044	9.956474	0.5051222	0.0	-20.75	1.3125	-38.625	3.042284	1.3075275	-1.5860236
1276779405413	2.8738933	-0.19068487	9.997335	0.59730816	0.0	-21.0	1.3125	-38.375	-3.1331832	1.290294	-1.6370499
1276779405452	2.8738933	-0.27240697	9.724928	0.33769226	0.0	-21.5	2.3125	-38.375	3.1137285	1.2822386	-1.6653007
1276779405493	2.982856	0.040861044	9.697687	0.33949375	0.0	-21.5	1.8125	-38.625	2.9157043	1.2723697	-1.5570985
1276779405532	1.7570249	0.61291564	10.038197	0.40257072	0.0	-21.25	1.3125	-38.125	2.5534523	1.3874992	-1.2351578
1276779405562	2.0294318	0.7627395	10.18802	0.6094961	0.0	-21.25	0.0625	-38.375	2.5594656	1.3611223	-1.2112904
1276779405592	1.9885708	0.88532263	9.575105	0.012761116	0.0	-21.0	-1.9375	-38.625	2.5862815	1.347262	-1.1519367
1276779405623	2.0294318	1.2258313	9.112013	-0.39123535	0.0	-20.5	-2.9375	-38.625	2.394297	1.3162438	-1.0274211
1276779405662	2.0294318	1.4982382	8.580819	-0.86272717	0.0	-20.5	-4.4375	-39.375	2.2706401	1.284875	-0.9348545
1276779405692	1.7978859	1.7570249	8.921328	-0.5379057	0.0	-20.25	-5.1875	-39.625	2.1400197	1.296136	-0.7968919
1276779405723	1.7570249	1.7570249	9.425281	-0.0593338	0.0	-19.75	-5.6875	-39.875	2.1993272	1.3130293	-0.7853982
1276779405762	1.7570249	1.6480621	9.656827	0.14611626	0.0	-19.75	-6.1875	-39.875	2.3237157	1.3263259	-0.8173872
1276779405792	1.920469	1.56634	9.534244	0.04441166	0.0	-19.75	-5.9375	-39.625	2.3925369	1.3164946	-0.8866136
1276779405822	1.7978859	1.607201	9.425281	-0.077754974	0.0	-19.5	-5.6875	-40.125	2.2991989	1.320312	-0.84133977
1276779405852	1.6480621	1.607201	9.466142	-0.06462574	0.0	-19.25	-5.4375	-40.125	2.2430494	1.3322444	-0.79794985
1276779405882	1.7297841	1.5390993	9.507003	-0.021759987	0.0	-19.0	-5.1875	-40.375	2.2849445	1.3319026	-0.8436654
1276779405914	1.7570249	1.4165162	9.507003	-0.035429	0.0	-18.5	-5.1875	-40.375	2.3744974	1.337716	-0.8922854
1276779405953	1.879608	1.334794	9.656827	0.12153721	0.0	-18.25	-4.9375	-39.875	2.4558635	1.3364556	-0.9532941
1276779405992	1.6889231	1.2666923	9.847511	0.26461887	0.0	-18.25	-4.9375	-39.625	2.47327	1.3596082	-0.9272952
1276779406032	1.4573772	1.334794	9.915613	0.30398846	0.0	-18.0	-5.1875	-39.625	2.3783019	1.3740658	-0.82927245
1276779406072	1.6480621	1.2666923	9.80665	0.21786976	0.0	-18.25	-5.1875	-39.625	2.4816601	1.3619285	-0.9155003
1276779406112	1.607201	1.2666923	9.997335	0.3979721	0.0	-19.0	-5.4375	-40.125	2.492438	1.3688942	-0.90333176
1276779406143	1.9885708	1.1168685	9.615966	0.07609272	0.0	-19.25	-5.4375	-40.125	2.6900349	1.3379163	-1.0590575
1276779406182	2.2201166	1.1168685	9.112013	-0.36180496	0.0	-19.75	-4.9375	-39.875	2.6660254	1.3045313	-1.1046977
1276779406222	1.920469	1.2258313	9.425281	-0.10990906	0.0	-19.75	-4.6875	-39.875	2.5172231	1.3336185	-1.0026916
1276779406252	1.7978859	1.1168685	9.847511	0.26575089	0.0	-19.25	-4.4375	-39.875	2.5683825	1.3590845	-1.0149255
1276779406282	1.920469	0.88532263	9.80665	0.22541809	0.0	-19.75	-4.1875	-39.875	2.7508707	1.358408	-1.1388384
1276779406312	1.9477097	0.7627395	9.615966	0.034190178	0.0	-19.5	-4.4375	-39.625	2.8748624	1.3566061	-1.1975449
1276779406342	1.9885708	0.6537767	9.80665	0.22092342	0.0	-19.5	-3.9375	-39.375	2.932975	1.3604966	-1.253161
1276779406383	1.920469	0.7218784	9.80665	0.21231651	0.0	-19.75	-3.6875	-39.125	2.8427715	1.3645598	-1.2112486
1276779406422	1.9885708	0.5720546	9.656827	0.06937981	0.0	-19.75	-2.9375	-38.875	2.9105117	1.3597132	-1.2906884
1276779406462	2.152015	0.53119355	9.697687	0.14113712	0.0	-20.25	-2.1875	-39.125	2.8975306	1.346086	-1.3287983
1276779406502	2.0294318	0.53119355	9.80665	0.22186661	0.0	-20.5	-1.6875	-39.375	2.8433273	1.3600565	-1.3147945
1276779406532	1.9885708	0.5720546	9.80665	0.21592712	0.0	-20.5	-1.6875	-39.375	2.8433273	1.3600565	-1.3147945
1276779406562	2.0294318	0.5720546	9.765789	0.18416977	0.0	-20.5	-1.9375	-39.375	2.8303142	1.3581517	-1.2960459
1276779406593	2.152015	0.50395286	9.697687	0.13971996	0.0	-20.5	-1.6875	-39.375	2.874705	1.3467104	-1.3407643
1276779406632	2.1111538	0.46309182	9.765789	0.19545269	0.0	-20.75	-1.4375	-38.875	2.8870225	1.352989	-1.3548615
1276779406672	2.070293	0.53119355	9.697687	0.12377834	0.0	-21.0	-1.1875	-38.875	2.8091598	1.3538662	-1.3196354
1276779406712	2.152015	0.53119355	9.615966	0.061487198	0.0	-21.25	-1.4375	-39.125	2.8343441	1.3442408	-1.3287983
1276779406742	2.1111538	0.61291564	9.656827	0.097234726	0.0	-21.25	-1.4375	-38.875	2.7699778	1.3469661	-1.2882414
1276779406782	2.152015	0.5720546	9.656827	0.103583336	0.0	-21.5	-1.9375	-39.125	2.8448746	1.3441694	-1.310982
1276779406822	2.152015	0.53119355	9.697687	0.14113712	0.0	-21.5	-1.6875	-39.125	2.8572843	1.346086	-1.3287983
1276779406852	2.152015	0.46309182	9.615966	0.058055878	0.0	-21.25	-1.1875	-38.875	2.8685746	1.3457549	-1.3588387
1276779406892	2.152015	0.53119355	9.765789	0.2075386	0.0	-21.25	-1.1875	-38.875	2.8685746	1.3457549	-1.3588387
1276779406922	2.152015	0.53119355	9.534244	-0.018129349	0.0	-21.0	-1.1875	-39.125	2.8102155	1.3423655	-1.3287983
1276779406952	2.152015	0.42223078	9.765789	0.20234966	0.0	-21.0	-0.9375	-38.875	2.882105	1.349897	-1.3770548
1276779406992	2.1111538	0.38136974	9.847511	0.27183628	0.0	-21.25	-0.9375	-39.375	2.911962	1.3562933	-1.3920785
1276779407033	2.070293	0.46309182	9.697687	0.12036896	0.0	-21.25	-1.1875	-39.125	2.8626668	1.3554301	-1.3507346
1276779407072	2.1111538	0.38136974	9.615966	0.045721054	0.0	-21.5	-1.1875	-39.125	2.9297342	1.3512908	-1.3920785
1276779407112	2.152015	0.313268	9.847511	0.27812958	0.0	-21.25	-1.9375	-38.875	3.049781	1.3534477	-1.4262421
1276779407142	2.2201166	0.3405087	9.765789	0.21410275	0.0	-21.0	-1.6875	-38.625	3.0140722	1.3447332	-1.4186081
1276779407173	2.1792557	0.27240697	9.724928	0.16318417	0.0	-21.25	-0.9375	-38.375	3.0030122	1.3486884	-1.4464413
1276779407202	2.152015	0.313268	9.80665	0.23823357	0.0	-21.0	-0.4375	-38.375	2.9295616	1.3525704	-1.4262421
1276779407232	2.152015	0.3405087	9.765789	0.19923592	0.0	-21.25	0.3125	-38.375	2.849736	1.351287	-1.4138695
1276779407272	2.1111538	0.313268	9.697687	0.12311554	0.0	-21.5	0.0625	-38.625	2.888864	1.3541691	-1.4234842
1276779407303	2.2201166	0.3405087	9.656827	0.107943535	0.0	-21.25	-0.6875	-39.125	2.9275894	1.3422699	-1.4186081
1276779407343	2.2201166	0.313268	9.765789	0.21321487	0.0	-21.0	-0.9375	-39.375	2.9701326	1.3451189	-1.4306175
1276779407382	2.1792557	0.313268	9.724928	0.16438389	0.0	-21.0	-0.9375	-39.625	2.96663	1.3481562	-1.4280244
1276779407412	2.1792557	0.3405087	9.697687	0.13871288	0.0	-21.0	-0.4375	-39.375	2.90326	1.3471551	-1.4157996
1276779407444	2.2201166	0.38136974	9.656827	0.10943127	0.0	-21.0	-0.4375	-39.375	2.90326	1.3471551	-1.4157996
1276779407482	2.2609777	0.3405087	9.765789	0.22323513	0.0	-21.75	-0.6875	-39.375	2.9325643	1.340808	-1.4213172
1276779407513	2.1792557	0.3405087	9.724928	0.16527653	0.0	-21.5	-1.1875	-39.125	2.9680538	1.347761	-1.4157996
1276779407552	2.1792557	0.313268	9.697687	0.13781738	0.0	-21.5	-1.6875	-39.125	3.0293822	1.3475512	-1.4280244
1276779407594	2.1792557	0.42223078	9.724928	0.16840172	0.0	-21.75	-1.4375	-39.375	2.9238758	1.3463839	-1.3794175
1276779407632	2.2609777	0.313268	9.724928	0.18256283	0.0	-21.25	-1.1875	-39.125	2.994074	1.3402556	-1.4331187
1276779407672	2.2201166	0.3405087	9.656827	0.107943535	0.0	-21.75	-0.4375	-39.375	2.9088123	1.3422699	-1.4186081
1276779407712	2.2201166	0.3405087	9.765789	0.21410275	0.0	-21.25	-0.1875	-39.375	2.887107	1.3447332	-1.4186081
1276779407752	2.1792557	0.313268	9.697687	0.13781738	0.0	-20.75	-0.6875	-39.125	2.9459207	1.3475512	-1.4280244
1276779407782	2.2609777	0.3405087	9.656827	0.117173195	0.0	-20.5	-0.6875	-39.125	2.9255154	1.338305	-1.4213172
1276779407812	2.152015	0.3405087	9.697687	0.13277912	0.0	-20.25	-1.1875	-39.125	2.96434	1.3497953	-1.4138695
1276779407842	2.2201166	0.42223078	9.724928	0.17740822	0.0	-20.5	-1.4375	-39.125	2.9256384	1.3424653	-1.3828567
1276779407886	2.2201166	0.3405087	9.656827	0.107943535	0.0	-21.0	-0.9375	-39.625	2.9457939	1.3422699	-1.4186081
1276779407922	2.2609777	0.38136974	9.724928	0.1849308	0.0	-21.5	-0.9375	-39.375	2.9196563	1.3392478	-1.4036945
1276779407953	2.2609777	0.3405087	9.697687	0.15693855	0.0	-21.25	-0.6875	-39.625	2.928051	1.3392498	-1.4213172
1276779407992	2.152015	0.313268	9.80665	0.23823357	0.0	-21.0	-0.6875	-39.375	2.9464104	1.3525704	-1.4262421
1276779408032	2.2201166	0.3405087	9.656827	0.107943535	0.0	-21.0	-0.4375	-39.125	2.9051626	1.3422699	-1.4186081
1276779408072	2.2201166	0.3405087	9.724928	0.17428589	0.0	-20.75	-0.6875	-39.125	2.9263668	1.3438156	-1.4186081
1276779408112	2.2201166	0.313268	9.656827	0.10704517	0.0	-20.75	-1.1875	-39.625	2.989108	1.3426597	-1.4306175
1276779408148	2.152015	0.313268	9.724928	0.15846539	0.0	-21.25	-0.9375	-39.625	2.965735	1.3507951	-1.426242
1276779408182	2.1792557	0.313268	9.724928	0.16438389	0.0	-21.5	-1.6875	-39.375	3.0291176	1.3481562	-1.4280244
1276779408222	2.1792557	0.3405087	9.724928	0.16527653	0.0	-21.5	-1.1875	-39.375	2.967282	1.347761	-1.4157996
1276779408262	2.2201166	0.3405087	9.656827	0.107943535	0.0	-21.5	-0.9375	-38.875	2.950066	1.3422699	-1.4186081
1276779408302	2.2201166	0.3405087	9.697687	0.14774609	0.0	-21.5	-1.1875	-39.375	2.969428	1.3431997	-1.4186081
1276779408332	2.1792557	0.3405087	9.697687	0.13871288	0.0	-21.0	-0.6875	-39.875	2.9221783	1.3471551	-1.4157996
1276779408372	2.1792557	0.313268	9.697687	0.13781738	0.0	-20.75	-0.6875	-39.625	2.9440618	1.3475512	-1.4280244
1276779408402	2.2201166	0.3405087	9.724928	0.17428589	0.0	-21.25	-0.9375	-39.625	2.9476993	1.3438156	-1.4186081
1276779408432	2.2201166	0.38136974	9.724928	0.17576408	0.0	-20.75	-0.9375	-39.125	2.9153714	1.3431755	-1.4006776
1276779408473	2.152015	0.38136974	9.80665	0.24058819	0.0	-20.5	-0.6875	-38.875	2.8916912	1.3515162	-1.3954021
1276779408512	2.2609777	0.313268	9.697687	0.15604496	0.0	-20.5	-1.1875	-38.875	2.9940739	1.3396307	-1.4331187
1276779408542	2.1792557	0.3405087	9.724928	0.16527653	0.0	-20.5	-0.9375	-38.875	2.9459445	1.347761	-1.4157996
1276779408572	2.1792557	0.38136974	9.656827	0.10036278	0.0	-20.75	-0.9375	-38.875	2.9128964	1.3455832	-1.3975507
1276779408612	2.1792557	0.3405087	9.697687	0.13871288	0.0	-20.5	-1.1875	-38.625	2.9680855	1.3471551	-1.4157996
1276779408652	2.1792557	0.313268	9.80665	0.24410534	0.0	-20.0	-0.9375	-39.125	2.967045	1.3499514	-1.4280244
1276779408692	2.1792557	0.38136974	9.697687	0.1401949	0.0	-19.75	-0.6875	-38.875	2.885974	1.3465008	-1.3975507
1276779408732	2.1111538	0.3405087	9.765789	0.19052696	0.0	-19.75	-0.6875	-39.375	2.9157066	1.3552266	-1.4108832
1276779408772	2.1111538	0.3405087	9.697687	0.12401199	0.0	-20.5	-0.6875	-39.875	2.9163477	1.3537594	-1.4108832
1276779408802	2.1111538	0.313268	9.724928	0.14972115	0.0	-21.0	-0.4375	-39.875	2.9207978	1.3547575	-1.4234842
1276779408842	2.070293	0.313268	9.724928	0.14113712	0.0	-20.75	-0.1875	-39.875	2.896913	1.3587252	-1.4206198
1276779408872	2.152015	0.313268	9.656827	0.092017174	0.0	-20.75	-0.1875	-39.625	2.8994913	1.3492934	-1.426242
1276779408902	2.152015	0.313268	9.724928	0.15846539	0.0	-20.5	-0.1875	-39.375	2.899984	1.3507951	-1.426242
1276779408933	2.2609777	0.19068487	9.847511	0.2988863	0.0	-20.5	-0.4375	-39.125	3.0267599	1.3443345	-1.4866581
1276779408962	2.152015	0.23154591	9.915613	0.34244633	0.0	-20.5	-1.4375	-39.375	3.0762172	1.3558822	-1.4636137
1276779408992	2.152015	0.46309182	9.534244	-0.02158928	0.0	-20.75	-1.6875	-39.125	2.905951	1.3438914	-1.3588387
1276779409032	2.3699405	0.3405087	9.615966	0.10290909	0.0	-20.75	-1.9375	-38.375	3.047309	1.3267685	-1.4280947
1276779409062	2.3018389	0.61291564	9.656827	0.13962746	0.0	-21.25	-2.1875	-38.125	2.854337	1.3289547	-1.3105623
1276779409102	2.2201166	0.7627395	9.466142	-0.053777695	0.0	-21.5	-2.1875	-37.3125	2.7358065	1.3277127	-1.2398717
1276779409132	2.3426998	0.8036005	9.724928	0.22869968	0.0	-21.0	-2.1875	-37.0625	2.727328	1.3214226	-1.2403504
1276779409172	2.4516625	0.50395286	9.425281	-0.054699898	0.0	-21.0	-2.1875	-37.3125	2.9496188	1.3112329	-1.3680646
1276779409224	2.2201166	0.38136974	9.765789	0.21557522	0.0	-21.0	-1.9375	-37.3125	3.0064137	1.3440957	-1.4006776
1276779409268	2.2201166	0.27240697	9.534244	-0.013544083	0.0	-21.25	-1.1875	-38.375	3.0238135	1.3403603	-1.4487072
1276779409308	2.152015	0.3405087	9.765789	0.19923592	0.0	-21.75	-0.9375	-38.875	2.9484477	1.351287	-1.4138695
1276779409357	2.2201166	0.3405087	9.765789	0.21410275	0.0	-21.75	-1.1875	-39.375	2.9706507	1.3447332	-1.4186081
1276779409410	2.2201166	0.313268	9.656827	0.10704517	0.0	-21.75	-1.1875	-40.125	2.9883897	1.3426597	-1.4306175
1276779409642	1.56634	0.61291564	11.604536	1.9191475	0.0	-21.0	-1.1875	-39.875	2.7058928	1.4268565	-1.1978086
1276779409672	1.4982382	0.8036005	10.228881	0.5625591	0.0	-19.5	-2.4375	-40.125	2.590799	1.4060917	-1.0784827
1276779409712	1.4165162	0.8036005	10.61025	0.92786026	0.0	-18.0	-3.1875	-40.625	2.629397	1.4184929	-1.0547622
1276779409752	0.040861044	1.2666923	11.604536	1.8668852	0.0	-15.75	-4.9375	-41.375	1.6296809	1.4620165	-0.032246888
1276779409782	-0.95342433	1.9477097	10.841797	1.2498932	0.0	-14.1875	-7.9375	-42.625	1.1386913	1.3733841	0.45522085
1276779409882	-1.3075534	2.1792557	9.888372	0.40308857	0.0	-12.9375	-9.9375	-43.125	1.0672535	1.3192294	0.5404195
1276779409942	-1.9885708	1.9885708	9.043911	-0.33558083	0.0	-10.9375	-12.75	-43.625	0.95986533	1.2693181	0.7853982
1276779409983	1.0351465	0.5720546	8.19945	-1.5223427	0.0	-8.6875	-16.0	-42.875	-2.3171313	1.4275429	-1.065935
1276779410032	-1.6480621	2.3018389	8.281172	-1.0549431	0.0	-5.9375	-18.75	-41.875	1.4200864	1.2413915	0.62136805
1276779410062	-1.4982382	2.9556155	8.117727	-1.0386467	0.0	-2.875	-21.25	-41.625	1.6211522	1.1832399	0.46916223
1276779410102	-2.3018389	5.366417	8.62168	0.60633564	0.0	-0.625	-23.75	-41.125	1.089187	0.9754849	0.4051981
1276779410132	-1.607201	4.671779	7.9679036	-0.43135834	0.0	2.375	-25.5	-41.375	1.4631776	1.0157638	0.33134052
1276779410162	-5.7886477	4.5219555	7.3958488	0.6171255	0.0	5.1875	-27.0	-41.375	0.89620364	0.7888129	0.90763897
1276779410202	-7.246025	4.1814466	6.742072	0.9378786	0.0	8.4375	-28.5	-40.875	0.84119123	0.6783239	1.0474095
1276779410232	-5.6252036	4.5219555	6.1700177	-0.3113823	0.0	12.1875	-29.25	-39.875	0.892068	0.7073203	0.89369756
1276779410262	-3.486809	3.718355	5.938472	-1.9804478	0.0	14.9375	-30.25	-38.375	1.5199821	0.8614588	0.7532731
1276779410292	-4.5219555	3.9090397	4.8216033	-2.1270323	0.0	18.25	-31.5	-36.8125	1.0357418	0.6787803	0.85796845
1276779410322	-4.630918	4.5628166	4.7535014	-1.7530499	0.0	20.25	-33.25	-35.0625	1.0049769	0.63134754	0.79280543
1276779410352	-2.4925237	3.8681788	4.7535014	-3.1906652	0.0	21.25	-34.75	-34.0625	2.9708352	0.80162513	0.5724045
1276779410384	-1.6480621	3.3778462	9.507003	0.416317	0.0	20.5	-36.25	-33.0625	-3.046468	1.1943178	0.45392343
1276779410427	-1.334794	4.1814466	10.841797	1.8899622	0.0	18.75	-36.5	-32.8125	-2.8794417	1.186114	0.30899367
1276779410472	-4.372132	3.2961242	9.615966	1.2589169	0.0	17.5	-35.5	-33.5625	2.2406352	1.0531754	0.92480767
1276779410502	-3.718355	2.6014864	7.273266	-1.2337685	0.0	17.0	-34.5	-34.0625	2.08919	1.0129627	0.96031624
1276779410532	-3.8273177	3.5276701	8.240311	-0.060084343	0.0	18.0	-33.5	-34.3125	2.340996	1.007422	0.8261164
1276779410562	-3.9090397	4.372132	9.084772	1.006731	0.0	19.5	-34.5	-33.8125	2.6040273	0.99754447	0.7295352
1276779410592	-3.173541	4.2904096	8.580819	0.29827118	0.0	20.0	-36.25	-32.0625	2.8448539	1.014416	0.63686514
1276779410633	-3.1463003	4.5628166	8.349273	0.21477032	0.0	19.5	-38.0625	-30.3125	2.8509097	0.9847659	0.60367954
1276779410672	-3.2961242	4.372132	7.3958488	-0.60455513	0.0	19.0	-40.0625	-29.0625	2.6716013	0.9335103	0.64598864
1276779410712	-3.1463003	4.399372	6.782933	-1.1312904	0.0	18.0	-40.8125	-27.5625	2.649074	0.89764667	0.620835
1276779410752	-3.173541	4.5628166	6.891896	-0.95289993	0.0	18.0	-41.3125	-26.5625	2.6802602	0.89213765	0.60771453
1276779410802	-3.3642259	5.053149	7.4639506	-0.18568897	0.0	18.75	-42.0625	-25.3125	2.7610018	0.8879835	0.58738035
1276779410842	-3.2961242	4.944186	7.6954966	-0.083992004	0.0	19.25	-42.0625	-23.8125	2.8150432	0.91326153	0.58800256
1276779410882	-3.486809	4.903325	8.049625	0.24307156	0.0	20.25	-42.0625	-23.5625	2.8084116	0.9289303	0.6181442
1276779410922	-3.718355	5.09401	7.9679036	0.35517025	0.0	20.75	-42.0625	-23.3125	2.787739	0.9012479	0.6305429
1276779410962	-3.5957718	5.134871	7.668256	0.0978241	0.0	20.75	-42.5625	-23.5625	2.8064191	0.88548404	0.610904
1276779410992	-3.5276701	5.134871	7.6273947	0.04162407	0.0	21.25	-42.8125	-23.8125	2.8394628	0.88590926	0.6019496
1276779411032	-3.405087	4.9850473	7.4639506	-0.20686531	0.0	21.5	-43.3125	-23.8125	2.850231	0.8907003	0.59926623
1276779411062	-3.255263	4.903325	7.3958488	-0.35477638	0.0	21.75	-43.0625	-23.8125	2.895241	0.8986297	0.5860771
1276779411092	-3.214402	4.903325	7.3958488	-0.36877155	0.0	22.0	-42.8125	-24.0625	2.9204164	0.9004952	0.58027077
1276779411132	-3.214402	4.944186	7.43671	-0.3154955	0.0	21.5	-42.5625	-24.5625	2.9093869	0.9003447	0.57647204
1276779411172	-3.2961242	4.9850473	7.4639506	-0.24497223	0.0	20.75	-42.0625	-24.3125	2.8696766	0.89564276	0.5842099
1276779411212	-3.2961242	4.903325	7.668256	-0.12629986	0.0	20.0	-42.3125	-24.5625	2.828762	0.91431797	0.59183896
1276779411252	-3.336985	4.903325	7.6273947	-0.14459991	0.0	19.5	-41.8125	-24.3125	2.8029976	0.90986	0.5975565
1276779411292	-3.405087	4.944186	7.6273947	-0.10011864	0.0	19.5	-42.0625	-24.5625	2.781652	0.9039889	0.6031053
1276779411332	-3.3642259	4.9850473	7.6273947	-0.09347057	0.0	20.0	-42.0625	-25.0625	2.8168192	0.9031198	0.5936558
1276779411362	-3.214402	4.8216033	7.5865335	-0.2601471	0.0	19.75	-42.3125	-24.8125	2.826926	0.91850066	0.58800256
1276779411392	-3.214402	4.7943625	7.5865335	-0.2738762	0.0	19.5	-42.8125	-24.8125	2.8059964	0.9203885	0.5906204
1276779411422	-3.2961242	4.7535014	7.6954966	-0.17955971	0.0	19.25	-42.3125	-24.8125	2.7759054	0.9262268	0.60628927
1276779411452	-3.2961242	4.8216033	7.7363577	-0.11317158	0.0	18.75	-42.5625	-24.8125	2.7640412	0.9241339	0.599645
1276779411482	-3.173541	4.8216033	7.668256	-0.20866203	0.0	19.25	-42.5625	-25.0625	2.8174324	0.92553735	0.5821126
1276779411522	-3.214402	4.7943625	7.7363577	-0.1542139	0.0	19.5	-42.5625	-24.8125	2.815574	0.9297873	0.5906204
1276779411562	-3.214402	4.8216033	7.7363577	-0.14065456	0.0	19.25	-43.0625	-24.8125	2.8030102	0.92790943	0.58800256
1276779411592	-3.1054392	4.8216033	7.7363577	-0.17634201	0.0	19.5	-42.8125	-25.0625	2.848232	0.93287337	0.5721937
1276779411622	-2.9147544	4.7943625	7.7772183	-0.21671677	0.0	18.5	-42.8125	-25.5625	2.8631914	0.9458205	0.5462479
1276779411662	-2.9147544	4.671779	8.049625	-0.05381584	0.0	18.5	-42.3125	-26.3125	2.8563704	0.97084427	0.55781275
1276779411702	-3.1054392	4.7126403	8.158588	0.11379814	0.0	18.75	-42.0625	-26.3125	2.8189895	0.9656189	0.5826479
1276779411742	-3.214402	4.8216033	8.240311	0.2672243	0.0	18.5	-42.0625	-25.8125	2.7977738	0.95790493	0.58800256
1276779411782	-3.173541	4.671779	8.390134	0.30726242	0.0	19.0	-41.8125	-25.5625	2.8190632	0.9783258	0.59669805
1276779411822	-2.9147544	4.4810944	8.076866	-0.1210022	0.0	18.5	-41.8125	-26.0625	2.8378012	0.98613745	0.5766957
1276779411862	-3.0237172	4.3312707	8.049625	-0.17860603	0.0	18.0	-41.3125	-26.8125	2.7611287	0.99006253	0.60945857
1276779411902	-3.0237172	4.140586	8.008764	-0.29730606	0.0	17.75	-41.3125	-28.0625	2.7101302	1.0013497	0.6307494
1276779411942	-2.9147544	4.2495484	7.8861814	-0.3861246	0.0	17.25	-40.5625	-28.5625	2.7403016	0.9920108	0.6011984
1276779411982	-2.4925237	4.2495484	7.7772183	-0.6003227	0.0	17.25	-39.8125	-28.5625	2.8971279	1.006133	0.5304625
1276779412022	-2.3699405	4.399372	7.8861814	-0.47054005	0.0	17.25	-39.8125	-28.5625	2.8971279	1.006133	0.5304625
1276779412072	-2.5606253	4.440233	8.349273	-0.009567261	0.0	17.0	-39.3125	-27.5625	2.920338	1.0202144	0.5231013
1276779412102	-2.7513103	4.4810944	8.430995	0.12972641	0.0	17.5	-39.8125	-27.8125	2.876972	1.0131406	0.5506368
1276779412142	-2.7240696	4.5628166	8.390134	0.12482548	0.0	17.5	-40.3125	-27.8125	2.8900077	1.0061957	0.5382217
1276779412182	-2.4108016	4.7943625	8.430995	0.18732548	0.0	17.25	-40.5625	-28.3125	3.013966	1.0039668	0.46591777
1276779412222	-2.5606253	4.671779	8.19945	-0.028445244	0.0	17.0	-40.3125	-29.0625	2.9286	0.99460423	0.5013871
1276779412262	-3.336985	4.2904096	8.471856	0.25890636	0.0	16.5	-39.5625	-29.3125	2.606003	1.0003645	0.66104317
1276779412302	-3.0237172	4.2086873	8.076866	-0.21020985	0.0	16.0	-38.8125	-30.3125	2.6497972	1.0003356	0.62299925
1276779412350	-3.3642259	4.140586	8.076866	-0.12686539	0.0	16.0	-38.0625	-30.5625	2.5215025	0.98705333	0.68231654
1276779412383	-4.099725	4.099725	8.471856	0.45920753	0.0	16.0	-37.8125	-31.5625	2.2925606	0.9706374	0.7853982
1276779412422	-3.2961242	4.440233	8.689782	0.49346733	0.0	16.0	-37.25	-32.0625	2.6142554	1.0040617	0.6385751
1276779412452	-4.4810944	4.1814466	7.5865335	-0.053691864	0.0	15.75	-37.8125	-32.3125	2.0470476	0.89126927	0.8199756
1276779412482	-4.0588636	4.0180025	7.5865335	-0.31064034	0.0	15.25	-38.0625	-32.8125	2.1344955	0.9254941	0.7904571
1276779412522	-3.8273177	4.140586	8.19945	0.14441967	0.0	14.1875	-38.3125	-32.8125	2.2476828	0.96839386	0.7461021
1276779412563	-3.5957718	4.1814466	8.499097	0.32492065	0.0	12.9375	-39.0625	-33.0625	2.297613	0.99520874	0.71023357
1276779412602	-4.7126403	4.2086873	9.275456	1.4163675	0.0	11.4375	-38.8125	-32.3125	2.0178277	0.9728035	0.84182674
1276779412642	-4.0588636	3.636633	9.575105	1.2107048	0.0	9.4375	-38.3125	-32.8125	2.0690434	1.0533655	0.84021044
1276779412682	-1.0351465	2.6423476	7.014479	-2.239851	0.0	7.4375	-37.5	-33.0625	2.849782	1.1863533	0.37337637
1276779412722	-1.2258313	2.2201166	8.240311	-1.1849165	0.0	5.4375	-36.5	-34.0625	2.6316097	1.2722338	0.50449026
1276779412762	-1.1441092	2.8330324	8.349273	-0.9159012	0.0	3.875	-36.0	-35.0625	2.6952415	1.219992	0.38381764
1276779412802	-1.9477097	3.8681788	9.112013	0.2822132	0.0	3.125	-35.25	-35.8125	2.40252	1.12711	0.4664605
1276779412842	-1.6889231	3.568531	9.507003	0.48752213	0.0	2.625	-34.5	-36.5625	2.477155	1.1771914	0.44204605
1276779412882	-0.95342433	2.7649305	9.697687	0.3224659	0.0	2.125	-33.5	-37.0625	2.7276092	1.2778841	0.33205947
1276779412922	-0.6946377	2.9147544	8.158588	-1.1152248	0.0	1.625	-32.5	-38.125	2.8026328	1.2188221	0.23395376
1276779412962	-0.95342433	3.336985	10.337844	1.0981884	0.0	1.125	-32.0	-38.125	2.7229917	1.2469083	0.2782997
1276779412992	-1.6889231	2.5333846	9.656827	0.3188038	0.0	0.875	-31.75	-38.625	2.2646062	1.265367	0.5880026
1276779413032	0.040861044	2.6014864	9.425281	-0.028853416	0.0	0.375	-32.0	-38.625	-3.098936	1.3014582	-0.015705515
1276779413072	-2.9147544	3.8681788	8.499097	-0.024357796	0.0	1.125	-31.5	-39.125	1.7394094	1.0528235	0.6457508
1276779413102	-3.6774938	3.718355	10.079058	1.5484161	0.0	0.875	-31.25	-39.125	1.6757182	1.0921657	0.7798733
1276779413142	-1.525479	2.4516625	9.997335	0.59933186	0.0	0.125	-30.5	-39.375	2.2899983	1.2896199	0.5565993
1276779413182	-0.23154591	1.5390993	10.147159	0.45917988	0.0	-0.875	-30.25	-39.375	2.9168363	1.4185978	0.14932267
1276779413222	-0.46309182	2.4925237	9.384419	-0.08582401	0.0	-2.625	-30.25	-38.875	2.7207224	1.306947	0.18369778
1276779413262	-0.27240697	3.486809	8.771504	-0.3635931	0.0	-3.625	-30.0	-38.875	2.715829	1.1913881	0.07796664
1276779413302	0.14982383	2.9147544	9.575105	0.20338821	0.0	-4.375	-30.25	-38.875	2.984476	1.2749312	-0.05135667
1276779413352	-0.50395286	3.405087	8.390134	-0.7378607	0.0	-4.625	-30.25	-38.625	2.513458	1.1814723	0.14693338
1276779413392	0.46309182	3.445948	8.962189	-0.19364643	0.0	-5.4375	-31.0	-37.875	3.0610905	1.2007165	-0.133587
1276779413432	-0.040861044	3.568531	9.956474	0.77009106	0.0	-5.6875	-32.75	-36.5625	2.8238027	1.2266254	0.011449882
1276779413472	-0.08172209	2.982856	10.079058	0.7048435	0.0	-5.1875	-34.25	-35.0625	2.8785355	1.2829612	0.02739041
1276779413512	-0.6537767	1.920469	9.615966	0.020985603	0.0	-4.375	-36.0	-34.0625	2.5784183	1.3628734	0.3281199
1276779413552	-0.8036005	3.255263	7.3549876	-1.7234354	0.0	-2.875	-37.0	-33.8125	2.5676534	1.143064	0.242023
1276779413582	-0.7627395	4.140586	7.9270425	-0.83089256	0.0	-1.625	-37.0	-34.5625	2.6542757	1.0825597	0.1821683
1276779413622	-1.0351465	5.09401	8.812365	0.4245882	0.0	-0.875	-37.0	-35.0625	2.5865753	1.037861	0.2004788
1276779413652	-0.88532263	3.636633	8.076866	-0.90470314	0.0	-0.125	-36.5	-35.5625	2.6707125	1.1368523	0.23880047
1276779413692	-0.27240697	2.3018389	8.853226	-0.6550236	0.0	-0.375	-36.0	-35.8125	2.962803	1.3147297	0.11779531
1276779413732	-0.10896278	4.2086873	9.724928	0.7904787	0.0	-1.125	-35.25	-35.5625	3.0300314	1.1622381	0.025884185
1276779413772	0.42223078	1.879608	8.962189	-0.63975143	0.0	-1.625	-35.0	-35.0625	-2.9147515	1.3590649	-0.22096954
1276779413812	-0.46309182	2.8330324	9.956474	0.5553913	0.0	-1.625	-34.5	-34.5625	2.8380482	1.2900912	0.16202855
1276779413852	-0.38136974	2.8330324	9.00305	-0.3606758	0.0	-1.125	-35.25	-34.5625	2.8906448	1.2633506	0.13381097
1276779413892	-1.0760075	6.0882955	8.076866	0.36492252	0.0	0.125	-35.75	-34.3125	2.4329836	0.91746396	0.17492744
1276779413932	-2.7921712	10.228881	7.246025	3.0359	0.0	1.625	-36.5	-34.5625	0.76215124	0.5994883	0.26647738
1276779413972	-2.0294318	5.5162406	9.043911	0.9794445	0.0	2.625	-37.5	-34.5625	2.3995376	0.99448556	0.35253263
1276779414012	-3.1463003	4.903325	8.580819	0.5650549	0.0	4.375	-37.8125	-34.0625	2.0710812	0.974337	0.57049465
1276779414052	-3.486809	6.3198414	9.112013	1.8177643	0.0	5.4375	-37.8125	-33.8125	2.0499227	0.9008718	0.50416595
1276779414082	-3.718355	5.5571017	8.812365	1.2552357	0.0	6.6875	-37.8125	-33.5625	2.0332227	0.92171955	0.5896975
1276779414122	-3.636633	3.255263	7.8180795	-0.59013176	0.0	7.4375	-37.25	-34.0625	1.8980197	1.0127064	0.84067774
1276779414162	-2.1111538	2.3018389	9.193735	-0.09685135	0.0	6.6875	-36.75	-34.5625	2.3276591	1.2433016	0.7422151
1276779414202	0.84446156	1.6889231	7.8861814	-1.6975546	0.0	6.4375	-36.75	-35.0625	-2.3286345	1.3357801	-0.4636476
1276779414242	5.6660647	-1.1168685	10.038197	1.7742424	0.0	6.4375	-36.0	-35.3125	-0.8636722	1.0487279	-1.7654166
1276779414282	-3.718355	2.8738933	7.668256	-0.81289864	0.0	7.6875	-36.5	-34.3125	1.8252242	1.0209798	0.91280353
1276779414322	-2.1792557	3.3778462	7.7363577	-1.0882654	0.0	9.9375	-37.25	-32.5625	2.5477326	1.0915904	0.57296616
1276779414362	-3.0645783	3.5957718	7.6954966	-0.77659607	0.0	10.9375	-39.0625	-30.0625	2.3145823	1.0201937	0.70581204
1276779414402	-1.920469	6.973618	7.6954966	0.75461006	0.0	10.4375	-42.3125	-26.0625	3.057485	0.8163534	0.26872933
1276779414442	-0.61291564	7.8180795	6.0882955	0.12135887	0.0	8.1875	-45.3125	-21.0625	-2.7582471	0.66016144	0.07823719
1276779414482	-1.920469	7.7363577	6.5922484	0.53729343	0.0	5.6875	-48.5625	-15.5625	2.8258471	0.69099617	0.24332097
1276779414522	-0.040861044	8.049625	3.8273177	-0.8933735	0.0	4.875	-50.8125	-9.5	-2.8062816	0.44382292	0.0050760983
1276779414562	-0.23154591	8.812365	3.9090397	-0.16341591	0.0	5.1875	-52.0625	-5.0	-2.9152677	0.4173792	0.02626907
1276779414592	-1.2258313	9.112013	4.440233	0.4034977	0.0	6.6875	-52.3125	-2.25	3.1250014	0.4499098	0.13372627
1276779414622	-0.95342433	8.539958	3.636633	-0.47578716	0.0	7.9375	-52.3125	-0.75	-3.0373158	0.40035185	0.11118234
1276779414652	-0.50395286	9.00305	2.8330324	-0.35493374	0.0	7.9375	-52.8125	-0.5	-2.8303683	0.3044173	0.05591744
1276779414692	-0.6537767	9.847511	3.405087	0.6334419	0.0	7.6875	-52.8125	-0.5	-2.899296	0.33223316	0.066292755
1276779414722	-0.29964766	9.724928	3.1054392	0.40646744	0.0	7.1875	-53.0625	-0.25	-2.806855	0.30895555	0.030802581
1276779414752	-0.38136974	8.853226	2.9556155	-0.46530628	0.0	6.6875	-53.0625	-0.25	-2.883031	0.32193375	0.04305031
1276779414792	-0.5720546	8.499097	2.7649305	-0.8508282	0.0	6.6875	-52.8125	-0.25	-2.9506297	0.31385747	0.06720633
1276779414832	-1.0351465	9.00305	2.9556155	-0.27448845	0.0	6.4375	-52.8125	-0.25	-3.1192777	0.31526425	0.11447463
1276779414872	-1.2258313	8.812365	3.568531	-0.22047043	0.0	6.1875	-53.0625	-0.25	3.081497	0.38144058	0.13821663
1276779414912	-0.7218784	9.193735	4.440233	0.4286585	0.0	5.9375	-52.8125	-0.25	-3.0635097	0.44872296	0.07835775
1276779414942	-1.0351465	9.302697	3.718355	0.264987	0.0	5.4375	-52.8125	-0.25	3.1190617	0.37813807	0.110817924
1276779414972	-0.8036005	8.962189	2.9556155	-0.33552265	0.0	4.875	-53.0625	-0.25	-3.1344762	0.3173667	0.0894265
1276779415012	-0.46309182	8.580819	2.9556155	-0.719265	0.0	4.875	-52.8125	-0.5	-3.0215695	0.3312695	0.053915948
1276779415052	-0.8036005	7.6273947	3.568531	-1.3474932	0.0	4.375	-53.3125	-0.5	3.0857837	0.43548945	0.10496989
1276779415082	-0.9942854	7.8589406	4.099725	-0.8870487	0.0	4.375	-52.8125	-0.25	3.046971	0.4775796	0.12584786
1276779415122	-1.2666923	8.240311	4.2086873	-0.46747017	0.0	3.875	-52.5625	0.25	2.9694264	0.46749163	0.15252511
1276779415162	-1.1441092	9.534244	4.099725	0.6345434	0.0	2.875	-52.3125	1.25	2.9869995	0.4035102	0.119428925
1276779415202	-0.6537767	9.888372	3.3778462	0.66317177	0.0	2.875	-52.0625	1.5	3.1105785	0.32850346	0.06601962
1276779415242	-1.1168685	9.956474	3.405087	0.77509785	0.0	2.625	-52.3125	2.25	2.9731557	0.32761806	0.11170811
1276779415272	-1.0351465	9.193735	2.8738933	-0.11874294	0.0	2.625	-52.0625	2.25	2.9606602	0.3011802	0.112120405
1276779415322	-0.6946377	8.894087	2.152015	-0.6295881	0.0	2.375	-52.3125	2.0	3.0222085	0.23670352	0.07794285
1276779415362	-0.7218784	8.008764	2.982856	-1.2300053	0.0	1.625	-51.8125	3.25	2.9984632	0.35521102	0.08989314
1276779415392	-0.5720546	9.275456	3.1463003	0.0045957565	0.0	0.875	-51.8125	3.5	3.025822	0.32645056	0.061595995
1276779415432	-0.7218784	9.534244	3.214402	0.2807331	0.0	0.125	-51.5625	4.5	2.9611166	0.3243109	0.0755701
1276779415462	-0.61291564	8.499097	2.8330324	-0.8268738	0.0	-1.125	-51.3125	5.0	2.9148965	0.3209733	0.07199076
1276779415502	0.19068487	7.8180795	2.8738933	-1.4749041	0.0	-2.875	-51.0625	4.25	3.0663881	0.35216728	-0.02438541
1276779415542	0.19068487	7.082581	3.1463003	-2.0543265	0.0	-4.625	-50.8125	3.25	3.0047054	0.41791147	-0.026916573
1276779415572	-0.040861044	8.580819	3.7864566	-0.42745113	0.0	-6.6875	-50.3125	0.75	2.8227558	0.4155661	0.0047618686
1276779415602	-0.27240697	9.656827	4.2495484	0.74736214	0.0	-7.6875	-49.8125	-1.5	2.6868181	0.41440752	0.028201267
1276779415642	-0.27240697	8.730643	4.6036777	0.067162514	0.0	-7.9375	-49.3125	-3.25	2.6991198	0.48504853	0.03119113
1276779415682	0.95342433	7.6273947	4.372132	-0.96347713	0.0	-8.6875	-48.8125	-5.25	3.0134602	0.51715314	-0.124354996
1276779415722	1.1441092	7.3958488	4.8216033	-0.9040985	0.0	-9.1875	-47.8125	-7.5	3.0535252	0.5723368	-0.15347955
1276779415752	0.84446156	8.962189	5.325556	0.6525793	0.0	-9.9375	-46.5625	-10.5	2.789535	0.53422344	-0.093947545
1276779415792	1.4573772	8.281172	5.7477865	0.37857437	0.0	-10.4375	-45.3125	-13.5625	2.9813473	0.5996166	-0.17420301
1276779415832	1.6889231	8.281172	5.8976107	0.49927425	0.0	-10.9375	-44.0625	-16.0625	2.9931605	0.6092523	-0.20118819
1276779415872	1.9885708	8.19945	5.706926	0.37934017	0.0	-11.9375	-43.5625	-16.8125	3.0248108	0.5947143	-0.237931
1276779415912	1.5390993	6.973618	5.47538	-0.8077631	0.0	-13.4375	-42.8125	-17.3125	2.8599203	0.654107	-0.21722089
1276779415952	1.7570249	6.6331096	5.9793324	-0.70512867	0.0	-14.9375	-42.0625	-18.0625	2.910691	0.71677893	-0.2589402
1276779415993	2.3018389	6.8237944	5.8567495	-0.52418613	0.0	-16.25	-40.8125	-18.3125	2.9686723	0.6827741	-0.32533908
1276779416032	2.070293	7.0553403	6.1700177	-0.20805359	0.0	-16.5	-39.8125	-19.3125	2.7937372	0.6981533	-0.28542423
1276779416072	2.152015	7.3958488	6.973618	0.5837822	0.0	-17.0	-39.0625	-19.3125	2.7739353	0.7357692	-0.28315753
1276779416112	2.152015	7.6273947	7.8589406	1.3544998	0.0	-17.25	-38.5625	-19.0625	2.773494	0.7812022	-0.27499467
1276779416152	2.152015	7.5865335	8.19945	1.5695372	0.0	-17.25	-38.3125	-20.0625	2.7762527	0.8048915	-0.27640167
1276779416192	2.0294318	7.205164	8.049625	1.1855946	0.0	-17.5	-38.0625	-20.5625	2.7608273	0.8216939	-0.2745506
1276779416232	1.56634	7.014479	8.158588	1.0662012	0.0	-16.5	-38.3125	-21.3125	2.706164	0.8486115	-0.21969667
1276779416282	1.2258313	7.082581	7.9679036	0.9242916	0.0	-15.75	-38.8125	-22.0625	2.623492	0.8368198	-0.17137912
1276779416326	0.95342433	7.3549876	7.504812	0.7445135	0.0	-14.9375	-39.0625	-21.8125	2.517133	0.7913148	-0.12891078
1276779416362	0.7627395	7.014479	7.0553403	0.17145157	0.0	-14.4375	-40.0625	-20.8125	2.5383513	0.78536373	-0.1083123
1276779416402	0.6946377	6.5513873	6.3607025	-0.649045	0.0	-14.4375	-40.3125	-20.0625	2.5318544	0.76783794	-0.105634436
1276779416442	0.61291564	6.0882955	5.7886477	-1.3833818	0.0	-14.6875	-41.0625	-19.5625	2.5269647	0.7576568	-0.1003331
1276779416482	0.6537767	5.8976107	5.434519	-1.7603321	0.0	-15.5	-41.5625	-18.8125	2.5220912	0.74151295	-0.11040374
1276779416522	0.50395286	6.1291566	5.6252036	-1.4721775	0.0	-15.5	-41.3125	-18.5625	2.4626768	0.7408728	-0.08203768
1276779416562	0.50395286	6.3198414	5.7477865	-1.249115	0.0	-15.25	-41.5625	-18.3125	2.4734383	0.7364522	-0.079573005
1276779416592	0.42223078	6.701211	5.8567495	-0.89676666	0.0	-14.9375	-40.8125	-18.0625	2.4112003	0.71727264	-0.062924944
1276779416632	0.46309182	6.973618	5.706926	-0.7836342	0.0	-14.4375	-40.8125	-18.0625	2.3839953	0.68475777	-0.06630889
1276779416662	0.5720546	6.469665	5.8976107	-1.0336447	0.0	-14.4375	-40.5625	-19.0625	2.4808052	0.73723733	-0.088191696
1276779416702	0.84446156	6.3607025	6.2108784	-0.8765516	0.0	-14.9375	-40.5625	-20.0625	2.576	0.76911473	-0.13199043
1276779416742	0.8036005	6.1291566	6.0201936	-1.1779156	0.0	-15.25	-40.0625	-21.0625	2.525765	0.7721699	-0.13036749
1276779416782	0.7218784	6.238119	5.938472	-1.1636944	0.0	-14.9375	-39.5625	-22.0625	2.438964	0.75747365	-0.11520808
1276779416812	0.7627395	6.5513873	6.510526	-0.5389967	0.0	-14.4375	-39.8125	-22.0625	2.5079384	0.77890414	-0.115902334
1276779416842	0.5720546	7.1234417	7.014479	0.2070198	0.0	-13.1875	-39.8125	-22.5625	2.4663975	0.77608436	-0.08013396
1276779416882	0.6946377	7.5865335	7.273266	0.72607994	0.0	-12.4375	-40.8125	-23.0625	2.5227919	0.7622346	-0.09130734
1276779416922	0.53119355	7.9270425	7.43671	1.0756664	0.0	-11.4375	-41.0625	-23.3125	2.4958396	0.7523764	-0.066910274
1276779416962	0.23154591	7.5456724	7.273266	0.67624855	0.0	-10.4375	-41.0625	-23.8125	2.4704034	0.7667829	-0.030676298
1276779416993	0.10896278	7.246025	6.66035	0.035962105	0.0	-9.9375	-40.5625	-23.8125	2.3917055	0.74325114	-0.015036461
1276779417032	0.08172209	6.5922484	6.3198414	-0.6740265	0.0	-8.9375	-40.3125	-23.8125	2.4775596	0.7642659	-0.01239606
1276779417072	0.10896278	6.4424243	6.0882955	-0.94188595	0.0	-8.4375	-40.5625	-23.5625	2.5202675	0.7570734	-0.016911708
1276779417112	0.23154591	6.4015636	6.3607025	-0.7793484	0.0	-7.9375	-40.3125	-22.8125	2.660364	0.78186953	-0.036154453
1276779417152	0.38136974	6.701211	6.6331096	-0.37002945	0.0	-7.4375	-40.8125	-22.8125	2.7596176	0.77948266	-0.05684925
1276779417192	0.42223078	6.891896	6.6331096	-0.2319622	0.0	-6.4375	-41.0625	-22.5625	2.8357072	0.76533073	-0.061188344
1276779417232	0.08172209	7.014479	6.701211	-0.10531902	0.0	-5.6875	-41.0625	-22.5625	2.7348857	0.7625281	-0.011649959
1276779417274	-0.040861044	7.014479	6.701211	-0.10557747	0.0	-5.1875	-41.5625	-23.3125	2.7113783	0.7625535	0.005825177
1276779417312	-0.23154591	7.014479	6.66035	-0.131073	0.0	-4.375	-42.0625	-22.8125	2.703359	0.7592356	0.032997727
1276779417352	-0.19068487	7.1234417	6.5513873	-0.12674999	0.0	-4.375	-42.0625	-22.3125	2.7104104	0.74341136	0.026762253
1276779417392	-0.23154591	7.3549876	6.701211	0.14602184	0.0	-4.375	-42.5625	-21.5625	2.7162106	0.73867345	0.03147109
1276779417432	-0.38136974	6.891896	6.66035	-0.21478271	0.0	-4.375	-42.5625	-20.8125	2.7040179	0.7675506	0.05527959
1276779417462	-0.53119355	6.851035	6.66035	-0.23695278	0.0	-4.375	-42.5625	-20.8125	2.7040179	0.7675506	0.05527959
1276779417494	-0.9942854	7.164303	7.205164	0.4026699	0.0	-4.875	-42.5625	-21.3125	2.4961116	0.78347236	0.13790241
1276779417532	-0.88532263	8.240311	7.8589406	1.6147976	0.0	-4.625	-42.5625	-21.8125	2.5267715	0.7588483	0.10702747
1276779417572	-0.95342433	8.853226	8.308413	2.371952	0.0	-4.875	-42.5625	-22.0625	2.4920568	0.7507864	0.10727886
1276779417612	-1.1849703	8.471856	7.9679036	1.883687	0.0	-4.875	-41.8125	-22.0625	2.4011059	0.7499201	0.13896981
1276779417642	-0.95342433	7.4639506	7.4639506	0.79194164	0.0	-5.1875	-41.8125	-22.3125	2.461215	0.78135186	0.1270492
1276779417672	-0.8036005	7.6273947	6.8237944	0.45917225	0.0	-5.9375	-40.8125	-22.8125	2.322778	0.7271055	0.1049699
1276779417712	-0.50395286	7.5456724	6.4424243	0.12793446	0.0	-6.4375	-40.0625	-23.8125	2.2616158	0.7055919	0.066687964
1276779417752	-0.29964766	6.973618	6.0882955	-0.54444313	0.0	-7.9375	-39.5625	-25.0625	2.190546	0.71726584	0.042942334
1276779417782	-0.38136974	6.3607025	5.012288	-1.6994305	0.0	-8.6875	-38.3125	-26.0625	1.824076	0.66651416	0.059885483
1276779417822	-0.3405087	6.2789803	5.012288	-1.7652216	0.0	-10.1875	-38.0625	-27.5625	1.716306	0.6729661	0.05417687
1276779417852	-0.42223078	6.5513873	5.7886477	-1.0540848	0.0	-10.6875	-37.25	-28.8125	1.761324	0.72263825	0.06436005
1276779417892	-0.46309182	6.932757	5.938472	-0.6664629	0.0	-10.9375	-36.0	-30.3125	1.5573448	0.707203	0.066698566
1276779417932	-1.1168685	6.238119	5.7477865	-1.2510338	0.0	-10.6875	-34.5	-31.3125	1.4720637	0.73665565	0.17716223
1276779417972	-1.4165162	4.5628166	6.891896	-1.4207077	0.0	-9.1875	-33.0	-32.3125	1.8466561	0.96463174	0.30101413
1276779418002	-1.4573772	5.597963	7.5865335	-0.26638603	0.0	-8.1875	-32.75	-33.0625	1.784841	0.9193574	0.2546871
1276779418042	-1.334794	6.4424243	6.742072	-0.38635063	0.0	-6.6875	-32.75	-33.3125	1.4736806	0.79762036	0.20429759
1276779418072	-1.6889231	7.9679036	7.1234417	1.0138569	0.0	-5.6875	-33.5	-32.8125	1.2685484	0.71859527	0.20887424
1276779418102	-2.4108016	8.853226	7.205164	1.8597956	0.0	-4.875	-34.5	-32.0625	1.1939131	0.665684	0.26586148
1276779418142	-2.5333846	8.19945	8.240311	2.0909014	0.0	-3.875	-35.25	-31.3125	1.5670984	0.7650951	0.29966578
1276779418182	-1.9885708	7.5865335	9.425281	2.4549084	0.0	-2.625	-36.75	-30.3125	2.1303005	0.8767834	0.2563514
1276779418222	-6.3607025	9.234595	9.193735	4.6937304	0.0	0.125	-37.0	-31.0625	1.3514483	0.68675876	0.6031632
1276779418262	0.46309182	1.6889231	3.0237172	-6.312401	0.0	3.375	-34.5	-34.0625	-2.2949607	1.0458302	-0.2676163
1276779418302	0.27240697	-1.2666923	6.510526	-3.1684527	0.0	3.125	-28.25	-37.3125	-0.08218967	1.3743541	-2.929765
1276779418342	-0.0	-2.070293	10.378705	0.77652645	0.0	1.375	-20.5	-40.875	0.048893478	1.3739057	3.1415927
1276779418382	0.53119355	-2.2201166	9.466142	-0.06914902	0.0	-2.125	-13.75	-43.625	-0.22751223	1.334162	-2.906744
1276779418423	-0.5720546	-0.7627395	9.724928	-0.035097122	0.0	-5.6875	-9.9375	-44.125	0.090220295	1.4730688	2.4980915
1276779418462	-1.6480621	0.27240697	10.882658	1.2034616	0.0	-5.1875	-9.9375	-44.375	0.8075148	1.418491	1.4069881
1276779418492	-1.2666923	0.08172209	9.765789	0.04128456	0.0	-4.375	-11.1875	-45.125	0.8815894	1.4415442	1.5063695
1276779418532	-0.6537767	-0.10896278	9.234595	-0.5482998	0.0	-3.125	-12.4375	-45.375	0.9524483	1.4991457	1.735945
1276779418572	-1.1168685	0.040861044	9.656827	-0.085365295	0.0	-2.375	-13.0	-45.375	1.0733032	1.4555753	1.5342273
1276779418602	-1.2258313	0.61291564	10.18802	0.47313976	0.0	-2.375	-13.25	-45.375	1.3958775	1.4370762	1.1071488
1276779418642	-0.84446156	0.92618364	9.275456	-0.44689465	0.0	-1.875	-13.75	-44.375	1.834468	1.4364824	0.739277
1276779418672	-0.53119355	1.4165162	8.076866	-1.589324	0.0	-1.875	-14.75	-43.875	2.1811206	1.3856367	0.35877067
1276779418712	-0.7627395	2.7921712	9.847511	0.45743656	0.0	-2.125	-16.5	-42.875	1.9625224	1.2849177	0.26666477
1276779418752	-1.56634	3.0645783	9.302697	0.11228275	0.0	-2.375	-18.5	-42.125	1.5536516	1.216448	0.47249693
1276779418792	-2.982856	3.718355	9.956474	1.2321434	0.0	-2.875	-20.75	-41.875	1.2471913	1.1242713	0.67607963
1276779418832	-1.4573772	4.5219555	10.269742	1.5088091	0.0	-2.875	-23.25	-40.375	1.8027978	1.1374962	0.31177807
1276779418872	-0.9942854	4.6036777	9.275456	0.5960684	0.0	-3.375	-24.75	-39.875	1.8968396	1.1009498	0.21270916
1276779418912	-0.95342433	4.7535014	8.049625	-0.40977478	0.0	-4.125	-26.0	-38.875	1.688786	1.0286978	0.19794652
1276779418952	-1.0351465	4.862464	7.7363577	-0.6106558	0.0	-4.625	-27.0	-37.875	1.6622933	0.9996369	0.2097539
1276779418982	-1.1849703	4.5219555	8.689782	0.060697556	0.0	-5.4375	-27.5	-37.625	1.9152958	1.0772543	0.2562856
1276779419022	-0.88532263	4.630918	8.539958	-0.051647186	0.0	-4.875	-28.25	-37.3125	2.0663838	1.0663536	0.18889719
1276779419062	-0.7218784	4.4810944	8.349273	-0.3034048	0.0	-4.625	-28.25	-37.3125	2.1585796	1.0728613	0.15972199
1276779419092	-0.7627395	4.440233	8.499097	-0.18729019	0.0	-4.375	-28.25	-37.0625	2.1976259	1.0833693	0.17011882
1276779419122	-1.2258313	4.8216033	8.853226	0.34864998	0.0	-4.375	-28.5	-36.8125	1.9964379	1.0588317	0.24896269
1276779419162	-1.3756552	4.9850473	9.507003	1.0158367	0.0	-5.1875	-29.0	-35.8125	2.026544	1.0726066	0.26925504
1276779419202	-0.95342433	5.053149	8.730643	0.32584572	0.0	-5.6875	-30.0	-34.8125	2.1200304	1.0385077	0.18648688
1276779419242	-0.95342433	5.053149	7.8589406	-0.4148302	0.0	-5.9375	-31.0	-34.3125	2.0338337	0.99138606	0.18648688
1276779419282	-0.84446156	5.366417	7.246025	-0.7503576	0.0	-5.6875	-31.75	-33.8125	1.9417257	0.92747754	0.15608051
1276779419322	-0.95342433	5.47538	7.3549876	-0.5879383	0.0	-5.4375	-33.0	-33.8125	1.9823487	0.9236913	0.17240074
1276779419362	-0.9125633	6.0201936	7.3549876	-0.2582817	0.0	-5.9375	-34.5	-32.5625	1.9827402	0.8792917	0.15043846
1276779419392	-0.9125633	6.2789803	7.668256	0.14626503	0.0	-6.1875	-35.75	-31.0625	2.1119015	0.8795519	0.14432572
1276779419432	-0.7627395	6.4424243	7.7772183	0.32112026	0.0	-6.9375	-37.0	-29.5625	2.226882	0.8755723	0.11784468
1276779419472	-0.7627395	6.6331096	7.8589406	0.50561714	0.0	-7.4375	-37.5	-28.3125	2.2494192	0.86654466	0.11448689
1276779419502	-0.7218784	6.510526	7.205164	-0.06896782	0.0	-7.4375	-37.8125	-28.3125	2.185263	0.8329603	0.11042759
1276779419532	-0.7627395	6.2789803	6.782933	-0.5321932	0.0	-7.6875	-38.0625	-28.5625	2.1198256	0.8203087	0.12088278
1276779419572	-0.7627395	6.4424243	6.701211	-0.47965527	0.0	-7.6875	-38.0625	-28.5625	2.1198256	0.8203087	0.12088278
1276779419602	-0.7218784	6.66035	7.014479	-0.106944084	0.0	-7.6875	-38.0625	-28.3125	2.1214764	0.80837256	0.10796302
1276779419642	-0.6537767	6.782933	7.205164	0.11050606	0.0	-7.4375	-38.0625	-28.5625	2.1595292	0.81326616	0.096088715
1276779419672	-0.6537767	6.469665	7.014479	-0.2417717	0.0	-7.1875	-37.8125	-28.0625	2.200541	0.82324815	0.10071076
1276779419712	-0.53119355	6.4424243	7.164303	-0.15707874	0.0	-6.9375	-37.5	-28.3125	2.2671914	0.83671695	0.08226634
1276779419752	-0.38136974	6.510526	7.164303	-0.11853218	0.0	-6.6875	-37.25	-28.3125	2.314851	0.83231795	0.058510546
1276779419782	-0.46309182	6.5513873	6.891896	-0.28649426	0.0	-6.6875	-37.0	-28.3125	2.206342	0.80947745	0.070568696
1276779419822	-0.46309182	5.8976107	7.3141265	-0.3995943	0.0	-6.6875	-36.75	-28.5625	2.3853412	0.89070445	0.078361146
1276779419862	-0.040861044	7.4639506	7.3141265	0.6436453	0.0	-6.6875	-36.75	-29.0625	2.1926835	0.77525276	0.005474398
1276779419902	-0.3405087	6.782933	7.5865335	0.37566948	0.0	-7.1875	-36.25	-29.3125	2.2427166	0.8406387	0.050158698
1276779419942	0.040861044	7.6954966	8.430995	1.608428	0.0	-7.9375	-35.5	-29.5625	2.2550237	0.8309676	-0.005309684
1276779419975	-0.23154591	6.932757	7.6954966	0.5537262	0.0	-8.9375	-35.0	-30.0625	2.0795453	0.83721536	0.033386413
1276779420012	0.61291564	6.66035	6.891896	-0.2027893	0.0	-9.9375	-34.0	-30.3125	2.0860147	0.80037487	-0.09176608
1276779420058	0.95342433	7.668256	7.273266	0.80520916	0.0	-10.9375	-34.0	-30.8125	1.808485	0.7551395	-0.123699114
1276779420094	0.38136974	6.5922484	8.076866	0.6259403	0.0	-11.6875	-33.75	-31.3125	2.1805413	0.88544333	-0.057786833
1276779420132	1.334794	5.134871	6.973618	-1.0442352	0.0	-12.9375	-32.75	-31.8125	2.677498	0.9204195	-0.25431836
1276779420162	1.9477097	5.434519	4.4810944	-2.4985876	0.0	-13.9375	-31.75	-32.3125	0.50905627	0.660069	-0.34413487
1276779420202	1.4982382	6.0882955	3.718355	-2.5170531	0.0	-15.25	-30.0	-32.5625	0.5949138	0.5352901	-0.24129057
1276779420243	2.4108016	4.862464	4.630918	-2.6721616	0.0	-16.5	-29.0	-32.0625	0.601733	0.7063862	-0.46028066
1276779420282	2.7240696	4.630918	3.9499009	-3.1382413	0.0	-17.25	-28.75	-31.3125	0.054242134	0.6339481	-0.5317241
1276779420322	2.3426998	5.012288	4.6036777	-2.6090727	0.0	-18.5	-28.75	-30.0625	1.266668	0.69399726	-0.43722203
1276779420362	2.3426998	4.440233	3.405087	-3.740471	0.0	-20.25	-29.5	-28.3125	0.87207294	0.59598374	-0.4854888
1276779420392	2.1792557	6.1291566	2.5606253	-2.815762	0.0	-22.25	-29.75	-26.5625	0.75365347	0.37500846	-0.3416155
1276779420432	3.2961242	6.742072	1.56634	-2.1402698	0.0	-24.25	-31.0	-23.8125	0.4865996	0.2057617	-0.45471928
1276779420472	3.5957718	6.4424243	0.7627395	-2.3893614	0.0	-27.0625	-32.5	-19.0625	0.48775575	0.10301475	-0.5090709
1276779420502	3.5957718	8.662541	0.38136974	-0.41971016	0.0	-29.5625	-33.5	-13.5625	0.8849644	0.04063888	-0.39345062
1276779420532	3.255263	9.615966	-0.8036005	0.3771267	0.0	-31.5625	-34.25	-6.75	1.0808278	-0.07899199	-0.32641745
1276779420572	3.336985	9.193735	-0.9942854	0.024363518	0.0	-33.5625	-33.0	0.5	1.3857496	-0.10131085	-0.3481761
1276779420612	4.903325	6.742072	-4.2086873	-0.4679575	0.0	-35.875	-30.0	6.0	0.64572746	-0.46751797	-0.6287963
1276779420652	6.3607025	6.5513873	-4.5900574	0.41332245	0.0	-37.375	-26.25	11.25	0.7013191	-0.46578708	-0.7706313
1276779420682	6.932757	5.09401	-6.469665	0.95757866	0.0	-39.125	-23.25	14.5625	0.27696958	-0.6447939	-0.93711126
1276779420722	8.349273	2.4516625	-6.0474343	0.790164	0.0	-40.875	-21.0	15.3125	-0.5797483	-0.6073388	-1.2851865
1276779420762	15.935807	1.4982382	-3.173541	6.511009	0.0	-42.125	-20.0	14.5625	-1.9171693	-0.19573247	-1.4770548
1276779420792	8.853226	1.4982382	-5.8976107	0.9360752	0.0	-43.625	-18.75	12.0	-0.6321939	-0.5811511	-1.4031539
1276779420832	9.80665	-0.27240697	-3.1054392	0.4835558	0.0	-44.875	-16.5	9.5	-1.330749	-0.30656534	-1.598567
1276779420872	11.75436	-0.23154591	-1.525479	2.0485468	0.0	-46.6875	-14.75	5.75	-1.5537672	-0.12903373	-1.5904925
1276779420912	11.223166	-0.8036005	0.7218784	1.4683819	0.0	-47.9375	-12.75	1.0	-1.8137747	0.06406834	-1.6422763
1276779420952	10.61025	-1.879608	2.6014864	1.278388	0.0	-47.6875	-11.9375	-6.0	-1.8007447	0.23689397	-1.7461275
1276779420992	9.534244	-3.0237172	2.982856	0.6308832	0.0	-47.4375	-10.9375	-14.3125	-1.5007333	0.28982204	-1.8779054
1276779421032	12.830367	-1.4573772	5.366417	4.176936	0.0	-45.6875	-9.9375	-20.8125	-1.423631	0.3938705	-1.6838996
1276779421072	13.211738	-1.879608	3.6774938	4.0355644	0.0	-43.875	-9.9375	-25.0625	-0.8892804	0.2689013	-1.712116
1276779421102	7.7363577	-2.070293	3.8273177	-0.9305191	0.0	-43.375	-9.9375	-26.8125	-1.2363516	0.4458136	-1.8322752
1276779421142	6.5513873	-2.1111538	3.8273177	-1.9309907	0.0	-43.125	-10.6875	-26.8125	-1.3570452	0.5074703	-1.8825347
1276779421182	9.112013	-1.920469	3.6774938	0.20538998	0.0	-43.875	-11.9375	-26.0625	-1.1460327	0.3761121	-1.7785186
1276779421222	11.032481	-1.1849703	4.2495484	2.075204	0.0	-44.375	-13.0	-25.3125	-1.1290078	0.36575052	-1.6777935
1276779421262	9.466142	-1.4573772	3.8273177	0.5074253	0.0	-45.1875	-13.75	-24.3125	-1.2508805	0.38016874	-1.7235538
1276779421302	8.730643	-1.7978859	3.0237172	-0.39392567	0.0	-45.1875	-14.5	-24.0625	-1.1835564	0.3270356	-1.7738855
1276779421342	9.615966	-1.2666923	3.636633	0.5517473	0.0	-44.875	-14.5	-24.0625	-1.212582	0.35872495	-1.7017703
1276779421382	9.697687	-0.6537767	3.759216	0.61468697	0.0	-44.625	-15.0	-24.5625	-1.1890975	0.36904296	-1.6381102
1276779421422	9.507003	-0.9942854	3.5957718	0.40614986	0.0	-43.875	-14.75	-25.3125	-1.1387811	0.35979763	-1.675002
1276779421462	9.152874	-1.2666923	4.2904096	0.38095093	0.0	-43.125	-15.0	-26.0625	-1.2668744	0.43470222	-1.7083156
1276779421492	9.193735	-1.525479	4.5219555	0.551918	0.0	-42.625	-15.25	-27.5625	-1.241297	0.4517521	-1.7352241
1276779421522	8.962189	-1.9885708	4.4810944	0.40880108	0.0	-42.125	-14.25	-28.5625	-1.1990228	0.45410532	-1.7891434
1276779421552	8.580819	-2.1111538	4.7126403	0.20815945	0.0	-41.875	-14.0	-29.5625	-1.2241597	0.4899334	-1.8120366
1276779421582	8.580819	-1.7570249	4.7126403	0.13953304	0.0	-42.125	-14.0	-30.0625	-1.214456	0.49361667	-1.7727665
1276779421622	8.539958	-1.56634	4.2495484	-0.14005947	0.0	-42.375	-13.75	-29.8125	-1.1472064	0.45516655	-1.7521932
1276779421662	8.853226	-1.3075534	3.990762	-0.007901192	0.0	-41.625	-14.0	-30.8125	-1.0214003	0.41946578	-1.7174286
1276779421692	8.962189	-0.7218784	4.5219555	0.2576437	0.0	-39.875	-14.75	-33.0625	-0.97222674	0.46598923	-1.6511699
1276779421732	8.471856	0.10896278	5.7477865	0.43157578	0.0	-37.125	-15.0	-36.5625	-1.0007689	0.59608203	-1.5579354
1276779421772	5.09401	0.61291564	10.501288	1.8810215	0.0	-31.5625	-15.75	-41.375	-2.3483891	1.116324	-1.4510511
1276779421812	3.255263	-2.4108016	9.466142	0.4897833	0.0	-26.3125	-16.5	-45.375	-1.3190169	1.1664537	-2.208245
1276779421852	2.982856	-2.0294318	9.765789	0.6042414	0.0	-22.0	-17.25	-48.125	-1.2545308	1.216918	-2.1682227
1276779421892	4.0180025	-0.6537767	8.62168	-0.2722311	0.0	-18.5	-18.75	-49.625	-1.239025	1.1296647	-1.7320946
1276779421932	4.7943625	0.7218784	8.076866	-0.38631153	0.0	-16.75	-20.5	-50.125	-1.1030555	1.0301689	-1.4213507
1276779421972	6.4015636	1.0351465	8.499097	0.8838215	0.0	-16.25	-22.75	-49.875	-0.93654525	0.91903406	-1.4104818
1276779422002	7.1234417	0.50395286	8.349273	1.1800575	0.0	-15.75	-24.75	-48.625	-0.90970993	0.86322564	-1.5001683
1276779422042	5.6660647	0.14982383	8.049625	0.038308144	0.0	-16.0	-26.5	-47.375	-1.0891781	0.95729876	-1.5443602
1276779422072	4.4810944	0.19068487	8.539958	-0.16053963	0.0	-16.75	-27.5	-46.125	-1.3646774	1.0871959	-1.5282688
1276779422102	3.990762	0.313268	8.730643	-0.20204449	0.0	-16.5	-27.75	-45.875	-1.487825	1.1408926	-1.4924587
1276779422142	4.0588636	0.95342433	9.507003	0.57441425	0.0	-16.0	-27.75	-46.375	-1.6328192	1.157501	-1.3400798
1276779422182	3.5276701	1.1441092	9.697687	0.5759592	0.0	-14.4375	-26.75	-47.125	-1.7454001	1.2055387	-1.2571757
1276779422222	3.759216	0.38136974	9.112013	0.057725906	0.0	-13.6875	-26.75	-48.125	-1.4383663	1.1777048	-1.469693
1276779422262	4.372132	0.08172209	8.894087	0.10430336	0.0	-13.4375	-26.75	-48.375	-1.2488006	1.1138403	-1.5521069
1276779422312	4.5628166	-0.29964766	8.812365	0.12143326	0.0	-13.6875	-26.25	-48.375	-1.1636035	1.0921515	-1.6363738
1276779422352	4.440233	-0.19068487	9.275456	0.4785881	0.0	-14.4375	-27.25	-48.125	-1.2633337	1.1239682	-1.6137147
1276779422392	4.2495484	0.61291564	9.343558	0.47617054	0.0	-14.6875	-27.25	-47.375	-1.4492961	1.1400566	-1.4275534
1276779422432	4.140586	0.88532263	9.234595	0.35238457	0.0	-15.75	-27.5	-46.125	-1.5709101	1.1408862	-1.3601524
1276779422472	5.597963	0.0	8.008764	-0.035391808	0.0	-17.5	-28.0	-45.625	-1.172101	0.9607556	-1.5707964
1276779422502	6.2789803	-0.040861044	7.4639506	-0.05278778	0.0	-19.25	-27.75	-44.625	-1.101479	0.871399	-1.5773039
1276779422532	6.66035	0.6537767	7.8861814	0.53644085	0.0	-20.75	-27.75	-44.125	-1.1734899	0.8671048	-1.4729502
1276779422562	5.7477865	1.3075534	8.430995	0.48064327	0.0	-21.0	-27.5	-44.375	-1.4077142	0.9606327	-1.3471149
1276779422592	4.5219555	1.1441092	8.689782	0.05587387	0.0	-20.0	-28.0	-44.875	-1.6565288	1.0781643	-1.3229848
1276779422632	4.6036777	0.27240697	8.853226	0.17571735	0.0	-18.75	-28.25	-45.375	-1.4647964	1.0905614	-1.5116936
1276779422672	4.9850473	0.27240697	8.812365	0.32166004	0.0	-17.5	-28.25	-45.875	-1.3517109	1.0553493	-1.5162058
1276779422702	5.012288	0.84446156	8.730643	0.29583836	0.0	-16.75	-28.5	-46.375	-1.3771069	1.0435725	-1.4038855
1276779422742	4.7535014	1.0760075	9.343558	0.73164463	0.0	-15.25	-28.25	-46.375	-1.4583856	1.0900046	-1.3481869
1276779422782	2.9147544	0.9942854	9.384419	0.07017803	0.0	-14.6875	-28.0	-46.875	-1.8895774	1.2537009	-1.2420529
1276779422812	2.6832085	0.9942854	8.771504	-0.5801935	0.0	-14.6875	-28.25	-46.875	-1.9241233	1.2554545	-1.2159253
1276779422842	3.405087	0.95342433	8.349273	-0.73945713	0.0	-14.9375	-28.25	-46.875	-1.6559737	1.1701838	-1.2977877
1276779422872	5.134871	1.1168685	7.7363577	-0.45434952	0.0	-17.0	-28.5	-46.125	-1.2833477	0.9741319	-1.3566256
1276779422912	6.1291566	0.6537767	6.66035	-0.7317257	0.0	-18.5	-28.5	-45.125	-1.0557227	0.8240884	-1.4645314
1276779422952	6.851035	-0.040861044	7.246025	0.16547298	0.0	-20.5	-28.0	-44.125	-1.0659351	0.8134012	-1.5767604
1276779422982	6.5922484	-0.6946377	9.575105	1.8390741	0.0	-21.5	-27.75	-43.125	-1.2670106	0.9652639	-1.6757808
1276779423022	4.7126403	-1.2666923	9.724928	1.0739613	0.0	-21.5	-27.0	-43.625	-1.3449905	1.1057149	-1.8333764
1276779423062	4.0588636	-0.23154591	10.378705	1.3398972	0.0	-20.5	-26.75	-44.125	-1.6261542	1.197455	-1.6277815
1276779423092	6.891896	3.173541	13.0619135	5.2990828	0.0	-18.5	-27.0	-44.875	-1.6749784	1.044551	-1.1392661
1276779423132	2.8330324	2.5606253	9.575105	0.50186634	0.0	-17.0	-27.5	-45.625	-2.495593	1.1913067	-0.8358603
1276779423172	3.0645783	1.4573772	8.962189	-0.22351837	0.0	-16.0	-28.0	-45.875	-2.0038795	1.2088364	-1.1268948
1276779423212	6.701211	0.7218784	8.499097	1.0405607	0.0	-15.75	-27.5	-45.875	-1.0734419	0.9003241	-1.4634866
1276779423252	8.076866	0.040861044	7.7363577	1.3776541	0.0	-16.25	-26.75	-45.875	-0.88558626	0.76386195	-1.5657374
1276779423292	5.325556	-2.8330324	8.499097	0.615551	0.0	-17.25	-24.25	-45.875	-0.899959	0.95355815	-2.0596912
1276779423332	0.19068487	-3.0645783	12.871228	3.4257536	0.0	-16.75	-22.0	-46.375	-0.5265838	1.3366174	-3.0794506
1276779423372	3.0645783	-3.6774938	10.841797	2.044939	0.0	-17.0	-19.0	-46.875	-0.8461619	1.1550047	-2.4468544
1276779423412	5.053149	-3.1463003	8.771504	0.79395485	0.0	-17.25	-16.0	-46.875	-0.81948566	0.974557	-2.1276977
1276779423452	6.238119	-2.8330324	7.7772183	0.5579691	0.0	-18.5	-13.5	-45.625	-0.74299484	0.8486098	-1.9970948
1276779423482	6.851035	-4.5219555	7.164303	1.0888538	0.0	-22.0	-9.9375	-43.375	-0.7005968	0.71755785	-2.154197
1276779423522	7.0553403	-4.440233	6.3607025	0.67915154	0.0	-25.5625	-8.1875	-40.625	-0.7553373	0.6517787	-2.132513
1276779423552	9.234595	-4.399372	4.8216033	1.5017576	0.0	-28.5625	-6.6875	-37.3125	-0.65237164	0.44047958	-2.0153873
1276779423582	10.460427	-4.7126403	4.140586	2.3906431	0.0	-31.5625	-6.4375	-34.0625	-0.6825623	0.34635082	-1.9940833
1276779423622	8.499097	-4.099725	4.2904096	0.5591593	0.0	-33.5625	-6.9375	-31.5625	-0.8729757	0.42673418	-2.0202422
1276779423662	8.962189	-3.759216	3.636633	0.5701332	0.0	-35.625	-6.9375	-28.5625	-0.8949601	0.35806072	-1.9679592
1276779423692	8.430995	-3.7864566	2.982856	-0.09498882	0.0	-37.625	-6.6875	-25.3125	-0.9813395	0.31218806	-1.9929111
1276779423732	7.8861814	-3.486809	2.5606253	-0.81184673	0.0	-38.875	-5.6875	-22.3125	-1.0528424	0.28867084	-1.9870961
1276779423762	7.8180795	-3.5276701	2.1792557	-0.95701885	0.0	-40.375	-5.1875	-18.0625	-1.1728233	0.24881317	-1.994664
1276779423792	8.662541	-3.568531	2.4108016	-0.13266373	0.0	-41.125	-5.4375	-14.5625	-1.3271723	0.25185883	-1.9615616
1276779423832	8.812365	-2.5333846	2.8330324	-0.2096777	0.0	-42.375	-5.6875	-11.75	-1.590123	0.2996655	-1.8507283
1276779423872	8.730643	-2.1792557	2.4108016	-0.49079037	0.0	-43.375	-6.4375	-9.75	-1.6345482	0.26176378	-1.8154079
1276779423912	8.349273	-2.8738933	2.4516625	-0.64257526	0.0	-43.625	-7.4375	-8.5	-1.6739453	0.2708284	-1.9023026
1276779423952	9.084772	-2.9147544	3.173541	0.24821186	0.0	-43.875	-7.4375	-8.0	-1.8045443	0.32111266	-1.8812606
1276779423982	8.921328	-2.7240696	3.8273177	0.275959	0.0	-43.375	-7.9375	-8.75	-1.8934102	0.38935953	-1.8671482
1276779424012	8.008764	-2.7240696	4.0180025	-0.44154453	0.0	-42.125	-8.4375	-10.75	-1.8523762	0.44342944	-1.8986567
1276779424052	7.3958488	-2.7921712	4.399372	-0.7595911	0.0	-41.125	-8.4375	-13.5625	-1.8075428	0.5078234	-1.9317851
1276779424082	7.3549876	-2.3699405	4.903325	-0.654871	0.0	-40.375	-8.6875	-17.0625	-1.7971084	0.5654293	-1.8825138
1276779424122	7.9270425	-2.4925237	4.9850473	-0.116378784	0.0	-39.375	-8.6875	-20.3125	-1.5988619	0.5403526	-1.8754413
1276779424162	8.076866	-2.8330324	4.671779	-0.0553751	0.0	-38.875	-8.6875	-22.0625	-1.4215106	0.49962246	-1.9081471
1276779424202	8.281172	-2.4925237	4.6036777	-0.009490967	0.0	-38.375	-8.4375	-23.0625	-1.3531245	0.48917666	-1.8631582
1276779424242	8.499097	-2.6423476	4.5219555	0.1765728	0.0	-37.375	-9.1875	-23.3125	-1.2843044	0.47007757	-1.8722205
1276779424272	9.466142	-2.9556155	4.671779	1.1555128	0.0	-36.375	-9.1875	-23.3125	-1.2073531	0.44025826	-1.8734354
1276779424312	9.915613	-2.3018389	4.6036777	1.3652649	0.0	-35.875	-9.1875	-24.0625	-1.1142354	0.42473128	-1.7988989
1276779424352	8.962189	-1.9477097	3.7864566	0.11563015	0.0	-35.375	-8.9375	-25.3125	-0.9785917	0.39153913	-1.784794
1276779424392	9.343558	-1.920469	3.214402	0.2592659	0.0	-35.125	-7.9375	-26.0625	-0.8069114	0.32502794	-1.7735125
1276779424432	9.275456	-1.6889231	2.1792557	-0.13009548	0.0	-35.875	-7.1875	-26.5625	-0.63756824	0.22715846	-1.7509083
1276779424472	9.507003	-1.4573772	1.920469	0.0012674332	0.0	-35.875	-6.4375	-26.5625	-0.54882294	0.19708136	-1.7229073
1276779424502	9.724928	-1.56634	2.070293	0.2588234	0.0	-36.125	-5.9375	-26.3125	-0.55767703	0.20716119	-1.7304893
1276779424542	9.656827	-1.4982382	1.920469	0.1526289	0.0	-36.375	-4.4375	-25.8125	-0.493325	0.19404764	-1.7247173
1276779424572	9.656827	-1.4165162	1.879608	0.13285446	0.0	-36.125	-3.1875	-25.3125	-0.43258724	0.19025043	-1.7164431
1276779424602	9.656827	-1.1849703	1.7978859	0.08733082	0.0	-35.875	-2.4375	-25.5625	-0.34788975	0.18273033	-1.692894
1276779424642	9.534244	-0.84446156	1.879608	-0.052274704	0.0	-35.875	-1.6875	-25.8125	-0.25656956	0.19390671	-1.6591372
1276779424682	9.425281	-0.3405087	2.1111538	-0.14182568	0.0	-35.375	-2.1875	-26.0625	-0.19292231	0.22021236	-1.6069078
1276779424712	9.615966	-0.3405087	1.56634	-0.058000565	0.0	-35.125	-2.4375	-26.8125	-0.17475213	0.16137198	-1.6061924
1276779424752	9.956474	-0.23154591	1.4573772	0.25858402	0.0	-35.625	-2.6875	-26.3125	-0.16672294	0.14530393	-1.5940479
1276779424782	10.378705	0.0	1.3756552	0.66282654	0.0	-35.875	-3.1875	-26.0625	-0.14977412	0.13177781	-1.5707964
1276779424822	10.038197	0.0	1.56634	0.3530159	0.0	-36.625	-3.6875	-26.0625	-0.1814019	0.15478978	-1.5707964
1276779424872	9.724928	-0.6946377	2.0294318	0.15203094	0.0	-37.125	-4.4375	-25.3125	-0.3880323	0.20522271	-1.6421038
1276779424912	9.656827	-1.334794	2.2609777	0.20074749	0.0	-36.875	-3.9375	-25.3125	-0.4962923	0.22789827	-1.7081488
1276779424942	10.147159	-1.7570249	2.4108016	0.76992416	0.0	-36.625	-3.4375	-25.0625	-0.5336084	0.22995926	-1.7422507
1276779424973	9.956474	-2.0294318	2.1792557	0.5856123	0.0	-36.375	-2.6875	-24.8125	-0.5298571	0.21126796	-1.7718722
1276779425012	9.507003	-2.070293	1.9885708	0.12429237	0.0	-36.375	-1.6875	-24.8125	-0.4980705	0.20160277	-1.7852138
1276779425052	8.962189	-2.6423476	1.56634	-0.33267307	0.0	-37.125	-0.6875	-24.0625	-0.5580241	0.1660934	-1.8575059
1276779425082	9.724928	-3.0237172	0.7627395	0.4060316	0.0	-38.125	1.0625	-22.3125	-0.48599002	0.074755125	-1.8722451
1276779425122	9.615966	-2.6423476	0.8036005	0.1980772	0.0	-39.875	2.3125	-20.0625	-0.45915958	0.0804087	-1.838965
1276779425162	10.18802	-2.8738933	0.19068487	0.7806711	0.0	-41.125	3.5625	-16.5625	-0.4545909	0.018011656	-1.8457379
1276779425202	9.656827	-2.4108016	-0.46309182	0.15732193	0.0	-42.375	4.3125	-12.5625	-0.3968216	-0.046493374	-1.815443
1276779425242	9.915613	-2.5606253	-1.4573772	0.5374365	0.0	-43.375	4.5625	-8.0	-0.4304794	-0.14136021	-1.8235167
1276779425282	9.888372	-2.2609777	-2.4108016	0.6194658	0.0	-43.625	5.3125	-3.75	-0.3191204	-0.23333888	-1.7955823
1276779425322	9.656827	-2.1792557	-2.7513103	0.46823025	0.0	-43.875	6.0625	-0.25	-0.30109572	-0.27107835	-1.7927483
1276779425362	9.656827	-2.070293	-3.5276701	0.68071747	0.0	-43.625	6.3125	2.25	-0.23036811	-0.3430631	-1.781986
1276779425402	9.534244	-1.334794	-3.2961242	0.36919975	0.0	-43.875	5.5625	3.5	-0.052108742	-0.32986614	-1.7098923
1276779425442	9.507003	-1.4165162	-3.255263	0.34156895	0.0	-44.125	5.0625	4.0	-0.14214118	-0.32654428	-1.7187053
1276779425482	9.534244	-1.3075534	-3.6774938	0.49555683	0.0	-44.375	3.8125	4.0	-0.18340285	-0.36501333	-1.707089
1276779425512	9.80665	-1.6480621	-4.2086873	0.991477	0.0	-44.875	1.8125	3.5	-0.38006505	-0.40037188	-1.7372961
1276779425552	9.765789	-1.1441092	-2.1383946	0.2557726	0.0	-44.625	0.3125	2.5	-0.6100995	-0.21414588	-1.6874195
1276779425582	9.915613	-0.7627395	-1.4982382	0.25048065	0.0	-44.625	-3.4375	1.5	-0.93026155	-0.14952934	-1.6475682
1276779425622	9.615966	1.2666923	-2.5606253	0.2247057	0.0	-44.375	-7.9375	0.0	-0.17852068	-0.2581188	-1.4398224
1276779425662	8.894087	3.0645783	-2.3426998	-0.11208153	0.0	-43.125	-13.0	-2.0	0.13630357	-0.24406666	-1.2389728
1276779425692	8.349273	2.8330324	-2.0294318	-0.7592735	0.0	-41.875	-18.75	-4.25	-0.2904332	-0.2262366	-1.2436721
1276779425732	9.152874	2.8738933	-0.8036005	-0.17959785	0.0	-39.625	-22.5	-6.75	-0.74308556	-0.083570406	-1.2665564
1276779425762	8.894087	1.8387469	-0.19068487	-0.7224808	0.0	-37.875	-25.5	-8.75	-1.0627381	-0.020992441	-1.3669302
1276779425802	9.084772	2.3018389	0.10896278	-0.43416882	0.0	-36.875	-26.25	-10.5	-1.0225453	0.011626082	-1.3226453
1276779425842	9.193735	2.7921712	0.5720546	-0.18125534	0.0	-35.875	-26.75	-12.5625	-0.9862436	0.059466854	-1.2759451
1276779425882	8.662541	2.2201166	1.56634	-0.7279959	0.0	-35.375	-27.25	-13.5625	-1.2283331	0.17339757	-1.3199072
1276779425922	8.853226	2.7921712	1.7297841	-0.36377048	0.0	-34.3125	-27.75	-15.3125	-1.1343781	0.18422425	-1.2652856
1276779425952	9.043911	3.1463003	2.1792557	0.013772011	0.0	-33.0625	-28.75	-16.8125	-1.1460613	0.22377348	-1.236001
1276779425982	8.539958	3.1054392	2.6423476	-0.34321308	0.0	-31.5625	-29.25	-17.5625	-1.2370667	0.28297806	-1.2220253
1276779426012	8.281172	3.0237172	3.1463003	-0.4461012	0.0	-30.0625	-30.0	-19.3125	-1.2856278	0.34279788	-1.2207054
1276779426052	7.7772183	3.1463003	3.636633	-0.6628313	0.0	-28.5625	-30.0	-21.3125	-1.3107667	0.40902492	-1.1863707
1276779426082	7.5456724	3.214402	3.8681788	-0.7384443	0.0	-27.0625	-29.75	-23.5625	-1.2421161	0.44069147	-1.1680851
1276779426112	7.5456724	2.9556155	4.2086873	-0.67506313	0.0	-26.0625	-29.5	-25.8125	-1.2106578	0.47900152	-1.1974683
1276779426152	7.504812	2.8330324	4.4810944	-0.6181526	0.0	-25.0625	-28.5	-28.3125	-1.1313448	0.5094363	-1.2098397
1276779426192	8.076866	2.3699405	4.7943625	-0.119633675	0.0	-24.0	-27.25	-30.3125	-1.0491486	0.51775044	-1.285384
1276779426232	8.158588	1.1441092	6.0201936	0.39698982	0.0	-23.5	-26.0	-32.0625	-1.1513454	0.6310644	-1.4314711
1276779426272	8.076866	0.27240697	6.1291566	0.33615685	0.0	-23.25	-24.0	-33.3125	-1.0930967	0.64886945	-1.5370823
1276779426313	8.771504	-0.9942854	6.742072	1.3011589	0.0	-23.75	-22.25	-34.0625	-1.048438	0.6522384	-1.6836686
1276779426352	9.507003	-0.7627395	6.1291566	1.5305204	0.0	-24.0	-20.5	-34.5625	-0.9197852	0.5711797	-1.6508541
1276779426382	9.615966	-0.46309182	6.0201936	1.5478191	0.0	-24.75	-19.5	-34.3125	-0.89758825	0.55884206	-1.6189178
1276779426422	9.112013	-0.08172209	5.5162406	0.845315	0.0	-25.0625	-19.5	-34.0625	-0.8816251	0.544349	-1.5797647
1276779426462	8.539958	-0.42223078	4.7535014	-0.023759842	0.0	-25.0625	-20.0	-32.8125	-0.8953396	0.507392	-1.6201979
1276779426492	9.507003	-0.7218784	4.7126403	0.8288183	0.0	-25.8125	-20.75	-31.5625	-0.9104828	0.4590605	-1.6465821
1276779426532	8.62168	-1.4982382	5.175732	0.36027145	0.0	-25.5625	-21.75	-31.0625	-1.0210965	0.5341105	-1.7428538
1276779426572	7.0553403	-1.0760075	4.5219555	-1.3577623	0.0	-24.25	-22.0	-31.8125	-1.0139158	0.56476	-1.7221398
1276779426612	8.076866	-1.2666923	2.1111538	-1.3628807	0.0	-22.5	-22.0	-33.8125	-0.7326283	0.2527061	-1.7263589
1276779426652	7.3958488	-0.7627395	2.5333846	-1.951818	0.0	-21.75	-22.75	-34.0625	-0.7626852	0.3283965	-1.6735637
1276779426692	6.0882955	-1.8387469	-0.46309182	-3.4299126	0.0	-23.75	-22.75	-30.8125	-0.7316156	-0.07268605	-1.8640993
1276779426722	11.836082	-2.0294318	-2.5333846	2.4664707	0.0	-28.8125	-23.25	-21.5625	-0.81571907	-0.207912	-1.7406065
1276779426762	17.393185	0.3405087	-1.1168685	7.625681	0.0	-33.3125	-23.75	-9.0	-1.1211549	-0.064112715	-1.5512217
1276779426802	12.762266	0.10896278	-3.0237172	3.3093777	0.0	-36.875	-23.5	3.0	-1.3326619	-0.23262852	-1.5622586
1276779426842	7.43671	0.7218784	-5.9793324	-0.23700142	0.0	-38.375	-22.75	12.8125	-0.8932787	-0.6749042	-1.4740299
1276779426882	9.956474	1.7978859	-7.43671	2.749959	0.0	-36.625	-22.0	19.3125	-1.0795596	-0.63385415	-1.392147
1276779426922	8.008764	3.173541	-7.3549876	1.5206404	0.0	-36.375	-20.75	23.3125	-0.56991935	-0.70668423	-1.1935195
1276779426962	5.47538	-0.9942854	-7.6546354	-0.34293842	0.0	-36.375	-19.25	25.8125	-1.1630791	-0.942178	-1.750431
1276779426992	6.3198414	-1.334794	-5.6660647	-1.2144241	0.0	-35.875	-18.25	28.0625	-1.5880618	-0.72007465	-1.7789441
1276779427032	9.152874	0.8036005	-4.2495484	0.31656742	0.0	-36.625	-16.75	28.5625	-2.2086506	-0.43320557	-1.4832233
1276779427072	8.662541	0.9942854	-5.6660647	0.5920286	0.0	-36.375	-15.5	28.8125	-1.8728529	-0.5762497	-1.4565165
1276779427102	6.5922484	1.3075534	-6.6331096	-0.36389732	0.0	-36.125	-14.75	29.3125	-0.8884976	-0.77884114	-1.3749906
1276779427142	6.973618	1.4573772	-7.7772183	0.740407	0.0	-35.375	-13.75	29.5625	-0.68360347	-0.82918745	-1.3647771
1276779427182	4.1814466	0.27240697	-7.9270425	-0.84023	0.0	-34.5625	-12.4375	30.8125	-0.54393023	-1.084524	-1.5057417
1276779427222	5.7886477	-1.6889231	-8.662541	0.7479944	0.0	-32.5625	-12.4375	33.3125	-1.3939137	-0.96269226	-1.8546808
1276779427262	0.6946377	-1.879608	-10.800936	1.1785975	0.0	-29.8125	-11.9375	36.5625	-1.8008356	-1.3873557	-2.7875953
1276779427302	-1.6480621	-1.0760075	-7.6546354	-1.9030213	0.0	-26.5625	-11.6875	40.125	-3.0167177	-1.3191202	2.1492023
1276779427342	5.434519	-2.6423476	-5.8567495	-1.3913364	0.0	-21.75	-12.4375	44.125	-2.383467	-0.76976055	-2.0233557
1276779427382	7.082581	0.6946377	-8.921328	1.6054296	0.0	-19.0	-11.1875	46.625	-2.537292	-0.897458	-1.4730321
1276779427422	-2.1111538	2.152015	-13.1708765	3.7048311	0.0	-17.0	-10.1875	47.875	2.238597	-1.3457845	0.77581376
1276779427462	0.27240697	-0.19068487	-11.223166	1.4214411	0.0	-16.0	-9.4375	48.625	-1.2165868	-1.5411767	-2.1815221
1276779427502	0.08172209	-0.46309182	-9.00305	-0.7913275	0.0	-15.5	-8.4375	48.125	-2.0225542	-1.5186105	-2.9669204
1276779427542	2.9147544	-0.8036005	-8.19945	-1.0675116	0.0	-13.4375	-8.4375	48.375	-2.0897775	-1.2175211	-1.8398141
1276779427582	1.56634	-1.1441092	-11.372991	1.7305641	0.0	-10.6875	-9.1875	49.625	-1.9315823	-1.4018694	-2.2016578
1276779427622	-1.1168685	-0.88532263	-11.795221	2.0743608	0.0	-7.9375	-9.6875	50.625	2.9965906	-1.4505512	2.2410598
1276779427662	-0.27240697	-2.070293	-8.430995	-1.1209154	0.0	-5.1875	-10.4375	51.625	-2.979417	-1.3280085	3.0107653
1276779427702	2.3699405	-1.879608	-7.3141265	-1.8917284	0.0	-2.875	-10.9375	51.875	-2.7345915	-1.1786563	-2.241318
1276779427742	-0.5720546	-0.88532263	-11.563675	1.804966	0.0	-1.875	-11.1875	51.625	2.851383	-1.4798949	2.567926
1276779427782	-2.8330324	0.10896278	-11.495573	2.0333729	0.0	-1.375	-11.4375	51.875	2.4304986	-1.3289943	1.5323538
1276779427812	-0.9125633	-1.6480621	-10.501288	0.86227417	0.0	-2.375	-10.6875	51.625	2.9835744	-1.3932921	2.6358986
1276779427842	-1.920469	-2.5333846	-9.384419	0.10160732	0.0	-3.625	-10.1875	51.125	3.0174367	-1.2441733	2.4929502
1276779427872	-1.2666923	-2.6014864	-7.205164	-2.042204	0.0	-3.625	-9.1875	51.625	3.1147153	-1.1889248	2.688471
1276779427912	-0.19068487	-3.445948	-8.471856	-0.6587944	0.0	-2.875	-7.9375	51.875	-3.05195	-1.1839486	3.086313
1276779427952	-7.014479	-3.486809	-8.430995	1.7017136	0.0	-0.625	-6.6875	52.125	2.9927106	-0.8221299	2.0321112
1276779427992	-1.7978859	-3.0237172	-10.841797	1.5915871	0.0	2.625	-4.9375	52.625	2.8951724	-1.257043	2.6051571
1276779428032	0.53119355	-0.53119355	-11.795221	2.0124693	0.0	4.375	-3.9375	52.625	3.1080186	-1.5071937	-2.3561945
1276779428072	0.08172209	0.6537767	-11.645397	1.8573704	0.0	4.625	-3.4375	52.625	-1.5986737	-1.5142798	-0.124354996
1276779428112	1.4982382	1.9477097	-8.580819	-0.8809147	0.0	2.375	-3.9375	52.375	-2.8189328	-1.29189	-0.6556956
1276779428152	5.284695	0.92618364	-8.580819	0.31344223	0.0	-3.625	-5.1875	51.125	-2.9516163	-1.0120102	-1.3973006
1276779428192	5.8567495	0.61291564	-8.580819	0.6004448	0.0	-13.5	-5.3125	46.6875	-2.886795	-0.9693468	-1.4665247
1276779428232	7.43671	-0.50395286	-8.117727	1.2140627	0.0	-21.8125	-6.3125	41.9375	-2.5905576	-0.8280119	-1.6384585
1276779428272	9.152874	-1.607201	-6.0882955	1.3030548	0.0	-30.75	-5.9375	35.5625	-2.4581726	-0.57999045	-1.7446195
1276779428312	9.615966	-3.1463003	-4.2495484	1.1671677	0.0	-37.3125	-5.1875	29.5625	-2.2786007	-0.3976408	-1.8870126
1276779428352	10.310603	-4.2495484	-5.9793324	2.847188	0.0	-41.3125	-4.4375	23.5625	-1.7461684	-0.4921606	-1.9617355
1276779428392	9.00305	-4.1814466	-4.5900574	1.1298952	0.0	-43.8125	-4.1875	18.5625	-1.6117433	-0.4331137	-2.0056
1276779428432	8.008764	-5.325556	-4.671779	0.88574696	0.0	-45.125	-4.1875	14.3125	-1.4821526	-0.4521776	-2.1576207
1276779428472	7.6273947	-4.671779	-4.5219555	0.21586227	0.0	-45.375	-5.4375	9.75	-1.3128725	-0.46808693	-2.1203563
1276779428502	8.771504	-3.8273177	-3.3642259	0.33759308	0.0	-45.375	-6.9375	6.25	-1.2934597	-0.3380403	-1.9822289
1276779428542	10.460427	-3.0645783	-3.9499009	1.7870502	0.0	-45.125	-8.6875	2.5	-1.0676655	-0.34765464	-1.85579
1276779428582	9.234595	-3.8681788	-5.243834	1.4954891	0.0	-44.8125	-10.4375	-2.0	-0.95462304	-0.4824696	-1.9674711
1276779428612	7.43671	-3.568531	-4.0180025	-0.63149834	0.0	-44.5625	-11.4375	-6.75	-0.9425488	-0.45328614	-2.0181973
1276779428652	7.8861814	-3.9771416	-1.334794	-0.8740587	0.0	-44.0625	-10.6875	-12.0	-1.0456588	-0.14999142	-2.037892
1276779428702	7.8589406	-2.5333846	2.982856	-1.0272188	0.0	-42.0625	-9.4375	-18.3125	-1.3634173	0.3466564	-1.8826358
1276779428742	9.112013	-1.8387469	5.243834	0.8660984	0.0	-38.5625	-8.9375	-24.8125	-1.336762	0.5136153	-1.769916
1276779428782	8.921328	-1.7570249	6.701211	1.4886341	0.0	-34.5	-8.9375	-30.0625	-1.249193	0.6351212	-1.7652541
1276779428812	8.539958	-1.607201	7.5456724	1.7020922	0.0	-29.25	-9.9375	-35.3125	-1.0344553	0.71503913	-1.7568183
1276779428842	7.504812	-1.4573772	8.240311	1.4338512	0.0	-24.9375	-10.6875	-39.125	-0.9830711	0.8228556	-1.7626015
1276779428882	6.469665	-0.95342433	7.6954966	0.29217434	0.0	-20.9375	-11.4375	-41.875	-0.850751	0.86642534	-1.7171116
1276779428922	4.8216033	-0.14982383	8.158588	-0.3286295	0.0	-16.6875	-12.1875	-43.875	-0.99199003	1.0368204	-1.6018598
1276779428962	3.8681788	0.08172209	8.580819	-0.3938961	0.0	-13.875	-13.75	-44.875	-1.1805011	1.147199	-1.5496727
1276779429002	5.053149	0.6537767	8.471856	0.07940483	0.0	-11.375	-15.75	-45.375	-0.8683157	1.0293229	-1.442131
1276779429042	4.5628166	1.2258313	8.689782	0.08447075	0.0	-9.875	-17.25	-45.125	-0.9904023	1.0728047	-1.308337
1276779429082	4.4810944	1.3075534	7.9679036	-0.57207394	0.0	-8.625	-18.75	-44.625	-0.96122164	1.0408491	-1.2868855
1276779429122	5.134871	1.4982382	7.668256	-0.45711708	0.0	-7.375	-20.0	-44.375	-0.85215694	0.96171737	-1.2869004
1276779429162	5.175732	1.7297841	7.6273947	-0.42808437	0.0	-6.625	-21.0	-43.875	-0.8708359	0.94976604	-1.2482566
1276779429202	5.6660647	1.6889231	7.8180795	-0.0046548843	0.0	-5.625	-22.0	-44.125	-0.8444094	0.92330724	-1.2811048
1276779429242	6.0474343	1.7978859	7.8589406	0.2713852	0.0	-4.8125	-23.0	-44.375	-0.8257252	0.89436036	-1.2818209
1276779429282	5.366417	2.152015	7.9270425	0.0049552917	0.0	-4.3125	-23.5	-44.625	-0.90117216	0.9406225	-1.1894151
1276779429312	5.47538	1.9885708	8.049625	0.12968063	0.0	-4.0625	-24.25	-44.875	-0.9138602	0.9443577	-1.2224249
1276779429342	5.284695	2.152015	8.19945	0.18285179	0.0	-4.5625	-24.75	-44.375	-0.9800948	0.9628217	-1.1840844
1276779429382	5.175732	2.2201166	8.117727	0.0733614	0.0	-4.8125	-24.25	-44.125	-0.9803873	0.964267	-1.165587
1276779429422	4.903325	2.1792557	8.158588	-0.041697502	0.0	-5.125	-24.25	-43.875	-1.0332947	0.9890367	-1.152572
1276779429462	4.7126403	2.4108016	8.158588	-0.08124542	0.0	-4.0625	-23.75	-44.125	-1.0177897	0.9952489	-1.097943
1276779429492	4.862464	2.5606253	8.349273	0.18888474	0.0	-3.0625	-23.5	-44.375	-0.9800624	0.9886786	-1.0860875
1276779429522	4.903325	2.6423476	8.62168	0.45775318	0.0	-2.5625	-23.75	-44.625	-0.9923672	0.99720806	-1.0765237
1276779429562	4.372132	2.6014864	8.62168	0.20417595	0.0	-2.0625	-23.5	-44.625	-1.0569618	1.037696	-1.0340499
1276779429592	3.990762	2.6423476	8.730643	0.14987087	0.0	-1.8125	-23.75	-44.875	-1.1352494	1.0693264	-0.98595077
1276779429622	3.7864566	2.6423476	8.921328	0.23871422	0.0	-1.5625	-24.0	-44.625	-1.2059448	1.0932035	-0.9615203
1276779429662	3.759216	2.4108016	8.962189	0.20656586	0.0	-1.3125	-24.25	-44.375	-1.2256155	1.1085119	-1.0005584
1276779429702	3.718355	2.1111538	8.662541	-0.14627934	0.0	-0.5625	-24.25	-44.375	-1.1844162	1.1122773	-1.054416
1276779429732	4.0588636	2.1111538	8.499097	-0.15439701	0.0	-0.0625	-23.25	-44.125	-1.064592	1.0769788	-1.0911714
1276779429772	3.9499009	2.4516625	9.112013	0.42277527	0.0	0.6875	-23.0	-44.375	-1.1099402	1.0990254	-1.0153027
1276779429812	3.445948	2.4516625	9.384419	0.4866743	0.0	1.9375	-22.5	-44.875	-1.1813687	1.1474018	-0.9524188
1276779429852	2.6423476	2.070293	8.962189	-0.2364397	0.0	3.1875	-21.75	-45.875	-1.2720213	1.2124192	-0.90619445
1276779429892	2.4108016	1.1441092	9.343558	-0.08949852	0.0	4.4375	-20.75	-46.875	-1.1938978	1.2926033	-1.1276938
1276779429932	2.3426998	0.42223078	10.269742	0.7353668	0.0	6.25	-18.25	-47.625	-0.9515311	1.3430263	-1.3924781
1276779429963	2.1111538	-0.3405087	10.038197	0.45679474	0.0	7.75	-16.0	-47.875	-0.63052255	1.3609039	-1.7307094
1276779430002	1.879608	-0.6537767	9.656827	0.053099632	0.0	9.0	-14.0	-48.375	-0.42649028	1.3675628	-1.9055332
1276779430042	1.8387469	-1.2666923	8.771504	-0.7554188	0.0	10.75	-12.4375	-48.375	-0.15036583	1.3215361	-2.1740263
1276779430082	1.7297841	-1.56634	8.240311	-1.2422886	0.0	12.5	-11.4375	-48.625	-0.002975034	1.2948319	-2.3066483
1276779430122	1.8387469	-1.6480621	9.847511	0.34571838	0.0	13.75	-10.4375	-49.375	0.048914798	1.3251147	-2.3015614
1276779430162	1.0351465	-0.7627395	10.691973	0.9623604	0.0	15.5625	-9.6875	-49.375	0.059525624	1.4511119	-2.205823
1276779430202	0.7218784	-0.53119355	11.536434	1.7645454	0.0	17.0625	-8.6875	-48.875	0.13686185	1.4932631	-2.2051792
1276779430242	-0.61291564	-0.5720546	11.836082	2.0590887	0.0	19.3125	-8.9375	-47.875	1.8009075	1.5000802	2.3217254
1276779430282	-1.4573772	-0.53119355	10.378705	0.68733025	0.0	22.5625	-8.6875	-46.625	2.1819081	1.4224381	1.9203175
1276779430322	-2.2609777	-0.8036005	9.425281	-0.08071995	0.0	25.625	-8.4375	-44.875	2.096407	1.3215064	1.912293
1276779430362	-1.525479	-1.3075534	7.246025	-2.2872314	0.0	28.875	-9.4375	-43.375	1.7092947	1.3003122	2.2794225
1276779430392	-1.7978859	-0.61291564	9.765789	0.14215374	0.0	31.125	-9.9375	-41.875	2.3112652	1.3786904	1.8993495
1276779430432	-2.8738933	-0.50395286	9.956474	0.5685415	0.0	32.875	-11.1875	-40.375	2.3899713	1.2857279	1.7443869
1276779430472	-1.9885708	-0.50395286	8.921328	-0.65250015	0.0	34.125	-12.1875	-39.125	2.3649094	1.3447782	1.8189956
1276779430502	-3.1054392	-0.3405087	9.80665	0.48558426	0.0	35.1875	-12.75	-38.125	2.4619658	1.2623959	1.6800091
1276779430542	-3.9771416	-0.46309182	10.269742	1.2160406	0.0	36.4375	-12.1875	-37.0625	2.4304786	1.1990405	1.6867127
1276779430582	-4.2904096	0.040861044	9.152874	0.30197906	0.0	38.1875	-11.9375	-35.3125	2.6102092	1.1324424	1.5612729
1276779430612	-5.243834	0.46309182	8.308413	0.029099464	0.0	40.9375	-10.6875	-33.3125	2.7571168	1.0060338	1.4827131
1276779430652	-5.7477865	0.10896278	7.8589406	-0.06951141	0.0	43.6875	-10.6875	-30.0625	2.6327007	0.93924034	1.5518413
1276779430692	-6.238119	0.38136974	8.430995	0.68817043	0.0	46.5	-11.4375	-26.5625	2.770227	0.9328965	1.5097369
1276779430732	-7.8589406	1.1849703	10.119919	3.0611334	0.0	48.75	-11.9375	-22.5625	2.9647143	0.9050465	1.4211438
1276779430772	-7.3958488	0.5720546	5.706926	-0.4474392	0.0	50.5	-14.0	-16.3125	2.6417987	0.65576494	1.4936019
1276779430812	-7.6273947	1.334794	2.4108016	-1.6967306	0.0	52.0	-14.5	-8.75	2.5318658	0.30182773	1.3975507
1276779430842	-8.308413	0.61291564	0.84446156	-1.432972	0.0	52.0	-14.75	-0.25	2.008267	0.101018876	1.4971592
1276779430882	-8.689782	0.040861044	-1.1849703	-1.0363512	0.0	51.0	-14.75	9.0	1.708951	-0.13552622	1.5660942
1276779430922	-8.880466	0.10896278	-0.84446156	-0.885458	0.0	49.25	-14.5	16.5625	2.2752604	-0.09479986	1.558527
1276779430962	-7.8861814	0.92618364	-4.5219555	-0.6689396	0.0	45.25	-14.25	24.0625	1.3328058	-0.51768225	1.453888
1276779430992	-7.164303	-0.27240697	-6.510526	-0.12220955	0.0	40.6875	-14.0	30.8125	1.3088824	-0.73726624	1.6088009
1276779431022	-6.469665	-1.1441092	-7.8589406	0.43681145	0.0	35.6875	-13.75	35.8125	1.4621447	-0.8744882	1.7458289
1276779431062	-6.238119	-1.2258313	-7.6954966	0.17520714	0.0	30.875	-13.5	40.375	1.7943513	-0.88032883	1.7648306
1276779431102	-6.3607025	-0.61291564	-7.014479	-0.3178606	0.0	28.125	-14.25	42.125	2.0458932	-0.831939	1.6668595
1276779431142	-6.2789803	0.23154591	-6.701211	-0.6204958	0.0	26.125	-15.0	42.875	2.1843367	-0.8175765	1.5339366
1276779431182	-6.4015636	0.84446156	-7.04172	-0.25264835	0.0	24.8125	-16.25	42.875	2.195666	-0.8286861	1.4396387
1276779431222	-5.8976107	0.95342433	-7.3958488	-0.29931545	0.0	23.8125	-18.0	42.625	1.9922948	-0.8913325	1.4105202
1276779431262	-5.6660647	1.6889231	-7.164303	-0.5177326	0.0	22.8125	-19.0	42.625	2.0505571	-0.8808406	1.2811048
1276779431302	-5.8158884	1.607201	-6.742072	-0.75882244	0.0	22.8125	-20.25	42.125	2.0903544	-0.8407735	1.3011786
1276779431332	-6.0474343	1.1441092	-6.6331096	-0.75797176	0.0	23.0625	-21.5	41.875	2.058954	-0.82279134	1.3838171
1276779431372	-6.3198414	1.334794	-6.1700177	-0.8740587	0.0	23.8125	-22.75	41.375	2.118628	-0.76249945	1.3626485
1276779431412	-6.5922484	1.4573772	-5.7477865	-0.939929	0.0	24.0625	-23.5	40.375	2.1738322	-0.7052742	1.3532214
1276779431452	-6.66035	2.2201166	-6.469665	-0.25962257	0.0	24.0625	-24.5	40.375	2.09175	-0.7445796	1.2490457
1276779431492	-6.238119	2.4108016	-6.5513873	-0.44466496	0.0	24.0625	-25.0	40.375	2.007122	-0.7750981	1.2020141
1276779431522	-6.2789803	2.4516625	-6.3607025	-0.5387068	0.0	23.3125	-24.5	40.125	2.0882413	-0.75640637	1.198545
1276779431562	-6.428804	2.4108016	-6.3198414	-0.47488308	0.0	23.0625	-24.75	40.375	2.1185386	-0.7440042	1.2120256
1276779431592	-6.4015636	2.3018389	-6.4015636	-0.46542454	0.0	23.3125	-24.25	39.625	2.073024	-0.7550188	1.2256175
1276779431622	-6.3198414	2.3699405	-6.428804	-0.48535538	0.0	23.5625	-24.0	39.625	2.0657835	-0.76106083	1.2120256
1276779431652	-6.2789803	2.3699405	-6.469665	-0.4846983	0.0	23.8125	-24.0	39.875	2.0537283	-0.76706433	1.2098879
1276779431692	-6.1291566	2.3699405	-6.5513873	-0.52743435	0.0	24.0625	-23.5	39.875	2.021637	-0.7838739	1.2018368
1276779431722	-6.4015636	2.3426998	-6.469665	-0.4085207	0.0	23.5625	-23.0	40.375	2.1385612	-0.75927985	1.2199769
1276779431762	-6.3607025	2.3018389	-6.469665	-0.44643784	0.0	23.0625	-22.75	40.375	2.148937	-0.76313144	1.2235736
1276779431802	-6.238119	2.2609777	-6.4015636	-0.586771	0.0	23.0625	-22.25	39.875	2.1411798	-0.7674772	1.2230775
1276779431832	-6.66035	2.2609777	-6.0201936	-0.5484104	0.0	23.3125	-22.5	39.375	2.2369492	-0.7079168	1.2435344
1276779431862	-6.973618	2.2609777	-6.0882955	-0.2771845	0.0	24.0625	-23.0	39.625	2.235393	-0.6930566	1.2572712
1276779431952	-7.014479	1.920469	-6.0474343	-0.34818363	0.0	24.8125	-22.75	39.625	2.2052035	-0.69367516	1.3035587
1276779431992	-6.6331096	1.920469	-5.938472	-0.698863	0.0	25.375	-23.0	39.875	2.165513	-0.7102474	1.2889746
1276779432022	-6.238119	2.3699405	-5.7477865	-0.9993925	0.0	25.375	-23.0	40.125	2.2256806	-0.71103626	1.2077256
1276779432062	-6.3607025	2.2201166	-5.7477865	-0.9508896	0.0	25.375	-22.5	39.875	2.2296238	-0.70632833	1.2349802
1276779432102	-6.510526	2.152015	-6.2108784	-0.5549946	0.0	25.125	-23.0	40.125	2.137497	-0.73599666	1.2515583
1276779432142	-6.5513873	2.3426998	-6.469665	-0.30583477	0.0	24.8125	-23.0	40.375	2.1331825	-0.7490713	1.2273774
1276779432182	-6.742072	2.1111538	-6.5922484	-0.14382172	0.0	25.125	-23.0	40.875	2.1200266	-0.7508051	1.2673365
1276779432223	-6.742072	2.2609777	-6.782933	0.020646095	0.0	24.8125	-23.25	41.125	2.1073713	-0.76178414	1.2472286
1276779432262	-6.851035	2.4925237	-6.4015636	-0.10462093	0.0	24.5625	-23.0	40.375	2.2146866	-0.72057515	1.2218657
1276779432302	-6.891896	2.6014864	-6.0882955	-0.2498045	0.0	25.125	-23.5	39.875	2.2447927	-0.6906796	1.2098616
1276779432342	-6.782933	2.6014864	-5.9793324	-0.39770126	0.0	24.8125	-23.5	39.375	2.2402039	-0.6886484	1.2045647
1276779432372	-6.66035	2.6014864	-5.7477865	-0.6324997	0.0	24.5625	-24.25	39.125	2.2324975	-0.67707986	1.1984255
1276779432412	-6.5513873	2.4516625	-5.5571017	-0.87285423	0.0	25.125	-24.25	39.375	2.2358875	-0.6713345	1.2127093
1276779432452	-6.5513873	2.1111538	-5.243834	-1.1535902	0.0	24.8125	-24.25	39.875	2.2658107	-0.65103394	1.259058
1276779432492	-6.5922484	2.4108016	-5.134871	-1.1097193	0.0	24.5625	-24.25	40.125	2.3387525	-0.6315833	1.2202017
1276779432522	-6.2789803	2.7921712	-5.6252036	-0.9260683	0.0	24.5625	-23.5	40.375	2.3332903	-0.6859745	1.1523707
1276779432562	-6.1700177	3.0645783	-5.8567495	-0.76440144	0.0	24.0625	-23.5	40.375	2.3409216	-0.70457405	1.1098013
1276779432592	-6.0882955	3.214402	-6.0201936	-0.661026	0.0	24.0625	-23.0	40.875	2.3875606	-0.7185043	1.0850284
1276779432622	-6.1291566	3.2961242	-6.1291566	-0.533164	0.0	24.5625	-22.5	41.125	2.4316404	-0.7220619	1.0773852
1276779432662	-6.238119	3.3778462	-6.1291566	-0.43165493	0.0	25.375	-22.25	40.625	2.4601073	-0.7125653	1.0745143
1276779432702	-6.1700177	3.3778462	-6.0882955	-0.503623	0.0	26.125	-22.0	41.375	2.5173426	-0.71344495	1.0699043
1276779432732	-6.0201936	3.5957718	-6.2108784	-0.43929672	0.0	25.875	-21.5	41.375	2.6153321	-0.72486514	1.0323755
1276779432772	-6.0882955	3.5957718	-6.1700177	-0.42229939	0.0	25.375	-21.5	41.125	2.605185	-0.71746856	1.0373143
1276779432812	-6.2108784	3.5957718	-6.1291566	-0.36889935	0.0	25.125	-21.25	41.125	2.6259737	-0.7068344	1.0460006
1276779432842	-6.428804	3.445948	-6.0882955	-0.30552292	0.0	24.5625	-20.75	40.625	2.5969284	-0.6955362	1.078752
1276779432872	-6.428804	3.173541	-6.1700177	-0.34779167	0.0	24.8125	-20.75	40.625	2.50387	-0.7106156	1.1122464
1276779432912	-6.5513873	2.9556155	-5.9793324	-0.45738506	0.0	25.625	-20.5	40.375	2.4911022	-0.6939142	1.146992
1276779432952	-6.4015636	2.8738933	-5.8976107	-0.64034843	0.0	25.125	-20.5	40.625	2.486558	-0.6989331	1.1488274
1276779432992	-6.238119	2.6832085	-5.7886477	-0.88352394	0.0	25.375	-20.5	40.875	2.4544063	-0.7059068	1.1645877
1276779433022	-6.2108784	2.6423476	-5.8158884	-0.8970165	0.0	24.8125	-20.75	40.625	2.4157336	-0.7112273	1.1685542
1276779433062	-6.1291566	2.7921712	-5.9793324	-0.8002529	0.0	23.8125	-21.25	41.125	2.4088311	-0.7260197	1.143332
1276779433112	-6.3198414	2.9556155	-6.0474343	-0.57369137	0.0	24.5625	-21.75	41.125	2.4153907	-0.71416056	1.1333436
1276779433142	-6.701211	2.7240696	-6.2108784	-0.27240658	0.0	24.8125	-22.0	40.875	2.3379793	-0.7094658	1.1846956
1276779433182	-6.851035	2.9556155	-6.2789803	-0.05483246	0.0	25.625	-22.0	40.625	2.3695798	-0.6995559	1.1635077
1276779433222	-7.014479	2.5606253	-6.1700177	-0.120121	0.0	26.375	-22.0	40.375	2.307324	-0.6905599	1.2207787
1276779433252	-6.932757	2.4925237	-5.7477865	-0.46251678	0.0	26.375	-22.25	40.125	2.344562	-0.66254133	1.2256582
1276779433292	-6.932757	3.0645783	-5.7477865	-0.29393196	0.0	26.125	-22.75	39.625	2.4172165	-0.6487882	1.1545789
1276779433332	-7.3141265	2.6423476	-6.0201936	0.028042793	0.0	25.875	-23.25	39.125	2.2793493	-0.65876204	1.2241201
1276779433362	-7.3549876	2.2201166	-5.938472	-0.09633541	0.0	26.125	-23.5	38.625	2.2100205	-0.6580349	1.2776414
1276779433392	-7.082581	2.1792557	-5.434519	-0.6171942	0.0	26.125	-23.75	38.125	2.2387125	-0.632777	1.2722974
1276779433432	-6.891896	2.6014864	-5.366417	-0.6926832	0.0	27.125	-24.0	37.875	2.263309	-0.6295888	1.2098616
1276779433472	-6.742072	2.1111538	-4.7943625	-1.2685928	0.0	28.375	-23.5	37.3125	2.2698898	-0.5962319	1.2673364
1276779433502	-5.8567495	2.0294318	-4.4810944	-2.1581006	0.0	29.625	-23.25	36.5625	2.1914256	-0.6259594	1.2372326
1276779433542	-6.932757	2.8330324	-3.636633	-1.4811296	0.0	31.125	-23.0	36.0625	2.6064909	-0.4520444	1.1828601
1276779433582	-8.771504	4.1814466	-2.1792557	0.15191078	0.0	32.125	-23.0	35.0625	2.8779354	-0.22061771	1.1259553
1276779433612	-8.853226	4.2904096	-2.9147544	0.45410156	0.0	33.125	-24.25	33.8125	2.8030095	-0.2880346	1.119532
1276779433652	-7.8180795	3.1054392	-3.1054392	-0.8394947	0.0	34.375	-24.5	32.8125	2.5955172	-0.35363767	1.1926953
1276779433692	-8.267551	2.8330324	-2.9556155	-0.58091736	0.0	34.625	-24.75	32.3125	2.534413	-0.32611635	1.2406675
1276779433722	-7.7772183	2.7240696	-4.0588636	-0.6207886	0.0	34.125	-24.0	33.0625	2.3799512	-0.45767087	1.2338876
1276779433752	-7.082581	2.6423476	-5.243834	-0.6065006	0.0	32.375	-22.75	35.3125	2.1944735	-0.6064726	1.2137127
1276779433812	-6.3198414	2.9556155	-7.014479	0.08673096	0.0	29.375	-21.5	38.125	1.789425	-0.78808945	1.1333436
1276779433852	-6.2789803	3.0237172	-6.510526	-0.26959515	0.0	27.375	-19.5	40.875	2.4764466	-0.751391	1.1220077
1276779433892	-6.66035	3.445948	-6.4015636	0.053108215	0.0	25.375	-18.25	42.375	2.7834094	-0.7066133	1.0933397
1276779433922	-6.8237944	3.1054392	-6.4015636	0.05174446	0.0	24.3125	-17.25	42.625	2.7440152	-0.70673144	1.1437178
1276779433988	-6.5513873	2.3426998	-6.1291566	-0.5343542	0.0	24.0625	-17.25	42.875	2.594197	-0.7221749	1.2273773
1276779434025	-6.973618	3.568531	-5.938472	0.023467064	0.0	24.0625	-18.5	42.125	2.8009486	-0.6486485	1.0978178
1276779434062	-6.851035	3.1463003	-5.243834	-0.62331295	0.0	24.8125	-20.25	41.375	2.6821632	-0.6077431	1.1402813
1276779434092	-7.014479	3.1054392	-4.903325	-0.70229626	0.0	25.375	-21.5	41.375	2.6534445	-0.5687381	1.1540142
1276779434132	-6.8237944	3.214402	-4.862464	-0.8322363	0.0	25.875	-22.25	40.375	2.6274436	-0.572594	1.1305693
1276779434172	-6.701211	3.5276701	-4.862464	-0.8069706	0.0	25.875	-22.5	39.625	2.6674638	-0.5707853	1.0862346
1276779434202	-6.851035	3.5957718	-4.944186	-0.62453556	0.0	25.375	-22.5	40.125	2.6735404	-0.5686065	1.0874662
1276779434232	-6.701211	3.5957718	-5.175732	-0.6075201	0.0	25.375	-22.75	40.125	2.6360104	-0.597567	1.0783106
1276779434272	-6.469665	3.5957718	-5.366417	-0.6641903	0.0	25.375	-23.0	40.625	2.6129181	-0.6273203	1.0635191
1276779434312	-6.5513873	3.486809	-5.366417	-0.64821434	0.0	24.5625	-22.75	41.375	2.6109917	-0.62605613	1.0817026
1276779434352	-6.2789803	3.445948	-5.8976107	-0.52861404	0.0	24.5625	-22.25	41.375	2.550217	-0.688854	1.0688696
1276779434382	-6.1291566	3.214402	-6.1291566	-0.5618954	0.0	24.0625	-21.5	41.625	2.494741	-0.7248023	1.087785
1276779434422	-6.0474343	3.173541	-6.2789803	-0.5293436	0.0	23.3125	-20.75	42.125	2.5193782	-0.74342155	1.087526
1276779434462	-6.238119	3.255263	-6.4015636	-0.2939806	0.0	23.8125	-20.0	42.375	2.5899293	-0.73819155	1.0898345
1276779434502	-6.3607025	2.982856	-6.2789803	-0.3842535	0.0	23.0625	-19.75	42.625	2.5590444	-0.72935504	1.1322953
1276779434542	-6.2108784	3.1463003	-6.2789803	-0.43115997	0.0	23.0625	-19.5	42.625	2.6142263	-0.7338355	1.1018994
1276779434582	-6.2789803	3.214402	-6.1291566	-0.46189022	0.0	23.3125	-19.5	42.375	2.649024	-0.7153642	1.0976498
1276779434612	-6.238119	3.1054392	-5.9793324	-0.6245861	0.0	22.5625	-19.0	42.625	2.6713495	-0.7091607	1.108897
1276779434652	-6.0474343	3.255263	-6.0882955	-0.6286583	0.0	23.0625	-19.0	42.875	2.711416	-0.7252976	1.0769893
1276779434682	-5.938472	3.3778462	-6.2108784	-0.5735407	0.0	23.0625	-19.0	43.125	2.74199	-0.73781747	1.0536284
1276779434722	-6.1700177	3.3778462	-6.1700177	-0.44993687	0.0	23.0625	-19.5	42.875	2.698864	-0.72004896	1.0699043
1276779434752	-6.0882955	3.445948	-6.3198414	-0.3789091	0.0	23.5625	-19.75	42.625	2.684982	-0.734674	1.0557555
1276779434792	-6.1291566	3.255263	-6.3198414	-0.4202938	0.0	23.3125	-19.5	42.875	2.6477954	-0.7386641	1.0825707
1276779434832	-6.2789803	3.2961242	-6.428804	-0.23483944	0.0	23.3125	-19.5	42.875	2.6477954	-0.7386641	1.0825707
1276779434872	-6.3607025	3.173541	-6.1700177	-0.3939457	0.0	22.8125	-18.75	43.375	2.6983867	-0.7148431	1.1080056
1276779434912	-6.0882955	3.255263	-6.0882955	-0.6016836	0.0	22.5625	-18.75	43.875	2.7403843	-0.72270274	1.0797945
1276779434942	-5.9793324	3.255263	-6.1291566	-0.64609814	0.0	22.3125	-18.75	43.625	2.730745	-0.7329723	1.072248
1276779434972	-5.938472	3.214402	-6.238119	-0.6136122	0.0	22.3125	-18.5	43.625	2.7246695	-0.74581397	1.0746692
1276779435012	-6.0201936	3.173541	-6.3198414	-0.5193205	0.0	22.3125	-19.0	43.875	2.674297	-0.74841744	1.085666
1276779435057	-5.9793324	3.1054392	-6.3607025	-0.54086876	0.0	22.3125	-19.25	43.875	2.633848	-0.7566265	1.0917792
1276779435092	-6.0882955	3.1463003	-6.3198414	-0.4842615	0.0	22.3125	-19.0	43.875	2.666585	-0.7449306	1.0938162
1276779435132	-6.1700177	3.214402	-6.2108784	-0.48053074	0.0	22.0625	-19.0	43.875	2.6936414	-0.72878796	1.0905128
1276779435172	-5.9793324	3.1463003	-6.2789803	-0.5829191	0.0	22.3125	-18.5	43.625	2.6998966	-0.74877495	1.0864123
1276779435212	-5.8976107	3.255263	-6.238119	-0.6255455	0.0	22.5625	-18.5	43.625	2.7413814	-0.74701536	1.0664473
1276779435242	-6.0201936	3.214402	-6.3607025	-0.47746754	0.0	23.0625	-18.5	43.625	2.7179594	-0.75023	1.0803694
1276779435282	-6.0882955	3.0237172	-6.3198414	-0.52491474	0.0	23.0625	-18.25	43.625	2.6839633	-0.74897724	1.1098368
1276779435322	-6.3198414	3.0237172	-6.3198414	-0.37141514	0.0	23.3125	-17.75	43.625	2.7174077	-0.73395663	1.1245383
1276779435362	-6.3607025	2.982856	-6.2789803	-0.3842535	0.0	23.0625	-17.75	43.625	2.7088048	-0.72935504	1.1322953
1276779435392	-6.2789803	2.9147544	-6.238119	-0.48809242	0.0	22.8125	-17.5	42.875	2.694325	-0.7334409	1.1361898
1276779435432	-6.238119	2.982856	-6.1291566	-0.5666218	0.0	22.8125	-17.75	42.875	2.7086165	-0.7252554	1.124768
1276779435472	-6.1700177	3.1463003	-6.0882955	-0.5851717	0.0	22.3125	-18.25	43.125	2.7238436	-0.72112477	1.0992333
1276779435502	-6.0882955	3.1463003	-6.0474343	-0.66673756	0.0	22.3125	-18.25	42.875	2.7249665	-0.72301877	1.0938162
1276779435532	-6.2108784	3.1054392	-6.1700177	-0.5175228	0.0	22.0625	-18.25	43.375	2.7066329	-0.726449	1.1071488
1276779435572	-6.2789803	3.0645783	-6.3198414	-0.3855238	0.0	21.8125	-17.75	43.125	2.7029967	-0.73530835	1.1167387
1276779435602	-6.1291566	3.0645783	-6.3198414	-0.4847088	0.0	22.3125	-17.75	42.625	2.6983414	-0.7449749	1.1071488
1276779435642	-6.0201936	3.1463003	-6.2789803	-0.55637836	0.0	22.3125	-16.75	42.625	2.7981532	-0.74611187	1.0892135
1276779435672	-6.0474343	3.0645783	-6.238119	-0.5937662	0.0	22.0625	-16.75	42.625	2.7743592	-0.74382573	1.1017579
1276779435712	-6.0882955	3.1054392	-6.3607025	-0.47018242	0.0	22.5625	-17.25	43.125	2.7542083	-0.7495031	1.0991275
1276779435742	-6.0474343	3.0645783	-6.4015636	-0.4823208	0.0	22.3125	-17.25	43.125	2.7357855	-0.75672525	1.1017579
1276779435782	-6.1291566	2.982856	-6.3607025	-0.48342514	0.0	22.3125	-18.0	43.625	2.6776776	-0.7508257	1.1178722
1276779435822	-5.9793324	2.9147544	-6.2789803	-0.65931225	0.0	22.5625	-18.0	44.375	2.6887317	-0.75656426	1.1172216
1276779435862	-5.8976107	2.982856	-6.4015636	-0.6056042	0.0	22.3125	-18.0	44.125	2.6847093	-0.7694538	1.1025405
1276779435902	-6.0882955	2.982856	-6.4015636	-0.48223114	0.0	22.3125	-17.5	44.375	2.7219982	-0.75671625	1.1152349
1276779435942	-6.2789803	3.1054392	-6.428804	-0.2988186	0.0	22.0625	-17.5	43.875	2.734801	-0.74253637	1.1114966
1276779435972	-6.238119	3.173541	-6.510526	-0.24775696	0.0	21.8125	-17.0	42.875	2.7543564	-0.7492588	1.1001862
1276779436002	-6.2789803	3.214402	-6.4015636	-0.2810011	0.0	21.8125	-16.5	42.875	2.8068392	-0.7369526	1.0976499
1276779436032	-6.3607025	3.214402	-6.3198414	-0.28135204	0.0	21.8125	-17.0	42.875	2.7793164	-0.72545993	1.1028752
1276779436072	-6.238119	3.1463003	-6.238119	-0.44035625	0.0	22.0625	-17.0	42.625	2.7730515	-0.7288576	1.1036614
1276779436112	-6.0474343	2.982856	-6.1700177	-0.66673756	0.0	22.3125	-17.5	43.125	2.7226985	-0.7410502	1.1125687
1276779436142	-5.9793324	2.9147544	-5.938472	-0.8896074	0.0	22.0625	-18.0	43.125	2.6981368	-0.7287917	1.1172216
1276779436172	-5.8567495	2.982856	-5.9793324	-0.9211931	0.0	21.8125	-18.25	43.375	2.699163	-0.7381691	1.0997347
1276779436212	-5.8976107	2.9556155	-6.0201936	-0.87579346	0.0	21.8125	-18.25	43.375	2.699163	-0.7381691	1.0997347
1276779436242	-6.0882955	2.9556155	-6.0882955	-0.7033348	0.0	21.8125	-18.75	43.125	2.6422915	-0.7325932	1.1188494
1276779436282	-6.2108784	3.1054392	-6.3198414	-0.41733932	0.0	22.0625	-18.75	42.875	2.6463773	-0.73837763	1.1071488
1276779436322	-6.3607025	3.1054392	-6.428804	-0.2446518	0.0	22.0625	-18.5	42.125	2.630928	-0.7373498	1.1166149
1276779436372	-6.510526	3.1054392	-6.5513873	-0.062350273	0.0	21.8125	-18.5	42.625	2.6282654	-0.73735213	1.1257277
1276779436412	-6.469665	3.0237172	-6.4015636	-0.21605873	0.0	22.3125	-18.0	42.625	2.6610954	-0.7308244	1.1335931
1276779436452	-6.4015636	2.8330324	-6.0882955	-0.5290737	0.0	22.0625	-18.0	42.625	2.652256	-0.7158217	1.1541524
1276779436492	-6.2108784	2.8738933	-5.8158884	-0.82562447	0.0	22.3125	-18.5	43.125	2.6746247	-0.7043978	1.1374155
1276779436522	-6.1700177	2.9147544	-5.6660647	-0.9370842	0.0	22.3125	-18.75	42.375	2.671159	-0.69296485	1.1294664
1276779436562	-6.0882955	2.9147544	-5.706926	-0.96741104	0.0	21.8125	-19.0	42.375	2.6484065	-0.70185506	1.124295
1276779436592	-6.0201936	3.0645783	-6.0474343	-0.73990726	0.0	22.0625	-18.75	42.375	2.6588254	-0.7301626	1.099935
1276779436622	-6.2108784	3.0645783	-6.2108784	-0.5038729	0.0	22.0625	-18.25	42.125	2.664041	-0.7310302	1.1124257
1276779436662	-6.4015636	3.0645783	-6.4015636	-0.2488432	0.0	22.8125	-18.25	42.375	2.6520314	-0.7339034	1.1243144
1276779436692	-6.510526	3.0237172	-6.428804	-0.17029476	0.0	23.0625	-18.0	41.875	2.6443746	-0.73036367	1.1360031
1276779436732	-6.428804	2.9556155	-6.428804	-0.24659252	0.0	23.3125	-18.0	41.875	2.6266692	-0.7375342	1.1398674
1276779436762	-6.2789803	2.8738933	-6.238119	-0.5007925	0.0	23.8125	-18.0	42.125	2.63814	-0.7346713	1.141557
1276779436802	-6.2789803	2.8738933	-6.1700177	-0.54630566	0.0	23.3125	-18.5	42.375	2.6184835	-0.7292142	1.141557
1276779436842	-6.3198414	2.7921712	-5.938472	-0.6961031	0.0	23.3125	-18.5	42.875	2.6419656	-0.70998687	1.1547737
1276779436882	-6.2108784	2.9147544	-5.8158884	-0.81246567	0.0	23.0625	-19.0	42.625	2.6491036	-0.70315504	1.1320103
1276779436922	-6.2789803	3.0237172	-5.938472	-0.6505642	0.0	22.5625	-19.0	42.625	2.656734	-0.7057199	1.1220077
1276779436952	-6.3607025	3.0237172	-6.0882955	-0.49704552	0.0	22.8125	-18.5	42.625	2.6706047	-0.7128336	1.1270423
1276779436992	-6.428804	3.0645783	-6.2108784	-0.3569851	0.0	23.0625	-18.5	42.625	2.6676533	-0.7171762	1.125966
1276779437022	-6.6331096	3.1463003	-6.3198414	-0.119662285	0.0	23.3125	-18.25	42.625	2.6918159	-0.71075374	1.1278926
1276779437062	-6.6331096	3.0237172	-6.3198414	-0.1587801	0.0	23.5625	-18.0	42.625	2.679806	-0.7142493	1.1430864
1276779437092	-6.4015636	3.0237172	-6.1700177	-0.4155903	0.0	24.0625	-18.0	42.375	2.6972513	-0.71684533	1.1295202
1276779437122	-6.3198414	2.9556155	-5.938472	-0.6446905	0.0	24.0625	-18.0	42.625	2.7133799	-0.70517373	1.1333436
1276779437162	-6.238119	2.8738933	-5.8976107	-0.75373936	0.0	23.5625	-18.0	43.125	2.703982	-0.70950747	1.1390811
1276779437202	-6.238119	2.8738933	-6.0201936	-0.67340755	0.0	23.5625	-18.0	43.375	2.6948893	-0.7196904	1.1390811
1276779437242	-6.4015636	2.8330324	-6.1291566	-0.50220776	0.0	23.3125	-18.0	43.625	2.675927	-0.71913546	1.1541524
1276779437272	-6.510526	2.8738933	-6.238119	-0.34301758	0.0	23.0625	-18.0	43.625	2.6722786	-0.7197112	1.1550982
1276779437312	-6.469665	2.9556155	-6.3607025	-0.2645979	0.0	23.5625	-17.5	43.875	2.7175457	-0.72963405	1.1422671
1276779437352	-6.3198414	2.982856	-6.2789803	-0.41178894	0.0	24.0625	-17.25	43.875	2.75715	-0.7319776	1.1298127
1276779437392	-6.3607025	3.1054392	-6.238119	-0.37179852	0.0	23.8125	-17.25	43.875	2.7896929	-0.72238827	1.1166149
1276779437432	-6.4015636	3.0645783	-6.0474343	-0.4823208	0.0	23.8125	-17.5	43.875	2.7803862	-0.7056977	1.1243144
1276779437472	-6.4015636	3.0237172	-5.9793324	-0.5397577	0.0	23.8125	-17.75	43.875	2.7619443	-0.70133215	1.1295202
1276779437502	-6.428804	2.9556155	-5.8567495	-0.6215153	0.0	23.0625	-18.25	43.625	2.7173817	-0.69142234	1.1398674
1276779437532	-6.2789803	2.8738933	-5.7477865	-0.82211304	0.0	23.0625	-18.0	43.625	2.7255874	-0.69416267	1.141557
1276779437572	-6.0201936	2.9556155	-5.7477865	-0.97401524	0.0	23.5625	-18.0	43.875	2.7599828	-0.7085642	1.1144147
1276779437602	-5.938472	3.0237172	-6.0201936	-0.82605743	0.0	23.3125	-18.5	43.625	2.709694	-0.73468834	1.0998362
1276779437652	-6.1700177	2.982856	-6.1700177	-0.5851717	0.0	23.5625	-18.5	43.875	2.6848855	-0.73298633	1.1204813
1276779437682	-6.238119	3.0645783	-6.3198414	-0.41270733	0.0	23.3125	-18.5	44.125	2.691221	-0.7379289	1.11416
1276779437712	-6.428804	3.1463003	-6.469665	-0.15857792	0.0	23.0625	-18.25	43.875	2.7014103	-0.73497087	1.1156591
1276779437742	-6.5513873	2.982856	-6.5513873	-0.073265076	0.0	23.3125	-17.5	43.875	2.7008767	-0.73837113	1.1435425
1276779437772	-6.510526	2.8738933	-6.5922484	-0.10593033	0.0	23.3125	-17.25	43.625	2.6793175	-0.7471665	1.1550983
1276779437812	-6.5922484	2.8738933	-6.469665	-0.1333065	0.0	23.0625	-17.0	43.875	2.7130003	-0.732612	1.1596873
1276779437842	-6.5513873	2.8330324	-6.2108784	-0.34505653	0.0	23.0625	-17.5	43.875	2.7007704	-0.71607727	1.1626472
1276779437872	-6.428804	2.7921712	-5.9793324	-0.59371567	0.0	22.8125	-17.75	43.875	2.6998463	-0.70628893	1.1610564
1276779437912	-6.238119	2.7649305	-5.8158884	-0.8409643	0.0	22.8125	-17.75	44.375	2.720147	-0.7058527	1.1535854
1276779437952	-6.2108784	2.7240696	-5.5571017	-1.0387001	0.0	23.0625	-18.25	44.125	2.708179	-0.68645245	1.1574659
1276779437992	-6.0882955	2.9147544	-5.5162406	-1.0893087	0.0	22.8125	-18.0	44.125	2.7667675	-0.6851502	1.1242951
1276779438023	-6.3607025	3.173541	-5.6660647	-0.71631527	0.0	23.5625	-18.25	43.625	2.791077	-0.67296404	1.1080056
1276779438062	-6.6331096	3.2961242	-5.9793324	-0.28745937	0.0	23.8125	-18.5	43.125	2.7625444	-0.6791534	1.1096158
1276779438092	-6.5922484	3.255263	-6.2789803	-0.13814068	0.0	24.8125	-18.25	42.375	2.7361007	-0.7068292	1.1121197
1276779438122	-6.428804	3.255263	-6.510526	-0.09515095	0.0	25.375	-18.0	42.125	2.733505	-0.734739	1.1020769
1276779438162	-6.6331096	2.982856	-6.510526	-0.045372963	0.0	25.125	-17.75	42.375	2.6663268	-0.7301412	1.1481986
1276779438202	-6.742072	2.7240696	-6.428804	-0.10069275	0.0	25.125	-17.25	42.375	2.6412187	-0.7239598	1.1868117
1276779438232	-6.510526	2.5606253	-6.238119	-0.43339634	0.0	24.5625	-16.75	42.625	2.656665	-0.7281948	1.1960744
1276779438262	-6.2789803	2.5333846	-6.0201936	-0.74649715	0.0	24.3125	-16.5	42.875	2.6950107	-0.72678345	1.1873015
1276779438302	-6.1700177	2.5333846	-5.6660647	-1.0549965	0.0	24.5625	-16.5	43.625	2.7526505	-0.7042046	1.181189
1276779438342	-6.0882955	2.7921712	-5.706926	-1.0070724	0.0	25.125	-16.5	43.125	2.819415	-0.70567185	1.140803
1276779438372	-6.1291566	2.8738933	-5.7477865	-0.9261732	0.0	25.125	-17.0	42.875	2.7999241	-0.7039562	1.1323459
1276779438412	-6.2789803	2.9556155	-5.938472	-0.6728277	0.0	25.625	-17.25	42.375	2.7782722	-0.7077987	1.1308492
1276779438452	-6.510526	3.0645783	-6.2108784	-0.30119896	0.0	25.625	-17.25	42.125	2.767015	-0.7120694	1.1308529
1276779438492	-6.782933	2.982856	-6.469665	0.030126572	0.0	25.375	-17.5	42.875	2.7033515	-0.71776366	1.1564914
1276779438522	-6.891896	2.8738933	-6.5513873	0.127038	0.0	25.375	-17.5	43.375	2.676222	-0.7201694	1.1757246
1276779438562	-6.701211	2.6423476	-6.469665	-0.12446022	0.0	25.125	-16.75	43.875	2.6837287	-0.73179036	1.1952056
1276779438592	-6.701211	2.5333846	-6.1700177	-0.35184288	0.0	24.5625	-16.5	43.875	2.7045372	-0.71098435	1.2093555
1276779438622	-6.6331096	2.5333846	-5.8976107	-0.57637405	0.0	24.3125	-16.25	43.875	2.7449834	-0.693122	1.2059637
1276779438662	-6.469665	2.5333846	-5.5162406	-0.93515015	0.0	24.3125	-16.25	43.875	2.7449834	-0.693122	1.2059637
1276779438692	-6.469665	2.6832085	-5.284695	-1.032587	0.0	24.0625	-17.0	43.375	2.7832377	-0.6463902	1.1776507
1276779438722	-6.4015636	2.7649305	-5.366417	-1.0075998	0.0	24.0625	-17.5	42.875	2.760289	-0.65591663	1.1630833
1276779438752	-6.4015636	2.8330324	-5.5162406	-0.8940182	0.0	23.8125	-18.0	42.125	2.7172089	-0.6673719	1.1541524
1276779438792	-6.510526	2.8330324	-5.7477865	-0.67154884	0.0	24.0625	-18.25	41.875	2.672742	-0.6805208	1.1603631
1276779438832	-6.66035	2.9147544	-6.0882955	-0.3238554	0.0	24.5625	-18.5	42.375	2.6505458	-0.69715095	1.1582786
1276779438872	-6.8237944	2.9147544	-6.428804	0.011164665	0.0	24.5625	-18.0	42.875	2.652834	-0.7139313	1.1671096
1276779438912	-6.973618	2.7240696	-6.469665	0.0882206	0.0	25.125	-18.0	42.625	2.5997827	-0.71264887	1.1983979
1276779438952	-6.742072	2.6014864	-6.1700177	-0.30441952	0.0	24.5625	-17.75	42.625	2.6186593	-0.70669395	1.2025399
1276779438992	-6.5513873	2.4516625	-5.8567495	-0.6834469	0.0	24.3125	-17.5	42.875	2.639095	-0.69705445	1.2127094
1276779439022	-6.428804	2.4516625	-5.7477865	-0.8413162	0.0	24.3125	-18.25	42.625	2.6011026	-0.6959469	1.206465
1276779439062	-6.428804	2.4925237	-5.6660647	-0.8821621	0.0	24.3125	-18.0	43.875	2.6621242	-0.6878656	1.2009279
1276779439092	-6.3607025	2.6832085	-5.706926	-0.8496895	0.0	24.5625	-18.5	43.875	2.6730444	-0.6907946	1.171604
1276779439122	-6.2789803	2.8330324	-5.7477865	-0.8351002	0.0	24.5625	-18.5	43.375	2.694066	-0.6953682	1.1469507
1276779439162	-6.238119	2.9147544	-5.9793324	-0.6873112	0.0	24.3125	-18.25	43.625	2.7065277	-0.7150777	1.1336912
1276779439202	-6.3198414	2.9556155	-6.2789803	-0.42040157	0.0	24.0625	-18.25	43.125	2.6658742	-0.7328024	1.1333436
1276779439242	-6.510526	2.7649305	-6.4015636	-0.26663876	0.0	24.3125	-17.25	44.125	2.6910033	-0.7355871	1.1691915
1276779439272	-6.510526	2.6832085	-6.469665	-0.24405956	0.0	24.5625	-17.0	44.125	2.6788852	-0.7430809	1.1798737
1276779439312	-6.510526	2.6832085	-6.5513873	-0.18858242	0.0	24.8125	-16.5	44.125	2.7039514	-0.74933803	1.1798737
1276779439352	-6.510526	2.5606253	-6.2789803	-0.40615273	0.0	25.125	-16.25	44.125	2.7209618	-0.73143905	1.1960744
1276779439392	-6.428804	2.6014864	-6.0882955	-0.5781832	0.0	24.8125	-16.5	43.375	2.7196631	-0.7204593	1.1862783
1276779439432	-6.3607025	2.4925237	-5.9793324	-0.7279043	0.0	24.3125	-16.5	43.625	2.7061193	-0.7189671	1.1973243
1276779439472	-6.3198414	2.4925237	-6.0474343	-0.7113476	0.0	24.8125	-16.5	43.875	2.7054102	-0.7273551	1.1951299
1276779439502	-6.5513873	2.5333846	-6.0201936	-0.5556259	0.0	24.0625	-16.5	43.625	2.7119377	-0.70858455	1.2018126
1276779439532	-6.701211	2.4516625	-6.0474343	-0.45312977	0.0	23.3125	-16.75	43.375	2.671995	-0.70304143	1.2200683
1276779439572	-6.891896	2.3699405	-5.938472	-0.40557098	0.0	23.5625	-17.0	43.875	2.6687057	-0.6837182	1.2395898
1276779439602	-6.851035	2.4516625	-5.8158884	-0.49150658	0.0	23.0625	-17.0	43.125	2.6799414	-0.6742962	1.2271428
1276779439642	-6.742072	2.6014864	-5.706926	-0.5983782	0.0	23.3125	-17.75	42.625	2.6698983	-0.6684379	1.2025399
1276779439682	-6.851035	2.6014864	-6.0474343	-0.3052883	0.0	24.5625	-17.5	42.875	2.6566124	-0.6899269	1.2078925
1276779439712	-6.973618	2.3699405	-6.0882955	-0.25074577	0.0	24.8125	-17.25	42.375	2.608757	-0.690761	1.2431979
1276779439752	-6.8237944	2.3426998	-5.8976107	-0.48816204	0.0	25.375	-17.5	42.375	2.6065028	-0.68528473	1.2400908
1276779439782	-6.3607025	2.3426998	-5.7477865	-0.9193659	0.0	25.875	-16.5	43.125	2.6904485	-0.703306	1.2179052
1276779439822	-6.238119	2.4925237	-5.8976107	-0.8674879	0.0	25.125	-16.5	42.875	2.702907	-0.7204858	1.1906664
1276779439862	-6.742072	2.4516625	-5.9793324	-0.46756077	0.0	25.375	-16.25	43.375	2.7143373	-0.694821	1.2220253
1276779439902	-7.014479	2.4108016	-6.2108784	-0.13246346	0.0	25.375	-16.0	43.125	2.6934705	-0.69711083	1.2397546
1276779439932	-7.1234417	2.4108016	-6.0882955	-0.13076687	0.0	25.375	-15.75	43.125	2.7222052	-0.6805541	1.2444639
1276779439963	-7.04172	2.4108016	-5.938472	-0.2849264	0.0	26.375	-15.25	43.125	2.769224	-0.67343676	1.2409441
1276779440002	-6.932757	2.3426998	-5.434519	-0.6915331	0.0	26.625	-15.25	41.625	2.775856	-0.6387713	1.2449257
1276779440032	-6.782933	2.3426998	-5.243834	-0.9187813	0.0	27.375	-14.75	41.625	2.829271	-0.6310576	1.2382419
1276779440072	-6.782933	2.4108016	-5.284695	-0.8764677	0.0	27.875	-15.0	40.875	2.8206248	-0.6332641	1.2292997
1276779440102	-6.973618	2.4108016	-5.325556	-0.706933	0.0	27.875	-15.0	40.625	2.808564	-0.6251811	1.2379545
1276779440142	-7.205164	2.3426998	-5.597963	-0.3864689	0.0	28.125	-14.5	40.625	2.7953176	-0.63633543	1.2564362
1276779440202	-7.504812	2.1792557	-5.6252036	-0.17782497	0.0	28.375	-14.5	40.625	2.7531269	-0.62389964	1.2881874
1276779440242	-7.6546354	2.2609777	-5.407278	-0.16589737	0.0	28.875	-14.0	40.625	2.822417	-0.595445	1.2835892
1276779440272	-7.3141265	2.3699405	-4.944186	-0.66564083	0.0	29.625	-14.0	39.875	2.885079	-0.57148266	1.2574489
1276779440312	-6.932757	2.3426998	-5.012288	-0.9367914	0.0	30.125	-14.0	39.875	2.8926692	-0.600545	1.2449257
1276779440352	-7.04172	2.1792557	-5.134871	-0.8232279	0.0	30.125	-14.25	39.875	2.8142483	-0.60844725	1.2706672
1276779440382	-7.273266	2.3018389	-5.407278	-0.4558468	0.0	30.125	-14.5	39.875	2.8018017	-0.61660516	1.2642902
1276779440422	-7.3549876	2.3699405	-5.6660647	-0.22454453	0.0	30.125	-14.0	40.625	2.8428316	-0.6326913	1.2590789
1276779440462	-7.4639506	2.2201166	-5.8567495	-0.06288338	0.0	29.875	-14.0	40.625	2.7773407	-0.64484745	1.281685
1276779440502	-7.6546354	2.3018389	-6.0201936	0.20007896	0.0	29.875	-13.5	40.125	2.808506	-0.6455208	1.2786866
1276779440532	-7.6273947	2.070293	-5.706926	-0.058200836	0.0	29.625	-13.5	40.125	2.7750368	-0.6253966	1.3057535
1276779440562	-7.504812	1.879608	-4.944186	-0.62514114	0.0	29.875	-14.25	39.625	2.7504551	-0.5686487	1.3253907
1276779440592	-7.1234417	1.7978859	-4.7535014	-1.0561304	0.0	30.125	-14.25	39.875	2.7524607	-0.5742736	1.3235694
1276779440622	-7.164303	2.0294318	-4.4810944	-1.1160784	0.0	30.625	-14.75	40.125	2.8124778	-0.54173934	1.294758
1276779440662	-7.3958488	2.2609777	-4.7535014	-0.7288542	0.0	31.125	-14.75	40.125	2.8442974	-0.5511185	1.2741102
1276779440702	-7.6546354	2.070293	-4.8216033	-0.52616405	0.0	31.375	-14.75	40.375	2.795373	-0.54631495	1.3066534
1276779440732	-7.9270425	2.2201166	-4.9850473	-0.18284512	0.0	31.625	-15.0	39.875	2.7922623	-0.544501	1.2977239
1276779440762	-8.076866	2.3699405	-5.053149	0.011022568	0.0	31.625	-15.0	39.375	2.8104613	-0.54065686	1.285384
1276779440802	-8.117727	2.4516625	-5.134871	0.10672665	0.0	32.125	-15.0	38.875	2.817123	-0.5444807	1.2774934
1276779440842	-7.9679036	2.2609777	-5.012288	-0.1256094	0.0	31.625	-15.0	38.375	2.7718852	-0.5442104	1.2943038
1276779440882	-7.8861814	1.9885708	-4.671779	-0.4273224	0.0	31.875	-15.0	38.125	2.7386427	-0.52139837	1.3237869
1276779440922	-7.6954966	1.7978859	-4.399372	-0.76189804	0.0	31.875	-15.25	38.125	2.710632	-0.5079654	1.3412846
1276779440952	-7.5456724	1.8387469	-4.399372	-0.88069725	0.0	31.625	-15.5	38.375	2.7099137	-0.51539	1.3317724
1276779440982	-7.504812	1.8387469	-4.440233	-0.89492416	0.0	32.125	-15.25	38.625	2.7235703	-0.5215748	1.3305205
1276779441012	-7.4639506	1.920469	-4.7535014	-0.7515669	0.0	31.625	-15.25	39.375	2.721956	-0.55266094	1.3189596
1276779441042	-7.6273947	2.1111538	-4.9850473	-0.4533186	0.0	31.625	-15.0	39.625	2.763371	-0.5621071	1.3007708
1276779441082	-7.8180795	2.3426998	-5.053149	-0.20743561	0.0	31.625	-15.0	40.375	2.8243356	-0.5543759	1.2796593
1276779441112	-7.8589406	2.3018389	-5.366417	-0.015846252	0.0	31.125	-15.25	40.875	2.777934	-0.58010036	1.2858711
1276779441152	-7.7772183	2.152015	-5.284695	-0.1607027	0.0	31.375	-15.25	40.875	2.7515755	-0.5798122	1.3008434
1276779441192	-7.6273947	2.1111538	-5.175732	-0.35031223	0.0	31.125	-15.5	41.875	2.7563674	-0.5791699	1.3007708
1276779441232	-7.3141265	1.9477097	-5.09401	-0.68311214	0.0	31.125	-15.25	41.625	2.733258	-0.59238	1.3105416
1276779441262	-7.3549876	1.9885708	-4.903325	-0.7461395	0.0	31.125	-15.0	41.125	2.7677488	-0.5718342	1.3067393
1276779441292	-7.4639506	2.2201166	-4.903325	-0.60436344	0.0	30.875	-15.25	40.875	2.8028545	-0.56195045	1.281685
1276779441332	-7.5456724	2.4925237	-5.134871	-0.3453207	0.0	31.125	-14.75	40.125	2.8685288	-0.57367444	1.2517558
1276779441372	-7.5865335	2.5606253	-5.175732	-0.27247524	0.0	31.125	-14.75	39.875	2.878265	-0.5738401	1.2452804
1276779441412	-7.6546354	2.3426998	-5.012288	-0.361825	0.0	31.625	-15.0	40.125	2.8268826	-0.5594162	1.2737985
1276779441452	-7.7772183	2.6014864	-4.7126403	-0.3482237	0.0	32.125	-14.75	39.875	2.9226024	-0.5215767	1.2479954
1276779441492	-7.7363577	2.4108016	-4.7126403	-0.43263435	0.0	33.125	-14.75	39.625	2.8855696	-0.5267591	1.2687136
1276779441522	-7.6954966	2.2609777	-4.630918	-0.5450039	0.0	33.875	-15.0	39.125	2.8390992	-0.5236106	1.2850324
1276779441562	-7.7772183	2.4108016	-4.671779	-0.41928577	0.0	33.875	-15.0	38.625	2.865863	-0.5209066	1.2702066
1276779441592	-7.8861814	2.5606253	-4.862464	-0.19456387	0.0	34.375	-15.0	38.625	2.8938797	-0.53039	1.2568378
1276779441622	-7.9270425	2.6014864	-4.862464	-0.15008259	0.0	33.875	-15.0	38.125	2.8903944	-0.52769077	1.253692
1276779441662	-7.8861814	2.5333846	-4.2904096	-0.47833252	0.0	33.875	-14.5	37.875	2.9388702	-0.47792077	1.2599658
1276779441702	-7.8180795	2.152015	-4.2086873	-0.67064476	0.0	34.875	-14.0	37.875	2.888682	-0.47875038	1.3021872
1276779441742	-8.008764	2.4108016	-4.2086873	-0.4436741	0.0	35.1875	-13.5	37.0625	2.9715056	-0.46620905	1.2784036
1276779441772	-8.076866	2.4925237	-4.099725	-0.41217422	0.0	36.1875	-13.5	36.3125	3.0018477	-0.45159078	1.2714682
1276779441812	-8.158588	2.1111538	-3.6774938	-0.6118965	0.0	36.9375	-13.5	35.3125	2.9170685	-0.4114685	1.3175858
1276779441852	-8.308413	2.0294318	-3.486809	-0.57051754	0.0	37.1875	-13.75	34.5625	2.8829622	-0.38711482	1.3312252
1276779441892	-8.390134	2.2609777	-3.2961242	-0.51306057	0.0	37.9375	-14.5	34.0625	2.910107	-0.36255726	1.3075688
1276779441932	-8.240311	2.152015	-3.718355	-0.51363945	0.0	37.9375	-14.25	34.3125	2.8738985	-0.41165194	1.3153448
1276779441972	-8.349273	2.0294318	-3.5957718	-0.4922247	0.0	38.1875	-14.25	35.0625	2.8605242	-0.39633858	1.3323535
1276779442012	-8.662541	2.1111538	-3.5276701	-0.2180605	0.0	38.4375	-14.0	35.0625	2.891847	-0.37675276	1.3317457
1276779442052	-8.689782	1.9885708	-3.568531	-0.20450783	0.0	38.1875	-14.0	35.5625	2.8643243	-0.3807739	1.3458298
1276779442092	-8.689782	2.3018389	-3.5276701	-0.1497755	0.0	38.1875	-13.5	35.3125	2.9630039	-0.3739566	1.311853
1276779442122	-8.539958	2.8738933	-3.486809	-0.14497375	0.0	38.4375	-13.5	34.0625	3.110231	-0.36922276	1.2461777
1276779442162	-8.499097	1.879608	-3.718355	-0.34125328	0.0	39.4375	-13.75	33.3125	2.8117526	-0.4037142	1.3531457
1276779442202	-8.62168	1.9477097	-2.7240696	-0.5574608	0.0	40.9375	-13.75	31.8125	2.8990507	-0.298953	1.3486174
1276779442242	-8.430995	1.920469	-1.9477097	-0.9430475	0.0	43.6875	-14.0	28.8125	2.926458	-0.22155045	1.346831
1276779442272	-8.62168	1.6889231	-1.9885708	-0.7988615	0.0	46.5	-13.75	25.3125	2.8277144	-0.22259492	1.3773533
1276779442312	-8.117727	1.56634	-0.3405087	-1.5321798	0.0	49.0	-13.0	19.5625	2.944849	-0.041163344	1.3801858
1276779442352	-8.430995	1.334794	1.1168685	-1.1978903	0.0	51.5	-12.4375	12.8125	2.9285052	0.13010302	1.4137797
1276779442382	-9.193735	1.3075534	2.4516625	-0.20221806	0.0	52.5	-12.1875	5.75	2.90359	0.25812042	1.4295216
1276779442422	-8.880466	0.3405087	4.630918	0.21452904	0.0	53.0	-11.4375	-1.0	2.7653513	0.48037648	1.5324715
1276779442462	-7.43671	-0.7218784	5.47538	-0.5435219	0.0	52.75	-11.1875	-6.75	2.5648355	0.6324145	1.6675627
1276779442502	-6.428804	-0.23154591	6.4015636	-0.7312355	0.0	51.5	-10.6875	-12.5625	2.7087588	0.782951	1.6067977
1276779442532	-5.8976107	0.313268	6.742072	-0.84364414	0.0	49.5	-11.4375	-17.8125	2.8142238	0.8514112	1.5177284
1276779442572	-4.903325	0.7218784	7.8589406	-0.5154362	0.0	47.5	-13.75	-22.3125	2.91905	1.00815	1.4246241
1276779442602	-3.8273177	1.2666923	9.043911	0.095127106	0.0	44.4375	-16.75	-26.5625	3.0820315	1.1514674	1.2511826
1276779442632	-3.718355	2.1111538	9.765789	0.8542023	0.0	41.6875	-19.75	-28.8125	-3.0306296	1.1580983	1.054416
1276779442662	-3.3642259	1.879608	10.147159	1.0476475	0.0	40.1875	-22.75	-29.0625	3.133699	1.2078412	1.0612948
1276779442702	-2.3018389	2.4925237	9.888372	0.64758587	0.0	38.1875	-25.25	-28.8125	-2.8191996	1.240272	0.7456464
1276779442742	-2.1111538	3.486809	8.771504	-0.13431358	0.0	37.6875	-26.75	-26.8125	-2.5464435	1.1357845	0.544431
1276779442772	-2.1111538	3.0645783	8.662541	-0.3785944	0.0	37.1875	-28.75	-25.5625	-2.7095933	1.1650413	0.6032298
1276779442812	-2.3018389	3.6774938	6.8237944	-1.7204523	0.0	36.4375	-30.75	-24.8125	-2.6138349	1.0044775	0.5592649
1276779442852	-3.214402	5.407278	4.7126403	-1.9466238	0.0	35.6875	-33.5	-22.8125	-2.203492	0.6429644	0.5363349
1276779442892	-1.879608	7.6954966	7.1234417	0.84684753	0.0	34.125	-37.0	-19.5625	-2.1195724	0.73238933	0.23955755
1276779442932	-0.50395286	8.308413	8.580819	2.1480198	0.0	32.125	-40.8125	-14.0625	-2.1844382	0.8006082	0.06058151
1276779442972	-0.14982383	9.656827	7.273266	2.2837238	0.0	29.375	-44.0625	-7.75	-2.1932497	0.6454713	0.015513565
1276779443012	0.19068487	8.539958	5.284695	0.23801231	0.0	26.625	-46.0625	-3.0	-2.2287104	0.55403125	-0.02232484
1276779443052	0.14982383	9.00305	3.336985	-0.20389938	0.0	23.3125	-47.5625	-1.25	-2.134037	0.35490686	-0.016639918
1276779443092	-0.9942854	8.499097	2.7240696	-0.82646084	0.0	20.0625	-48.5625	-0.5	-2.3760254	0.30819806	0.116457835
1276779443122	-1.56634	8.281172	3.2961242	-0.7570276	0.0	16.8125	-49.5625	-0.75	-2.7593052	0.37280354	0.18693633
1276779443162	-0.6946377	7.6954966	3.0645783	-1.4943199	0.0	14.25	-50.5625	-0.25	-2.6676252	0.37758708	0.09002151
1276779443202	0.46309182	13.525005	-0.46309182	3.7342014	0.0	12.75	-50.8125	2.0	-1.5899222	-0.034206282	-0.034226306
1276779443242	-1.3756552	11.032481	3.7864566	1.9383631	0.0	12.0	-51.0625	4.0	-2.8766367	0.32825157	0.1240511
1276779443282	-1.0351465	11.264028	1.607201	1.6184511	0.0	11.5	-51.3125	6.0	-2.6708713	0.14114094	0.091641024
1276779443322	0.08172209	6.3198414	2.1792557	-3.1211262	0.0	11.0	-51.3125	7.25	-2.681475	0.3320337	-0.012930313
1276779443362	1.1168685	6.1291566	0.3405087	-3.567267	0.0	10.75	-51.8125	8.5	-2.0828152	0.054601226	-0.18024457
1276779443402	-2.1383946	11.645397	2.7921712	2.3582268	0.0	10.5	-51.3125	10.25	-3.093439	0.23159198	0.18160266
1276779443442	-0.23154591	11.75436	-0.0	1.9499903	0.0	11.0	-50.3125	12.8125	-2.4785254	-0.0	0.019696178
1276779443482	-0.6946377	8.962189	1.4982382	-0.6935787	0.0	12.25	-49.0625	14.5625	-2.7843275	0.16515519	0.07735295
1276779443512	-2.3018389	9.152874	3.336985	0.20379543	0.0	13.25	-48.0625	14.5625	-3.1044455	0.33985493	0.24637875
1276779443542	-2.1383946	9.656827	0.23154591	0.08681488	0.0	14.25	-48.3125	13.8125	-2.9141781	0.02340606	0.2179221
1276779443582	-1.920469	8.580819	0.50395286	-0.99911785	0.0	15.5625	-48.5625	12.5625	-2.8533437	0.05724966	0.22018103
1276779443612	-1.4982382	8.62168	3.405087	-0.4166174	0.0	15.3125	-49.0625	11.5	-2.9164615	0.3710861	0.17205746
1276779443652	-2.6423476	14.09706	2.8330324	4.813035	0.0	15.0625	-49.0625	11.5	-2.8756173	0.19501582	0.18528962
