#timestamp	accel_x	accel_y	accel_z	accel_mag	temperature	mag_x	mag_y	mag_z	azimuth	pitch	roll
1276816788040	0.0	4.4810944	7.8180795	-0.7954025	0.0	0.0	0.0	0.0	0.0	0.0	0.0
1276816788282	3.0237172	4.140586	7.9679036	-0.33169365	0.0	-4.0625	-32.375	-33.75	-1.9189476	0.9990245	-0.6307494
1276816788321	2.9556155	3.8681788	8.008764	-0.43441582	0.0	-3.8125	-32.125	-34.25	-1.920095	1.0246265	-0.65245444
1276816788360	2.982856	4.0180025	8.008764	-0.36302376	0.0	-3.0625	-31.625	-34.75	-1.848262	1.012314	-0.63860184
1276816788400	2.8738933	3.9499009	8.049625	-0.39084148	0.0	-3.0625	-31.625	-34.5	-1.8996581	1.0253685	-0.62900126
1276816788444	2.3426998	4.1814466	8.812365	0.22482586	0.0	-2.8125	-31.125	-34.5	-2.1626482	1.0726534	-0.5106867
1276816788483	1.3756552	4.2086873	8.349273	-0.35594463	0.0	-1.8125	-31.125	-34.5	-2.4923437	1.083186	-0.31591406
1276816788521	1.1849703	4.1814466	7.3958488	-1.2283506	0.0	-0.375	-30.875	-34.5	-2.3661704	1.0395137	-0.2761473
1276816788561	2.2609777	3.6774938	7.7363577	-0.94734955	0.0	1.375	-30.625	-35.0	-1.8587819	1.0618267	-0.5512416
1276816788600	1.5390993	4.099725	9.112013	0.3030157	0.0	2.8125	-30.375	-35.75	-2.1784027	1.1228001	-0.3591347
1276816788642	1.3756552	4.2086873	8.662541	-0.07807827	0.0	4.25	-30.125	-36.0625	-2.1039453	1.0982732	-0.31591406
1276816788681	1.4165162	4.2495484	8.62168	-0.09075832	0.0	5.0	-30.375	-36.0625	-2.054706	1.0916293	-0.32175055
1276816788720	1.1168685	4.5628166	8.430995	-0.15531063	0.0	5.75	-29.5625	-36.5625	-2.020849	1.062463	-0.24005605
1276816788761	0.53119355	4.5628166	8.430995	-0.20544529	0.0	7.1875	-28.8125	-36.8125	-2.145984	1.0719153	-0.1158962
1276816788800	0.14982383	4.3312707	8.689782	-0.096105576	0.0	8.4375	-27.5625	-37.0625	-2.2672381	1.1081647	-0.034577407
1276816788840	-0.42223078	4.399372	8.430995	-0.28748894	0.0	9.4375	-26.5	-37.3125	-2.3544214	1.0879711	0.095682174
1276816788880	-0.5720546	4.3312707	8.117727	-0.5879383	0.0	10.375	-26.25	-36.5625	-2.3515117	1.077065	0.13131544
1276816788911	-0.5720546	4.372132	7.8180795	-0.83084106	0.0	10.375	-26.5	-36.5625	-2.298214	1.0572681	0.13010205
1276816788950	-1.607201	4.8216033	8.076866	-0.26376152	0.0	10.875	-27.0625	-36.5625	-2.8135006	1.0091424	0.32175055
1276816788995	-2.9556155	5.284695	8.049625	0.2660923	0.0	11.625	-27.0625	-36.3125	2.0473237	0.92587876	0.5099388
1276816789041	-4.0180025	5.8976107	7.5865335	0.60880184	0.0	12.375	-28.0625	-35.5	1.1709391	0.8159724	0.5980605
1276816789090	-1.9477097	6.1291566	6.742072	-0.48915768	0.0	13.3125	-28.3125	-34.5	-1.2490537	0.80899364	0.30768582
1276816789124	6.238119	5.938472	7.3958488	1.5458012	0.0	13.8125	-29.5625	-33.5	-1.028182	0.7095282	-0.8100017
1276816789161	10.079058	4.671779	9.112013	4.561429	0.0	13.8125	-30.625	-32.6875	-0.93001056	0.6869533	-1.1367615
1276816789191	5.2165933	4.7943625	9.615966	2.137619	0.0	14.0625	-30.375	-32.6875	-1.2335755	0.9357925	-0.82755005
1276816789230	-1.8387469	4.0588636	8.499097	-0.21029568	0.0	14.0625	-31.125	-32.4375	3.1393285	1.0879111	0.42536265
1276816789260	-7.9270425	3.636633	8.853226	2.6208487	0.0	13.8125	-30.875	-32.4375	1.3652929	0.79289794	1.1406791
1276816789290	-8.471856	4.140586	8.921328	3.1743698	0.0	13.5625	-30.375	-33.25	1.2702488	0.7577094	1.1161923
1276816789330	-6.5922484	3.7864566	7.5865335	0.9334841	0.0	13.0625	-30.625	-33.25	1.3377013	0.78436	1.049428
1276816789371	-0.42223078	5.829509	5.597963	-1.7135267	0.0	13.0625	-30.375	-34.0	-1.3052548	0.7638317	0.072303645
1276816789410	4.099725	7.1234417	6.238119	0.51155186	0.0	12.5625	-29.5625	-34.0	-1.0303726	0.64923126	-0.5222293
1276816789451	3.405087	6.66035	7.43671	0.74131393	0.0	12.375	-29.5625	-33.75	-1.2059596	0.782476	-0.47260505
1276816789490	-0.27240697	5.7477865	8.689782	0.615613	0.0	11.625	-29.0625	-34.75	-2.0621257	0.9859032	0.04735793
1276816789520	-3.718355	5.284695	9.80665	1.937479	0.0	10.875	-28.0625	-35.25	2.173807	0.9881796	0.6131435
1276816789550	-2.4516625	3.8273177	7.5456724	-0.9977808	0.0	10.125	-27.3125	-36.0625	2.3198738	1.0286428	0.569717
1276816789581	-1.9477097	4.0180025	7.8589406	-0.7677965	0.0	9.4375	-26.25	-37.0625	2.670553	1.0541124	0.4513699
1276816789610	-0.9125633	4.4810944	7.6954966	-0.85491085	0.0	9.6875	-25.75	-37.5625	-2.3338568	1.0346134	0.20090023
1276816789650	-0.14982383	4.671779	7.668256	-0.82610893	0.0	9.6875	-25.5	-37.3125	-1.856847	1.0233847	0.032058984
1276816789680	-0.50395286	4.8216033	7.9679036	-0.4798441	0.0	10.375	-25.25	-37.5625	-1.9257126	1.0242053	0.104141645
1276816789710	-0.53119355	4.862464	8.049625	-0.38740444	0.0	10.625	-25.5	-37.0625	-1.9825006	1.0247674	0.108812205
1276816789740	-0.53119355	4.671779	8.117727	-0.42554188	0.0	10.875	-25.0	-36.3125	-2.0705724	1.0458027	0.11321639
1276816789775	-0.29964766	4.671779	7.9679036	-0.56528664	0.0	10.625	-24.75	-36.5625	-1.9274799	1.0395968	0.0640522
1276816789811	-0.27240697	4.4810944	8.281172	-0.3868723	0.0	11.125	-24.75	-36.3125	-2.051312	1.0740253	0.060715564
1276816789850	-0.29964766	4.7126403	8.349273	-0.21451187	0.0	11.625	-24.5	-36.3125	-1.9538236	1.0560726	0.06349833
1276816789892	-0.46309182	4.6036777	7.8180795	-0.7220106	0.0	11.375	-24.5	-37.0625	-1.9053377	1.0364118	0.10025447
1276816789930	-0.7627395	4.671779	7.8589406	-0.63221645	0.0	11.875	-24.25	-37.3125	-1.9249731	1.0286692	0.16183744
1276816789967	-0.95342433	4.5219555	7.8861814	-0.66613865	0.0	11.375	-24.25	-37.5625	-2.0904582	1.0407277	0.2077998
1276816790000	-0.7627395	4.372132	8.158588	-0.5190306	0.0	11.625	-23.5	-37.8125	-2.067902	1.0725814	0.17271663
1276816790041	-0.61291564	4.4810944	8.349273	-0.31105995	0.0	12.125	-23.1875	-37.8125	-1.9596581	1.0743463	0.1359346
1276816790080	-0.8036005	4.5628166	8.281172	-0.31755733	0.0	12.5625	-23.1875	-37.8125	-1.9542615	1.0607139	0.17433159
1276816790117	-1.1441092	4.630918	7.6954966	-0.75264263	0.0	12.8125	-22.6875	-38.3125	-1.7333164	1.0158993	0.24220861
1276816790155	-1.4165162	5.053149	7.8861814	-0.33391666	0.0	13.0625	-22.9375	-38.5625	-1.5642985	0.9836299	0.2733086
1276816790204	-1.9477097	4.862464	8.662541	0.3164301	0.0	13.3125	-23.1875	-38.3125	-2.219249	1.0269444	0.38098925
1276816790240	-2.2609777	4.5628166	8.349273	-0.026993752	0.0	13.0625	-23.75	-37.8125	-2.8157034	1.023124	0.46005908
1276816790271	-1.920469	5.2165933	7.5865335	-0.40151596	0.0	13.8125	-24.75	-37.0625	-1.7234192	0.9384407	0.35274836
1276816790310	-1.920469	5.5162406	7.273266	-0.47833252	0.0	14.0625	-25.25	-36.5625	-1.4318974	0.8941825	0.33502412
1276816790350	-0.8036005	6.2789803	6.973618	-0.38843822	0.0	14.3125	-26.5	-35.5	-1.296162	0.83372426	0.12729067
1276816790397	-1.7297841	6.1291566	8.662541	0.94501686	0.0	14.5625	-27.8125	-34.5	-2.1598709	0.9368442	0.27506816
1276816790496	0.6946377	4.944186	5.8567495	-2.1106114	0.0	13.8125	-28.8125	-34.0	-1.4690177	0.86486596	-0.13958225
1276816790533	0.38136974	4.862464	7.668256	-0.71868324	0.0	13.5625	-30.125	-33.0	-1.9720316	1.0042902	-0.07827114
1276816790570	0.46309182	4.7943625	6.973618	-1.3312912	0.0	13.3125	-30.875	-32.6875	-1.9063685	0.9663396	-0.09629218
1276816790601	0.27240697	4.2495484	6.66035	-1.9013906	0.0	12.5625	-31.125	-32.6875	-2.0680633	1.0019469	-0.064014986
1276816790631	-0.14982383	3.486809	8.049625	-1.0330105	0.0	12.375	-31.375	-31.9375	-2.5540771	1.1616944	0.042942334
1276816790670	-0.38136974	3.6774938	8.158588	-0.84942055	0.0	11.875	-32.625	-31.6875	-2.6940117	1.1453106	0.10333434
1276816790712	0.10896278	4.0180025	9.847511	0.8295946	0.0	11.625	-33.4375	-31.6875	-2.5508573	1.1832649	-0.027111998
1276816790750	-0.50395286	4.0588636	9.765789	0.78103065	0.0	11.625	-33.9375	-31.9375	-2.7899806	1.1741787	0.12352889
1276816790780	-1.1168685	4.2086873	7.8589406	-0.822031	0.0	11.625	-34.1875	-32.4375	-2.986607	1.0648382	0.25939345
1276816790820	-0.88532263	5.243834	7.668256	-0.47478294	0.0	10.875	-33.4375	-33.25	-2.650059	0.96443653	0.16725394
1276816790877	-0.6946377	5.175732	7.6273947	-0.5628481	0.0	10.125	-32.625	-33.75	-2.5633132	0.9704431	0.1334133
1276816790922	-0.14982383	4.944186	7.9679036	-0.42822266	0.0	8.9375	-31.625	-34.5	-2.4103606	1.0152247	0.03029376
1276816790960	-0.3405087	5.366417	8.430995	0.19315243	0.0	7.4375	-30.875	-35.25	-2.506626	1.0030522	0.06336683
1276816791002	0.23154591	5.175732	8.281172	-0.03835392	0.0	7.1875	-30.125	-36.0625	-2.1928782	1.0117477	-0.04470703
1276816791043	0.7218784	5.134871	7.43671	-0.74063396	0.0	6.75	-29.875	-36.0625	-1.8295739	0.9619077	-0.13966823
1276816791080	1.0760075	4.1814466	7.504812	-1.1484461	0.0	6.9375	-30.125	-35.75	-1.9676325	1.0487211	-0.25186458
1276816791110	1.3756552	3.636633	7.246025	-1.5833654	0.0	7.4375	-30.375	-35.5	-1.8940225	1.0783089	-0.3616407
1276816791178	0.7627395	4.099725	7.5456724	-1.1853571	0.0	8.4375	-30.375	-35.0	-2.0867755	1.065925	-0.18394347
1276816791210	-1.1849703	4.5219555	8.894087	0.24108696	0.0	10.125	-29.0625	-35.25	-2.9196734	1.0868874	0.2562856
1276816791250	-2.6832085	6.8237944	7.7772183	0.8820772	0.0	12.5625	-28.0625	-35.25	-0.6595125	0.8148306	0.3746423
1276816791290	-3.636633	6.469665	8.349273	1.3643847	0.0	14.3125	-26.8125	-35.0	0.88424414	0.8441455	0.51208955
1276816791330	-2.5606253	4.2904096	10.228881	1.5773048	0.0	15.5	-26.0	-34.5	3.1403491	1.1164199	0.53808194
1276816791360	-1.1441092	3.5276701	9.343558	0.24598694	0.0	16.5	-26.0	-34.0	-2.6734052	1.1929556	0.31362066
1276816791390	-1.2666923	3.759216	9.00305	0.03159809	0.0	17.25	-25.75	-32.4375	-2.6246765	1.1557733	0.32500786
1276816791422	-2.3018389	4.0588636	6.469665	-1.8298464	0.0	19.4375	-25.75	-31.1875	-2.64174	0.94596165	0.5158877
1276816791460	-3.336985	5.284695	5.8567495	-1.2413139	0.0	21.125	-25.5	-29.9375	-1.7134413	0.75292146	0.56321925
1276816791490	-2.982856	6.2108784	7.205164	0.16264439	0.0	22.625	-25.25	-28.125	-1.9788721	0.8077523	0.44773382
1276816791524	-2.7240696	5.366417	7.3141265	-0.33482742	0.0	24.0625	-26.0	-27.375	-2.3149302	0.8822938	0.4697204
1276816791560	-3.173541	4.630918	7.1234417	-0.73690987	0.0	25.3125	-26.5	-26.3125	-2.6885817	0.90335405	0.600788
1276816791600	-3.0237172	3.336985	7.014479	-1.4711084	0.0	25.8125	-27.3125	-24.8125	-3.0983264	1.0000805	0.7361874
1276816791631	-2.7921712	4.7535014	6.2108784	-1.5020132	0.0	26.75	-27.8125	-23.8125	-2.509485	0.84486395	0.5310977
1276816791680	-2.4516625	5.47538	6.5513873	-0.92345715	0.0	27.25	-27.3125	-23.8125	-2.2251248	0.82936645	0.42099056
1276816791719	-2.6423476	2.2609777	5.7886477	-3.0536904	0.0	27.25	-27.0625	-23.25	3.0059838	1.0298107	0.86301965
1276816791750	-2.6423476	0.61291564	4.0588636	-4.924843	0.0	27.75	-26.5	-23.5625	2.204519	0.98167	1.3428683
1276816791790	-3.759216	6.1291566	5.012288	-1.0418739	0.0	27.75	-26.0	-23.5625	-1.7325684	0.6087802	0.5501658
1276816791831	-4.2495484	7.082581	8.430995	1.9960308	0.0	27.75	-26.8125	-22.0	-2.4138794	0.79566455	0.54041946
1276816791870	-6.5513873	5.325556	5.09401	0.053936005	0.0	27.75	-27.0625	-20.75	2.1275904	0.5428789	0.88824505
1276816791900	-6.2108784	0.84446156	5.134871	-1.7038717	0.0	28.0	-27.5625	-19.4375	1.7760057	0.6863492	1.4356601
1276816791930	-6.5513873	8.812365	5.938472	2.6770945	0.0	28.0	-27.8125	-18.4375	-1.9506662	0.49575552	0.63928384
1276816791970	-6.428804	13.211738	7.164303	6.53981	0.0	27.75	-26.8125	-17.9375	-1.5530516	0.4536826	0.45286858
1276816792000	-6.4015636	9.193735	7.9270425	3.9171534	0.0	27.75	-26.5	-18.1875	-2.3040857	0.6158011	0.6082359
1276816792038	-7.7363577	6.8237944	8.689782	3.681408	0.0	27.5	-26.5	-18.4375	2.9823718	0.70005196	0.8479917
1276816792087	-5.053149	7.6954966	3.9499009	0.21116924	0.0	26.5	-26.5	-19.6875	-1.1262034	0.40529242	0.5810269
1276816792120	-1.4982382	8.117727	6.510526	0.7066355	0.0	25.0625	-27.5625	-22.25	-1.6788914	0.6678082	0.18250993
1276816792161	1.3075534	9.384419	5.134871	0.97035885	0.0	22.375	-27.3125	-25.0625	-1.1821707	0.49662998	-0.13844109
1276816792200	1.9477097	16.017529	2.3699405	6.50198	0.0	18.9375	-26.5	-28.625	-0.7249801	0.14583457	-0.121004574
1276816792240	0.19068487	12.258313	6.3198414	3.9862099	0.0	15.75	-27.0625	-31.1875	-0.8086246	0.4759652	-0.0155543005
1276816792280	0.5720546	7.164303	5.6660647	-0.65466785	0.0	12.5625	-26.8125	-32.6875	-0.9841937	0.66760623	-0.07967886
1276816792320	-1.3756552	6.932757	6.1291566	-0.45132542	0.0	9.4375	-27.5625	-33.5	-0.5468753	0.71438336	0.19588386
1276816792360	-1.1849703	4.0180025	14.941522	5.7110033	0.0	7.1875	-29.0625	-33.25	3.0747485	1.2974482	0.2867854
1276816792400	1.4165162	-0.61291564	16.821129	7.0851383	0.0	5.75	-29.875	-32.4375	-0.89787555	1.4792973	-1.9791644
1276816792440	5.284695	-1.2666923	3.9499009	-3.0884485	0.0	6.75	-29.875	-32.1875	-0.67986375	0.6285101	-1.8060489
1276816792480	7.6954966	2.5606253	-2.2201166	-1.3979406	0.0	8.6875	-30.375	-31.4375	-0.79964185	-0.2671938	-1.2495768
1276816792520	-1.7297841	11.727119	3.7864566	2.637414	0.0	10.125	-31.375	-29.9375	-0.28410563	0.30918053	0.14644691
1276816792560	-4.5628166	9.384419	5.407278	1.9460211	0.0	11.875	-32.625	-27.875	0.38456687	0.47809574	0.45255643
1276816792600	-3.3642259	7.7772183	6.469665	0.85448074	0.0	11.375	-34.6875	-25.8125	2.0048168	0.6520864	0.40826872
1276816792640	-0.7627395	8.008764	5.47538	-0.075161934	0.0	10.875	-36.25	-24.8125	-1.6210573	0.59758264	0.09495171
1276816792680	-1.3756552	8.689782	2.9556155	-0.525465	0.0	10.375	-35.6875	-25.3125	-0.36393875	0.32409644	0.15700428
1276816792720	-3.5957718	8.19945	2.3699405	-0.54505444	0.0	9.1875	-34.9375	-26.875	0.32181993	0.25876722	0.41328153
1276816792760	-3.255263	7.7363577	3.8681788	-0.5648556	0.0	8.4375	-34.6875	-26.625	0.5418855	0.43185124	0.3982863
1276816792800	-1.920469	8.117727	5.2165933	0.031974792	0.0	7.9375	-34.1875	-26.625	0.03691071	0.55885494	0.2323061
1276816792840	-1.9477097	8.894087	4.0180025	0.14536953	0.0	7.9375	-33.9375	-26.3125	-0.04933274	0.41559833	0.21558604
1276816792880	-3.336985	9.80665	2.9556155	0.9656067	0.0	7.9375	-33.9375	-26.0625	0.21643811	0.27793756	0.3279875
1276816792925	-3.255263	9.302697	4.099725	0.867836	0.0	7.9375	-33.6875	-26.625	0.3095518	0.39419782	0.3366096
1276816792960	-3.0645783	9.193735	4.7943625	1.0054874	0.0	7.4375	-33.4375	-26.0625	0.4030318	0.4594153	0.32175055
1276816793000	-1.879608	8.499097	4.7126403	0.0916605	0.0	6.9375	-33.6875	-26.0625	0.07632122	0.49622074	0.21765062
1276816793043	-1.334794	7.8180795	3.336985	-1.2020283	0.0	6.9375	-33.1875	-26.3125	-0.112290405	0.39825785	0.16910122
1276816793082	-3.759216	7.7363577	3.568531	-0.4944353	0.0	6.9375	-32.625	-27.375	0.55691934	0.3932688	0.45231664
1276816793121	-3.9499009	8.281172	3.2961242	-0.057600975	0.0	7.6875	-32.375	-28.625	0.4137283	0.34489405	0.44505742
1276816793160	-4.099725	8.539958	2.982856	0.12491894	0.0	8.1875	-31.875	-28.875	0.3449967	0.30505	0.4475718
1276816793200	-4.5219555	7.7363577	5.175732	0.54165936	0.0	8.9375	-32.125	-28.375	0.78843325	0.52377474	0.52894974
1276816793230	-1.1849703	6.238119	5.134871	-1.6405506	0.0	10.125	-31.625	-27.875	-1.3401555	0.6800133	0.1877198
1276816793260	0.9942854	5.407278	4.7943625	-2.5119143	0.0	10.625	-31.125	-27.875	-1.4377036	0.71714544	-0.18184774
1276816793300	3.1054392	6.1700177	4.7126403	-1.4447212	0.0	10.875	-30.125	-28.625	-1.1207496	0.5987168	-0.46629307
1276816793340	-2.8738933	11.876944	6.5922484	4.0778294	0.0	9.6875	-28.5625	-30.6875	-0.20862706	0.49472836	0.23740919
1276816793380	-2.982856	5.366417	5.407278	-1.6252985	0.0	7.1875	-26.8125	-32.6875	0.78620297	0.72205365	0.50731397
1276816793420	-2.6014864	4.944186	6.1700177	-1.483079	0.0	5.0	-24.75	-34.75	0.92391557	0.83496124	0.48436436
1276816793460	-0.5720546	6.3607025	7.246025	-0.14794064	0.0	2.8125	-23.1875	-36.0625	-0.113907844	0.8483741	0.089694455
1276816793500	-0.84446156	5.2165933	9.043911	0.6680002	0.0	2.0625	-21.9375	-36.8125	1.8429645	1.0419888	0.16048768
1276816793540	-0.9125633	5.012288	7.43671	-0.79219246	0.0	1.5625	-20.6875	-37.0625	0.5047172	0.9701595	0.18009262
1276816793580	-0.10896278	5.175732	7.4639506	-0.723114	0.0	0.625	-19.375	-37.3125	-0.040645115	0.96438926	0.021049522
1276816793620	-0.50395286	5.366417	8.008764	-0.15301323	0.0	-0.125	-18.125	-38.0625	0.28149116	0.97841084	0.09363403
1276816793650	-0.23154591	5.8567495	7.6954966	-0.13319206	0.0	-1.8125	-16.8125	-39.0625	0.23449874	0.9198768	0.039514307
1276816793680	0.61291564	5.6252036	7.5865335	-0.34229183	0.0	-3.0625	-16.0625	-39.625	0.12217595	0.92994964	-0.10853069
1276816793720	-0.040861044	5.134871	8.894087	0.46337223	0.0	-4.75	-16.0625	-40.125	0.6677486	1.047195	0.007957392
1276816793760	-0.46309182	6.1700177	9.084772	1.1850128	0.0	-5.75	-16.3125	-40.125	0.6320371	0.9728879	0.07491472
1276816793800	-1.4982382	5.012288	9.084772	0.6767101	0.0	-5.5	-16.5625	-39.625	0.9351837	1.0483273	0.29045928
1276816793840	-3.7864566	2.7240696	6.238119	-2.0174308	0.0	-4.5	-17.0625	-39.625	0.7230119	0.9287395	0.9471524
1276816793880	-3.405087	4.099725	6.6331096	-1.297802	0.0	-2.8125	-17.0625	-39.0625	0.69610196	0.893954	0.6931021
1276816793910	-1.6889231	5.434519	8.19945	0.17420292	0.0	-2.5625	-16.8125	-38.8125	0.660834	0.9640681	0.30131432
1276816793950	-0.9942854	5.7477865	6.891896	-0.77759266	0.0	-3.0625	-16.8125	-39.0625	0.42530164	0.8684086	0.17129065
1276816793990	-2.1111538	4.862464	7.246025	-0.828599	0.0	-4.5	-16.5625	-38.8125	0.7251212	0.9391935	0.4096151
1276816794030	-5.366417	6.3198414	11.495573	4.3668118	0.0	-5.75	-16.5625	-38.8125	0.77299863	0.9459673	0.7039934
1276816794060	-4.630918	4.671779	0.313268	-3.2211313	0.0	-4.5	-16.0625	-38.8125	0.3613406	0.047587182	0.7810058
1276816794100	-6.5513873	4.399372	3.8681788	-1.018137	0.0	-3.5625	-14.5625	-38.8125	0.40781957	0.45575494	0.9794429
1276816794140	-7.3549876	3.759216	9.343558	2.6645021	0.0	-4.5	-12.75	-39.375	0.49653414	0.8468742	1.0982994
1276816794180	-8.049625	4.3312707	10.760075	4.3119755	0.0	-4.0625	-9.6875	-40.125	0.39320704	0.86657995	1.0771577
1276816794220	-5.938472	1.7978859	4.1814466	-2.3245153	0.0	-3.3125	-7.375	-40.875	0.2285327	0.59300727	1.2768164
1276816794260	-3.718355	0.27240697	7.3141265	-1.5970936	0.0	-3.0625	-6.125	-40.875	0.29438448	1.0993853	1.497667
1276816794300	1.4982382	-0.29964766	8.812365	-0.86281013	0.0	-2.0625	-5.875	-41.125	-0.7851823	1.3991207	-1.7681919
1276816794340	2.5333846	-1.607201	11.032481	1.6264935	0.0	-3.3125	-7.125	-40.625	-0.5896608	1.305276	-2.1361327
1276816794380	-0.8036005	0.23154591	9.915613	0.14416695	0.0	-6.9375	-9.4375	-40.875	0.97352874	1.4866545	1.2902595
1276816794420	-0.42223078	4.671779	6.851035	-1.5036097	0.0	-8.6875	-13.5	-40.375	0.6736756	0.9704211	0.09013412
1276816794460	0.38136974	6.5513873	8.281172	0.7595186	0.0	-8.6875	-18.625	-39.0625	0.68490463	0.9006713	-0.058146436
1276816794500	2.7921712	9.697687	7.164303	2.56948	0.0	-8.4375	-23.1875	-38.5625	0.09812229	0.61735535	-0.28033897
1276816794530	4.7535014	15.785983	1.6889231	6.7657814	0.0	-8.1875	-26.8125	-36.5625	0.0032477246	0.102088846	-0.29248554
1276816794570	-1.6889231	12.571581	1.7297841	2.9952745	0.0	-10.875	-29.3125	-34.75	0.44604528	0.13553365	0.13354492
1276816794610	6.851035	7.9679036	9.888372	4.622628	0.0	-13.3125	-30.125	-34.0	-1.2512034	0.7550144	-0.7101727
1276816794650	-2.5333846	7.014479	5.706926	-0.415699	0.0	-15.0625	-30.625	-33.5	1.1096069	0.65316725	0.34658659
1276816794690	-3.5957718	6.4015636	3.7864566	-1.5454855	0.0	-15.5	-31.375	-33.25	0.9536526	0.47613123	0.5117831
1276816794730	-1.607201	5.8567495	3.336985	-2.876998	0.0	-12.5625	-32.9375	-32.6875	0.9482031	0.50242424	0.2678256
1276816794770	1.3075534	5.7477865	-2.7513103	-3.3015404	0.0	-8.9375	-35.1875	-30.4375	0.021182392	-0.436694	-0.22368145
1276816794810	-7.164303	14.437569	2.0294318	6.438017	0.0	-6.9375	-38.0	-26.875	0.7921195	0.12525637	0.4606242
1276816794850	-0.46309182	9.888372	2.3018389	0.35665798	0.0	-6.5	-41.0625	-24.0625	0.53440225	0.22846758	0.04679776
1276816794890	-2.5333846	10.882658	-2.2609777	1.5934505	0.0	-7.9375	-42.875	-22.25	0.5307683	-0.1996534	0.22871752
1276816794931	1.4982382	5.284695	1.920469	-3.987636	0.0	-11.625	-43.875	-20.1875	-0.1896474	0.33633894	-0.27625605
1276816794970	0.7218784	9.724928	-2.1792557	0.18557167	0.0	-14.3125	-44.625	-17.9375	0.38027993	-0.21986227	-0.074093804
1276816795010	-1.3075534	-0.14982383	-4.7535014	-4.874316	0.0	-17.25	-44.875	-15.625	1.9557987	-1.300691	1.6848822
1276816795040	2.6832085	2.7240696	0.46309182	-5.955077	0.0	-19.1875	-44.625	-13.3125	-1.1557935	0.12052605	-0.7778416
1276816795080	2.6014864	8.62168	-1.4165162	-0.6903124	0.0	-20.875	-44.375	-12.0625	0.35294327	-0.1560143	-0.2930503
1276816795120	2.1792557	13.633968	-0.46309182	4.00815	0.0	-22.125	-44.375	-12.3125	0.8185217	-0.03352771	-0.1584994
1276816795160	-0.6946377	18.959524	-0.84446156	9.18438	0.0	-22.875	-43.625	-12.0625	1.0523752	-0.044481006	0.03662155
1276816795200	2.3426998	11.372991	-0.8036005	1.8328905	0.0	-23.8125	-43.625	-12.0625	0.7587939	-0.06909553	-0.20314658
1276816795240	-0.6537767	7.9679036	-1.9477097	-1.5781336	0.0	-24.3125	-43.875	-12.3125	0.90516645	-0.2389704	0.08186789
1276816795280	-0.8036005	9.697687	0.50395286	-0.06268406	0.0	-24.8125	-44.375	-12.0625	1.2363886	0.051742565	0.082676284
1276816795320	-0.53119355	10.378705	-1.525479	0.6970053	0.0	-23.5625	-45.6875	-12.3125	0.9465319	-0.14574862	0.05113648
1276816795360	0.6946377	8.430995	-3.1463003	-0.78094196	0.0	-22.625	-45.9375	-11.8125	0.59606665	-0.35606974	-0.08220528
1276816795400	1.1168685	7.8861814	-3.9499009	-0.91615105	0.0	-21.375	-46.6875	-11.5625	0.42580578	-0.46037418	-0.14068787
1276816795440	2.6423476	6.4424243	-2.070293	-2.542151	0.0	-19.6875	-46.6875	-11.0625	0.019899953	-0.2889936	-0.38922396
1276816795480	1.6889231	9.956474	-2.4108016	0.5758257	0.0	-19.4375	-47.1875	-10.25	0.48236203	-0.23433799	-0.16803116
1276816795520	1.334794	8.662541	-2.9147544	-0.56992435	0.0	-19.1875	-47.6875	-10.0	0.43344453	-0.32104823	-0.15288562
1276816795560	-1.1441092	8.771504	-0.42223078	-0.95077324	0.0	-19.1875	-47.6875	-10.0	0.43344453	-0.32104823	-0.15288562
1276816795600	-1.7978859	10.269742	-0.08172209	0.6195984	0.0	-20.1875	-47.9375	-10.5	1.2031596	-0.0078381905	0.17331
1276816795640	1.0351465	8.962189	-1.3756552	-0.6806011	0.0	-20.4375	-47.1875	-11.0625	0.6814744	-0.15131618	-0.11499198
1276816795680	0.38136974	9.043911	-0.61291564	-0.7339754	0.0	-20.875	-46.9375	-12.5625	0.8751559	-0.067607716	-0.042143706
1276816795720	0.92618364	8.390134	-0.23154591	-1.3623753	0.0	-21.375	-46.1875	-13.5625	0.8271516	-0.027423898	-0.10994446
1276816795760	2.8330324	9.302697	-0.42223078	-0.07297039	0.0	-21.125	-45.6875	-14.625	0.39017883	-0.043391947	-0.2956156
1276816795800	1.4982382	9.697687	-1.1168685	0.06944466	0.0	-21.375	-45.6875	-16.625	0.57165796	-0.11333051	-0.15328251
1276816795840	0.38136974	9.80665	-0.53119355	0.021777153	0.0	-21.375	-44.875	-17.4375	0.77867883	-0.054072995	-0.038869303
1276816795880	1.1168685	8.894087	1.7978859	-0.6641903	0.0	-21.125	-45.125	-18.4375	1.0521166	0.19794239	-0.1249204
1276816795920	2.3018389	9.466142	0.38136974	-0.057201385	0.0	-21.375	-45.6875	-19.6875	0.51225716	0.03912704	-0.2385359
1276816795960	2.5606253	9.234595	0.313268	-0.21849632	0.0	-21.125	-45.4375	-19.9375	0.4217397	0.032678217	-0.27049038
1276816796008	2.2609777	9.425281	-0.040861044	-0.113889694	0.0	-21.375	-45.6875	-20.75	0.45015576	-0.0042156377	-0.23543566
1276816796050	1.920469	9.302697	0.040861044	-0.30770016	0.0	-21.125	-45.125	-21.75	0.49272585	0.004301651	-0.20358221
1276816796090	2.3018389	8.894087	-0.23154591	-0.6166086	0.0	-20.4375	-44.625	-22.25	0.35154402	-0.025197973	-0.2532489
1276816796130	2.3426998	8.853226	0.08172209	-0.6483469	0.0	-19.6875	-44.875	-22.5	0.32977328	0.0089233965	-0.25868633
1276816796170	2.4516625	8.894087	0.23154591	-0.57794285	0.0	-18.6875	-45.4375	-22.75	0.26937053	0.02509238	-0.26897117
1276816796210	2.3426998	8.894087	-0.61291564	-0.58880424	0.0	-18.1875	-46.1875	-22.5	0.22258298	-0.066541374	-0.25754985
1276816796250	1.920469	8.921328	-0.29964766	-0.6760378	0.0	-18.0	-46.1875	-22.5	0.31597072	-0.03282381	-0.21203151
1276816796290	2.070293	9.302697	-0.46309182	-0.26512337	0.0	-17.75	-46.9375	-22.75	0.27640796	-0.048553426	-0.218979
1276816796330	2.4108016	9.80665	-1.607201	0.41907406	0.0	-17.25	-47.4375	-22.75	0.17690714	-0.15782675	-0.24105328
1276816796370	3.336985	9.507003	-1.3075534	0.3534813	0.0	-16.5	-47.1875	-23.25	-0.0020140947	-0.12905246	-0.33756793
1276816796410	2.9556155	9.275456	-1.2666923	0.010389328	0.0	-15.25	-47.6875	-23.25	0.0017568559	-0.12939072	-0.308477
1276816796450	2.6014864	9.425281	-1.7978859	0.13498116	0.0	-14.3125	-47.1875	-23.25	0.0390525	-0.1818447	-0.26930642
1276816796490	3.0645783	10.460427	-1.334794	1.1748734	0.0	-13.3125	-47.1875	-23.25	-0.0169187	-0.121850386	-0.28499368
1276816796530	2.3426998	9.724928	-1.525479	0.31212234	0.0	-12.5625	-47.9375	-22.0	0.033744253	-0.1513343	-0.23639235
1276816796570	0.27240697	9.847511	-1.7570249	0.2000885	0.0	-12.8125	-48.4375	-19.9375	0.38635093	-0.17649913	-0.027655467
1276816796610	-0.84446156	9.997335	0.50395286	0.23893547	0.0	-13.0625	-50.25	-16.875	0.875182	0.050187662	0.08426863
1276816796650	0.3405087	10.56939	-2.1792557	0.9904375	0.0	-13.8125	-51.25	-12.3125	0.49553794	-0.20323354	-0.032205354
1276816796690	2.070293	9.80665	-3.568531	0.83247185	0.0	-14.0625	-51.8125	-8.25	0.11816113	-0.3420467	-0.20805615
1276816796730	1.7297841	7.1234417	-1.9885708	-2.2112575	0.0	-13.3125	-52.5625	-4.125	0.029329542	-0.26490003	-0.23821896
1276816796770	-0.14982383	5.706926	-1.607201	-3.8758368	0.0	-12.375	-52.3125	-0.5625	0.7543459	-0.27442312	0.026246954
1276816796810	-1.1849703	6.8237944	-2.2609777	-2.5210242	0.0	-11.125	-52.3125	1.1875	0.9487828	-0.3155444	0.17193808
1276816796850	-1.334794	7.273266	-2.8330324	-1.8878031	0.0	-10.625	-52.5625	1.75	0.8892179	-0.3658661	0.18150094
1276816796890	-1.1849703	6.851035	-3.5957718	-1.9791079	0.0	-10.375	-52.8125	0.9375	0.71233034	-0.47729063	0.17126776
1276816796933	-0.3405087	7.6954966	-4.7535014	-0.75499916	0.0	-10.375	-52.5625	-1.0625	0.4222791	-0.5528949	0.044218943
1276816796970	-0.08172209	8.962189	-5.09401	0.5023966	0.0	-11.375	-52.5625	-3.375	0.38979217	-0.5168339	0.009118289
1276816797010	-1.1168685	10.882658	-4.862464	2.1651163	0.0	-12.375	-53.0625	-5.6875	0.5962253	-0.4182489	0.10227023
1276816797050	-2.2201166	11.413852	-6.238119	3.3887691	0.0	-13.3125	-52.8125	-6.9375	0.66672444	-0.4924076	0.19211188
1276816797090	3.759216	10.800936	-0.29964766	1.6337042	0.0	-14.3125	-53.0625	-7.6875	-0.40636152	-0.02619516	-0.33493245
1276816797130	-3.1463003	12.571581	-5.09401	4.1178894	0.0	-15.25	-52.8125	-8.5	0.8291588	-0.37452415	0.24523358
1276816797170	0.23154591	7.3549876	-1.3756552	-2.3205376	0.0	-15.0625	-52.5625	-7.6875	0.65914	-0.1848112	-0.03147109
1276816797200	2.5333846	6.1700177	1.4573772	-2.9794178	0.0	-14.8125	-53.0625	-7.1875	-2.1960247	0.21512064	-0.38960734
1276816797241	5.366417	6.6331096	2.5333846	-0.90639114	0.0	-15.0625	-53.0625	-7.1875	-1.9060731	0.28863263	-0.68022573
1276816797280	3.7864566	9.765789	0.9942854	0.7145901	0.0	-14.8125	-53.0625	-7.4375	-1.1784531	0.09464391	-0.3698813
1276816797320	-1.7297841	11.795221	-1.334794	2.189227	0.0	-15.75	-52.5625	-9.0	1.0131178	-0.11150197	0.1456133
1276816797360	-0.88532263	10.378705	-1.9477097	0.79027843	0.0	-17.25	-51.5	-11.0625	0.8221298	-0.18485038	0.085095845
1276816797400	-0.9942854	9.084772	1.4982382	-0.5456352	0.0	-18.4375	-50.75	-12.3125	1.3918761	0.1624932	0.109011404
1276816797440	1.2666923	8.117727	1.1441092	-1.5114117	0.0	-19.1875	-50.5	-12.3125	1.157103	0.13836469	-0.15479198
1276816797480	2.9556155	8.19945	1.2258313	-1.0049858	0.0	-19.1875	-50.5	-12.8125	0.17734702	0.13972688	-0.34596726
1276816797510	3.568531	8.240311	0.61291564	-0.8059397	0.0	-18.6875	-50.25	-13.3125	-0.28475773	0.0681491	-0.40867585
1276816797550	3.3778462	9.00305	-0.3405087	-0.18476391	0.0	-17.75	-50.75	-14.625	-0.073037274	-0.035396367	-0.35893646
1276816797590	2.7649305	9.425281	-0.61291564	0.034915924	0.0	-16.75	-51.0	-16.375	0.086988956	-0.06231859	-0.28534713
1276816797630	2.5606253	9.234595	-0.53119355	-0.20890522	0.0	-16.0	-50.75	-17.125	0.092422925	-0.055373956	-0.27049038
1276816797670	3.0237172	8.921328	-0.27240697	-0.38289547	0.0	-15.0625	-51.0	-17.6875	-0.10912696	-0.028910443	-0.32678023
1276816797710	3.214402	8.308413	0.040861044	-0.898016	0.0	-14.0625	-50.75	-17.6875	-0.28948292	0.004586695	-0.36914966
1276816797750	3.3778462	8.349273	0.10896278	-0.79931545	0.0	-12.8125	-50.75	-17.6875	-0.39718497	0.012097412	-0.3844379
1276816797790	3.486809	9.043911	-0.38136974	-0.10636139	0.0	-11.625	-51.0	-17.4375	-0.36785567	-0.039325435	-0.36798093
1276816797830	2.9556155	9.193735	-0.5720546	-0.1325779	0.0	-10.375	-51.0	-17.6875	-0.26993293	-0.05916728	-0.31104624
1276816797870	2.8738933	9.575105	-1.334794	0.2791605	0.0	-9.1875	-51.8125	-18.1875	-0.23964532	-0.13273317	-0.29158726
1276816797910	3.0645783	9.043911	-1.56634	-0.1300087	0.0	-8.4375	-52.0625	-17.9375	-0.32210782	-0.16258347	-0.3267122
1276816797950	3.445948	8.894087	-1.9477097	-0.07151222	0.0	-7.1875	-52.5625	-17.6875	-0.41810918	-0.20142941	-0.36963436
1276816797990	4.7943625	10.18802	-1.4573772	1.5470104	0.0	-6.5	-53.0625	-17.125	-0.6181543	-0.12871702	-0.4398426
1276816798030	4.099725	10.378705	-0.27240697	1.3557634	0.0	-6.25	-53.0625	-15.875	-0.6739254	-0.024406372	-0.3762
1276816798070	-0.23154591	10.18802	-0.50395286	0.39645386	0.0	-6.0	-53.0625	-15.125	0.3861421	-0.04941222	0.02272336
1276816798110	-1.3756552	11.114203	-1.8387469	1.5423117	0.0	-6.75	-53.3125	-13.3125	0.5506803	-0.1627363	0.12314819
1276816798152	1.0760075	12.108489	-2.5333846	2.6107302	0.0	-7.4375	-53.5625	-10.0	0.12748182	-0.20546179	-0.088631086
1276816798190	2.4516625	9.615966	-2.5333846	0.43519974	0.0	-6.9375	-53.3125	-5.6875	-0.33186048	-0.24995066	-0.24963908
1276816798230	3.5276701	7.205164	-1.7978859	-1.5852613	0.0	-6.5	-53.3125	-0.3125	-0.9961164	-0.22046559	-0.4552955
1276816798270	2.5606253	6.782933	-1.334794	-2.4346318	0.0	-6.0	-53.3125	3.75	-1.1619085	-0.18206641	-0.36096945
1276816798300	0.08172209	6.891896	-1.8387469	-2.6732154	0.0	-5.0	-53.3125	6.8125	0.5468586	-0.2607079	-0.011857152
1276816798340	-0.9125633	6.782933	-2.3426998	-2.5727577	0.0	-4.75	-53.3125	8.625	0.933622	-0.32979652	0.13373512
1276816798380	-0.84446156	6.3607025	-2.3426998	-2.9758453	0.0	-4.0625	-53.3125	9.625	0.89243984	-0.35006732	0.13199043
1276816798410	0.08172209	6.2789803	-2.070293	-3.194662	0.0	-3.5625	-53.0625	10.375	0.40093958	-0.31846806	-0.01301445
1276816798450	0.14982383	6.851035	-2.9556155	-2.3437557	0.0	-3.5625	-53.0625	10.125	0.20171326	-0.40720174	-0.021865303
1276816798490	1.3075534	8.962189	-4.671779	0.3843279	0.0	-3.8125	-53.5625	9.125	-0.23638697	-0.47622	-0.14487451
1276816798530	-0.10896278	10.378705	-6.0882955	2.2265015	0.0	-5.0	-53.8125	7.0625	0.2577734	-0.53049475	0.010498302
1276816798570	0.46309182	12.9529505	-8.076866	5.465191	0.0	-6.0	-54.0625	5.5625	0.16799584	-0.5572722	-0.03573662
1276816798610	0.92618364	8.689782	-9.275456	2.9371414	0.0	-6.75	-54.5625	5.0625	0.02542807	-0.81516856	-0.106182195
1276816798650	3.405087	4.372132	-5.47538	-2.0162754	0.0	-7.1875	-55.125	5.5625	-0.7592728	-0.77938086	-0.6616898
1276816798690	3.636633	8.076866	-2.3699405	-0.63727283	0.0	-6.9375	-55.625	6.3125	-1.1320678	-0.26143032	-0.42306426
1276816798730	0.313268	10.501288	-1.1441092	0.7614231	0.0	-6.75	-55.875	6.0625	1.5626659	-0.10847352	-0.029822543
1276816798770	-1.525479	13.865514	-0.5720546	4.154252	0.0	-7.4375	-55.625	4.8125	1.7596861	-0.04098695	0.10957894
1276816798810	-0.9125633	6.1700177	-2.0294318	-3.2476497	0.0	-8.6875	-54.875	3.25	0.89553547	-0.3145744	0.14683834
1276816798850	0.7627395	8.117727	0.6537767	-1.6269989	0.0	-10.125	-54.5625	2.0	2.4815311	0.08001256	-0.09368468
1276816798891	3.3778462	9.00305	4.372132	0.7565069	0.0	-11.625	-54.875	0.9375	-2.8027096	0.42673838	-0.35893643
1276816798930	1.6889231	9.765789	0.46309182	0.11491966	0.0	-12.5625	-54.875	0.4375	2.3616908	0.046692222	-0.17124893
1276816798970	1.0760075	10.310603	-5.134871	1.761981	0.0	-13.8125	-55.125	-1.625	0.2944982	-0.45990348	-0.10398292
1276816799010	1.1849703	9.384419	-0.50395286	-0.33429813	0.0	-15.0625	-54.875	-3.625	0.8839884	-0.053227633	-0.12560523
1276816799040	1.1168685	8.281172	0.040861044	-1.4504023	0.0	-15.75	-54.3125	-4.625	1.0903553	0.004889899	-0.13405949
1276816799070	2.1792557	7.7772183	-0.10896278	-1.7291412	0.0	-16.0	-53.8125	-5.9375	0.13173917	-0.01349006	-0.27320358
1276816799125	2.5333846	8.539958	0.14982383	-0.89758873	0.0	-15.75	-53.0625	-5.9375	0.0017181595	0.01681781	-0.28838122
1276816799160	2.6014864	8.894087	-0.6946377	-0.51390934	0.0	-15.75	-53.0625	-6.4375	0.020854713	-0.07482037	-0.28455842
1276816799203	2.6423476	8.812365	-1.1441092	-0.5357952	0.0	-16.0	-53.3125	-8.0	9.372547E-4	-0.12372467	-0.29131502
1276816799240	2.070293	9.043911	-1.3075534	-0.43711853	0.0	-16.25	-53.3125	-9.5	0.22583966	-0.14001074	-0.22503829
1276816799270	2.3018389	8.962189	-1.0351465	-0.4958601	0.0	-16.25	-53.3125	-10.5	0.14789644	-0.1114074	-0.25140485
1276816799300	2.4925237	8.771504	-0.5720546	-0.6699543	0.0	-15.25	-53.3125	-11.3125	0.006557754	-0.06265164	-0.27686346
1276816799330	2.3426998	9.084772	-0.23154591	-0.4218254	0.0	-14.3125	-53.0625	-11.5625	0.04714209	-0.024674878	-0.2523729
1276816799360	1.7297841	9.384419	0.14982383	-0.2629652	0.0	-13.5625	-53.3125	-11.8125	0.32372093	0.015699385	-0.18227912
1276816799390	1.1441092	9.575105	0.19068487	-0.16154861	0.0	-13.0625	-53.5625	-12.0625	0.54232913	0.019771416	-0.118924074
1276816799430	1.4165162	9.343558	-0.10896278	-0.35569954	0.0	-13.0625	-53.3125	-11.8125	0.37683403	-0.011529549	-0.1504578
1276816799470	3.0645783	9.084772	-0.38136974	-0.21133041	0.0	-12.5625	-53.5625	-12.3125	-0.3458209	-0.039755862	-0.3253444
1276816799500	4.630918	9.112013	-0.50395286	0.42702675	0.0	-12.375	-53.3125	-11.8125	-0.7384924	-0.049264483	-0.47020292
1276816799530	5.175732	9.00305	-0.9125633	0.6181221	0.0	-11.375	-54.0625	-12.3125	-0.7918402	-0.08765014	-0.52174896
1276816799570	5.284695	9.384419	-1.3075534	1.0425444	0.0	-10.375	-54.5625	-13.3125	-0.73646647	-0.12081447	-0.5128717
1276816799610	4.2904096	9.80665	-1.2666923	0.9721489	0.0	-9.6875	-54.0625	-13.8125	-0.56924343	-0.117789194	-0.41241047
1276816799640	2.152015	10.228881	-0.3405087	0.651701	0.0	-9.1875	-54.3125	-14.625	-0.13274467	-0.0325643	-0.20736201
1276816799680	1.0760075	10.079058	0.42223078	0.33847046	0.0	-9.6875	-53.8125	-14.125	0.31967545	0.041631125	-0.10635393
1276816799710	0.14982383	9.997335	0.61291564	0.21057606	0.0	-10.375	-53.8125	-13.0625	0.77665234	0.06122441	-0.014985255
1276816799750	-0.42223078	10.18802	-0.040861044	0.3901968	0.0	-11.125	-54.0625	-11.5625	0.84807	-0.0040072342	0.041420147
1276816799790	0.38136974	10.18802	-1.0760075	0.4451294	0.0	-11.625	-54.5625	-9.25	0.56915975	-0.10515179	-0.037415687
1276816799820	1.1168685	9.888372	-0.040861044	0.14468002	0.0	-11.125	-54.5625	-5.6875	0.6948984	-0.0041061	-0.112471
1276816799850	1.4982382	9.302697	0.08172209	-0.3837223	0.0	-10.875	-54.3125	-2.125	0.9064922	0.008672794	-0.15968294
1276816799880	2.1111538	9.043911	-0.50395286	-0.5059366	0.0	-10.375	-54.5625	1.75	-1.0698074	-0.054210875	-0.22932713
1276816799910	0.95342433	8.921328	-1.0351465	-0.7750044	0.0	-8.9375	-54.0625	4.8125	1.1281683	-0.1148657	-0.10646613
1276816799940	-0.9125633	8.812365	-0.9942854	-0.89154243	0.0	-8.1875	-54.0625	6.0625	1.5796431	-0.11176065	0.10318708
1276816799980	-1.9885708	8.662541	-1.4165162	-0.80661964	0.0	-6.25	-54.0625	7.875	1.5545089	-0.1580473	0.22565022
1276816800010	-1.9885708	7.7772183	-1.9477097	-1.5463171	0.0	-4.5	-53.8125	9.125	1.3938978	-0.23803212	0.25032842
1276816800040	-1.334794	6.66035	-1.920469	-2.747604	0.0	-3.3125	-53.3125	9.875	1.2512077	-0.2755309	0.19778879
1276816800082	-0.88532263	6.238119	-1.7297841	-3.2728858	0.0	-2.0625	-53.3125	10.625	1.2049936	-0.2679399	0.14097992
1276816800146	-0.6537767	7.504812	-1.920469	-2.032473	0.0	-1.375	-53.3125	10.375	1.1019621	-0.24961594	0.086894974
1276816800192	-2.4108016	9.00305	-2.8330324	-0.06534958	0.0	-1.5625	-54.0625	9.125	1.182397	-0.295091	0.2616379
1276816800230	-3.1463003	12.53072	-5.706926	4.317342	0.0	-1.8125	-54.5625	7.3125	0.8033258	-0.41594985	0.24600142
1276816800260	-2.3426998	12.571581	-8.267551	5.42113	0.0	-2.3125	-54.5625	5.8125	0.47238988	-0.573917	0.18423568
1276816800290	-2.070293	8.008764	-5.7477865	0.2662573	0.0	-3.3125	-54.875	5.0625	0.5830597	-0.6072587	0.25296572
1276816800321	-1.607201	5.434519	-3.8273177	-2.9681234	0.0	-3.8125	-54.3125	5.8125	0.6767221	-0.5939874	0.28754336
1276816800360	0.313268	8.689782	-1.7570249	-0.93548393	0.0	-4.75	-54.5625	6.5625	0.5635764	-0.19937852	-0.036034554
1276816800400	-1.1441092	12.176591	-0.08172209	2.4238462	0.0	-5.75	-55.125	6.5625	2.0886369	-0.006681879	0.09368468
1276816800441	-2.1383946	10.991621	-0.6946377	1.4125738	0.0	-6.5	-55.125	5.8125	1.719214	-0.06195458	0.19214752
1276816800480	-0.46309182	5.9793324	-0.14982383	-3.8075404	0.0	-7.1875	-54.875	4.5	1.8399907	-0.024976939	0.077294454
1276816800510	3.9499009	9.112013	7.9679036	2.9259062	0.0	-7.4375	-55.125	3.0	-2.742853	0.67614365	-0.40903366
1276816800540	0.95342433	9.724928	-0.08172209	-0.034755707	0.0	-7.4375	-54.5625	1.1875	1.9074141	-0.008363071	-0.09772692
1276816800580	0.3405087	9.615966	-3.0645783	0.29158592	0.0	-7.4375	-54.5625	-1.0625	0.30233455	-0.3083392	-0.035395976
1276816800620	-0.27240697	9.915613	0.6946377	0.13699627	0.0	-7.4375	-54.5625	-3.625	1.590915	0.069914386	0.02746562
1276816800660	0.42223078	8.921328	1.4982382	-0.75054264	0.0	-7.6875	-53.8125	-5.1875	2.212512	0.16620366	-0.04729296
1276816800690	2.8738933	8.008764	1.1441092	-1.221282	0.0	-7.9375	-53.5625	-5.6875	-1.7054672	0.13366032	-0.34453142
1276816800720	3.1463003	8.580819	-0.08172209	-0.66682816	0.0	-8.6875	-53.3125	-5.9375	-1.0094736	-0.008941441	-0.35144478
1276816800760	1.920469	8.771504	-0.6946377	-0.80054	0.0	-8.6875	-53.3125	-5.9375	-1.0094736	-0.008941441	-0.35144478
1276816800800	1.1441092	8.430995	-0.27240697	-1.2940207	0.0	-8.6875	-53.5625	-6.6875	0.1654625	-0.032005794	-0.13487884
1276816800840	1.607201	9.193735	-0.23154591	-0.4706192	0.0	-8.1875	-53.0625	-8.25	-0.11148611	-0.024803866	-0.17306598
1276816800880	2.070293	9.466142	-1.56634	0.009019852	0.0	-7.1875	-52.8125	-9.5	-0.23430595	-0.16026057	-0.2153148
1276816800920	3.3778462	9.343558	-1.879608	0.3049698	0.0	-7.1875	-52.8125	-10.75	-0.5050718	-0.18697345	-0.34689704
1276816800960	4.5219555	9.80665	-0.7218784	1.0164537	0.0	-6.25	-52.5625	-11.8125	-0.82317907	-0.066747464	-0.4320554
1276816800991	2.982856	10.228881	-1.9885708	1.0322542	0.0	-6.0	-53.0625	-12.5625	-0.39195135	-0.18451118	-0.28374296
1276816801030	3.214402	10.228881	-1.6889231	1.0476046	0.0	-5.75	-53.3125	-13.0625	-0.46191865	-0.15623492	-0.30447626
1276816801070	3.2961242	10.269742	-0.23154591	0.9815674	0.0	-5.25	-53.0625	-13.0625	-0.66931725	-0.021464499	-0.31056893
1276816801100	0.040861044	10.841797	-0.42223078	1.0434418	0.0	-5.5	-53.0625	-12.0625	0.35910115	-0.038924776	-0.0037688264
1276816801130	-2.2201166	12.026767	-1.3075534	2.4930143	0.0	-6.0	-53.0625	-10.25	0.78249097	-0.10650932	0.182543
1276816801170	-2.3699405	12.176591	-0.6537767	2.6156454	0.0	-6.5	-53.0625	-7.1875	1.0329273	-0.052653622	0.19222766
1276816801200	-1.4982382	11.985906	-1.0760075	2.320363	0.0	-7.1875	-53.3125	-2.875	1.0724989	-0.088844985	0.124354996
1276816801240	0.42223078	10.310603	-2.6423476	0.84552383	0.0	-6.9375	-53.8125	1.4375	0.37502426	-0.2506742	-0.040928256
1276816801280	3.0237172	8.539958	-3.405087	-0.12840748	0.0	-6.0	-53.5625	6.3125	-0.77173513	-0.35952437	-0.34029338
1276816801310	3.5957718	7.7363577	-1.0351465	-1.2129126	0.0	-4.75	-53.0625	10.375	-1.8025872	-0.12074678	-0.43508396
1276816801340	0.6946377	6.2789803	-1.0351465	-3.4051156	0.0	-2.8125	-51.5	13.4375	-2.6150987	-0.16241598	-0.110181026
1276816801370	-2.070293	5.012288	-2.0294318	-4.016336	0.0	-2.0625	-50.0	15.5	1.5040047	-0.35809138	0.39169994
1276816801410	-1.7570249	4.399372	-2.7513103	-4.328391	0.0	-1.375	-49.0	16.75	1.1756223	-0.52616817	0.3799725
1276816801450	-0.10896278	5.012288	-2.3426998	-4.272832	0.0	-0.625	-47.9375	17.8125	0.38224936	-0.43713143	0.021735705
1276816801490	-0.19068487	5.2165933	-2.7240696	-3.9185467	0.0	-0.375	-47.9375	17.3125	0.30265316	-0.48097026	0.036537256
1276816801520	-0.19068487	7.3141265	-5.175732	-0.84445095	0.0	-0.375	-48.4375	15.75	0.10800662	-0.6156716	0.026064862
1276816801550	0.38136974	10.56939	-7.7772183	3.3212805	0.0	-0.625	-49.5	13.6875	-0.06334912	-0.63405657	-0.036066826
1276816801590	2.152015	13.824653	-12.026767	8.643154	0.0	-1.8125	-50.5	10.875	-0.23962541	-0.71004015	-0.15442567
1276816801620	-1.334794	10.95076	-11.836082	6.3733883	0.0	-2.8125	-51.0	9.375	0.28676498	-0.82055414	0.1212922
1276816801650	-3.5957718	11.495573	-2.070293	2.4148016	0.0	-3.3125	-51.0	8.875	1.6071599	-0.17021911	0.3031547
1276816801680	-3.5957718	12.258313	0.88532263	2.9988022	0.0	-3.0625	-50.75	8.125	2.1559987	0.069191575	0.2853294
1276816801710	-2.7240696	7.5456724	0.7218784	-1.7519102	0.0	-1.5625	-50.25	8.125	2.156014	0.089741975	0.34645018
1276816801740	-0.3405087	4.399372	0.95342433	-5.292291	0.0	-0.375	-50.5	7.3125	2.9057891	0.2128006	0.077245384
1276816801780	3.759216	7.273266	3.5957718	-0.864521	0.0	0.875	-50.25	6.5625	-2.3550985	0.41382658	-0.47703966
1276816801820	4.372132	10.760075	3.0237172	2.1949167	0.0	1.125	-50.0	5.0625	-2.2628398	0.25468805	-0.3859506
1276816801860	-0.7627395	9.343558	-4.140586	0.44168186	0.0	0.875	-50.25	2.0	0.17273779	-0.4159131	0.08145205
1276816801900	0.92618364	9.466142	-1.879608	-0.11136341	0.0	0.375	-50.25	-0.8125	-0.46544704	-0.19510366	-0.09753129
1276816801930	1.4573772	9.615966	-2.0294318	0.1286068	0.0	-0.125	-50.5	-3.875	-0.48879442	-0.2057135	-0.15041338
1276816801960	2.3018389	8.730643	-1.9477097	-0.5699749	0.0	-0.875	-50.5	-5.6875	-0.6475391	-0.21246178	-0.2577844
1276816801990	2.152015	8.008764	-0.84446156	-1.4709091	0.0	-1.375	-49.75	-6.1875	-0.8085022	-0.10148021	-0.26250675
1276816802020	0.61291564	8.076866	-0.42223078	-1.6955652	0.0	-1.8125	-49.5	-6.9375	-0.20116888	-0.05207956	-0.075740166
1276816802050	-0.29964766	8.390134	-0.3405087	-1.4042645	0.0	-2.0625	-48.75	-7.1875	0.39361903	-0.04053634	0.035699114
1276816802090	0.313268	8.771504	-0.61291564	-1.0081787	0.0	-2.0625	-48.1875	-8.0	0.030086963	-0.06971807	-0.03569911
1276816802130	2.5333846	10.038197	-1.4573772	0.6483669	0.0	-1.8125	-48.1875	-9.25	-0.56769544	-0.13985042	-0.2472122
1276816802170	3.568531	10.378705	-0.14982383	1.1694317	0.0	-0.625	-47.1875	-10.25	-0.93616146	-0.013650452	-0.33116943
1276816802210	4.5219555	10.269742	-1.2258313	1.4813232	0.0	-0.375	-46.4375	-11.5625	-0.8503701	-0.10881081	-0.41477352
1276816802250	3.8681788	11.563675	-0.5720546	2.400259	0.0	0.125	-45.9375	-11.8125	-0.81525844	-0.046880353	-0.32281026
1276816802290	1.9885708	11.182305	0.7218784	1.5740118	0.0	0.125	-45.125	-11.3125	-0.7581724	0.063472874	-0.1759921
1276816802320	-2.6832085	11.686258	-0.8036005	2.2105885	0.0	-0.875	-44.875	-10.0	0.70174557	-0.066920586	0.22569199
1276816802350	-3.5957718	12.026767	-0.23154591	2.7482815	0.0	-0.875	-45.4375	-8.5	0.97976106	-0.018443672	0.29052144
1276816802390	-2.2201166	11.686258	-0.10896278	2.0891237	0.0	-0.625	-45.125	-6.4375	0.92269516	-0.009159918	0.18773945
1276816802431	-0.6537767	10.269742	-1.3756552	0.57542324	0.0	-0.375	-44.875	-3.375	0.33461678	-0.13289377	0.06357469
1276816802470	0.23154591	8.117727	-2.0294318	-1.4358854	0.0	0.875	-44.875	-0.8125	-0.18272394	-0.244883	-0.02851576
1276816802510	1.4165162	7.8180795	-1.2258313	-1.7672758	0.0	2.3125	-43.625	2.75	-1.212486	-0.15307556	-0.17924018
1276816802550	-0.53119355	6.5513873	-0.88532263	-3.174408	0.0	3.0625	-42.875	6.3125	2.4694757	-0.13388734	0.0809041
1276816802590	-1.920469	4.862464	-2.2201166	-4.126802	0.0	3.8125	-42.0625	8.125	0.9585657	-0.40158316	0.3761523
1276816802630	-0.88532263	3.0645783	-1.920469	-6.0832596	0.0	4.25	-41.0625	10.375	0.5448587	-0.5419237	0.2812322
1276816802670	-1.0351465	3.336985	-3.0645783	-5.159217	0.0	3.8125	-40.8125	10.375	0.42545334	-0.72003776	0.3007919
1276816802700	-1.3075534	7.8589406	-7.7363577	1.2984781	0.0	3.5625	-41.0625	9.625	0.14740361	-0.7707135	0.16486762
1276816802740	-0.27240697	14.941522	-10.841797	8.655956	0.0	3.3125	-41.8125	8.375	-0.14223002	-0.6276324	0.018229522
1276816802780	-2.2201166	12.639683	-12.9529505	8.4270935	0.0	2.5625	-42.625	6.3125	0.18656027	-0.79004294	0.17387293
1276816802820	-2.8738933	11.645397	-5.7886477	3.5118704	0.0	2.0625	-43.125	5.8125	0.563722	-0.44962898	0.2419492
1276816802860	-0.7627395	11.114203	2.7921712	1.6782751	0.0	2.8125	-43.125	5.5625	3.132367	0.24557714	0.06852001
1276816802900	-3.486809	2.0294318	0.7627395	-5.700776	0.0	3.3125	-42.875	5.8125	1.8527104	0.18685327	1.0436939
1276816802930	-1.6480621	5.284695	3.486809	-3.2643304	0.0	4.25	-42.875	5.8125	2.833978	0.56209755	0.30229774
1276816802960	2.2201166	11.223166	5.09401	2.7168198	0.0	5.75	-43.125	5.3125	-2.5663695	0.41890138	-0.19529422
1276816803000	7.3549876	14.669114	-3.8681788	7.0528145	0.0	6.0	-43.375	3.25	-1.3674009	-0.23149884	-0.4647612
1276816803030	0.8036005	7.3549876	-2.1111538	-2.1125884	0.0	6.75	-43.375	0.9375	-0.81666106	-0.2779526	-0.10882758
1276816803060	-2.2609777	7.273266	-0.38136974	-2.1805205	0.0	6.9375	-43.625	-1.3125	1.0657433	-0.050029162	0.3013914
1276816803100	-1.2258313	8.499097	-1.4573772	-1.0968132	0.0	6.75	-43.875	-3.625	-0.037936643	-0.16811621	0.14324294
1276816803140	1.7570249	8.730643	-1.1441092	-0.82777214	0.0	6.5	-43.875	-5.4375	-0.95160806	-0.12776966	-0.19859532
1276816803170	0.42223078	8.240311	-2.4516625	-1.1989994	0.0	5.75	-43.875	-6.6875	-0.4016321	-0.28882247	-0.051194895
1276816803200	1.334794	9.043911	-2.3018389	-0.37943077	0.0	5.5	-43.375	-7.6875	-0.58605325	-0.24666312	-0.1465325
1276816803240	0.95342433	8.349273	-0.95342433	-1.3492041	0.0	5.5	-43.375	-9.0	-0.6475793	-0.112972096	-0.113699995
1276816803280	0.7627395	9.915613	-1.1168685	0.20077515	0.0	5.75	-42.625	-9.75	-0.5592435	-0.11183697	-0.07677189
1276816803310	2.7649305	11.304889	-0.9125633	1.8671722	0.0	6.9375	-42.375	-11.0625	-0.8721249	-0.0782516	-0.23986942
1276816803340	4.0180025	11.413852	-1.1441092	2.347746	0.0	7.9375	-42.625	-12.0625	-0.94786847	-0.094270885	-0.3384809
1276816803380	3.0645783	10.651112	-1.6889231	1.4045172	0.0	8.6875	-42.0625	-12.8125	-0.8266901	-0.15122221	-0.28015652
1276816803420	0.95342433	10.841797	-2.1792557	1.2930222	0.0	8.9375	-42.375	-13.5625	-0.53199744	-0.1976189	-0.08771405
1276816803460	5.09401	10.147159	0.50395286	1.558548	0.0	9.1875	-42.875	-12.8125	-1.1807522	0.0443563	-0.46525705
1276816803500	1.0351465	10.651112	-0.8036005	0.92477417	0.0	7.9375	-42.875	-12.5625	-0.6555913	-0.074953094	-0.09688244
1276816803530	-2.5606253	12.408136	0.88532263	2.8938408	0.0	6.9375	-42.875	-11.3125	0.22275418	0.06976433	0.20350976
1276816803560	-3.718355	13.484144	-1.3756552	4.248268	0.0	6.5	-44.125	-9.5	0.37731913	-0.09803409	0.2690704
1276816803600	-1.2258313	12.598822	-1.879608	2.9904547	0.0	5.0	-44.625	-6.9375	-0.04863635	-0.1474109	0.09699199
1276816803640	2.1111538	9.765789	-2.1111538	0.4053316	0.0	5.75	-45.4375	-4.125	-0.8652276	-0.20823465	-0.21290234
1276816803680	1.2666923	7.6954966	-0.88532263	-1.9575119	0.0	6.25	-46.1875	-0.5625	-1.182908	-0.11303287	-0.16313891
1276816803720	0.53119355	6.0882955	-0.23154591	-3.6908412	0.0	7.1875	-45.4375	2.75	-1.6657352	-0.03786928	-0.087027945
1276816803760	-0.95342433	4.1814466	-0.10896278	-5.5165005	0.0	8.4375	-44.875	5.0625	2.720065	-0.025401095	0.22418043
1276816803790	-1.6480621	3.8681788	-0.23154591	-5.5956492	0.0	8.9375	-44.125	7.875	2.110771	-0.0550137	0.40276504
1276816803820	-1.7570249	3.568531	-0.95342433	-5.7163486	0.0	9.6875	-43.625	8.875	1.430893	-0.23525801	0.45752212
1276816803860	-1.525479	4.630918	-3.3642259	-3.8829265	0.0	9.6875	-43.625	8.875	1.430893	-0.23525801	0.45752212
1276816803900	-2.3018389	12.340035	-9.043911	5.6648483	0.0	9.4375	-44.125	7.3125	-0.057984315	-0.62432903	0.1844148
1276816803945	-1.56634	16.930092	-13.1708765	11.700405	0.0	8.9375	-45.125	5.0625	-0.194935	-0.6590903	0.09225547
1276816803980	-1.6889231	4.8216033	-8.499097	0.10974884	0.0	8.4375	-45.9375	4.25	0.19098954	-1.0295649	0.33692646
1276816804010	-3.2961242	10.882658	-3.214402	2.0098238	0.0	8.1875	-46.4375	3.75	0.552331	-0.27549902	0.2940956
1276816804040	-1.6480621	16.08563	-1.1441092	6.403612	0.0	8.1875	-46.4375	4.5	-1.9009994	-0.07063805	0.1020993
1276816804080	-4.7943625	6.3198414	2.1111538	-1.5979185	0.0	8.6875	-46.1875	5.5625	2.2276967	0.26010698	0.6489956
1276816804120	-1.7570249	5.243834	1.6889231	-4.0241427	0.0	8.9375	-45.9375	5.3125	2.8242252	0.29639524	0.3233082
1276816804160	1.7978859	9.234595	3.173541	0.1221714	0.0	9.6875	-45.9375	4.8125	-2.3587298	0.32533813	-0.19228488
1276816804190	5.175732	13.443283	-2.7240696	4.853863	0.0	10.625	-45.9375	2.5	-1.3910851	-0.18689615	-0.36751327
1276816804230	2.9147544	8.962189	-4.7535014	0.7485571	0.0	11.125	-45.6875	-0.0625	-0.93930906	-0.46715346	-0.31443807
1276816804270	-2.7240696	6.932757	-1.4165162	-2.2244215	0.0	10.875	-46.1875	-3.375	0.51044464	-0.18792473	0.3743944
1276816804310	-0.19068487	8.281172	-1.2258313	-1.4330711	0.0	10.375	-46.6875	-6.1875	-0.62126064	-0.14692074	0.023022246
1276816804340	1.7297841	7.8589406	0.313268	-1.7535	0.0	9.1875	-46.6875	-7.6875	-1.2657741	0.038909875	-0.21664949
1276816804370	-0.23154591	8.117727	-2.0294318	-1.4358854	0.0	8.1875	-46.6875	-10.25	-0.31107032	-0.244883	0.02851576
1276816804400	-1.0760075	9.888372	-3.9090397	0.88064575	0.0	8.4375	-46.1875	-11.8125	-0.120020285	-0.37445474	0.10838896
1276816804444	-0.3405087	10.337844	-2.3699405	0.8048334	0.0	8.4375	-45.4375	-13.3125	-0.2907804	-0.22523695	0.032926172
1276816804480	1.920469	10.732834	-0.27240697	1.1000509	0.0	9.6875	-44.875	-14.875	-0.83059037	-0.024978707	-0.17706022
1276816804510	3.9090397	10.991621	-0.95342433	1.8982782	0.0	10.875	-44.375	-15.625	-0.9312494	-0.0815453	-0.3416888
1276816804540	4.6036777	10.378705	-0.8036005	1.5756674	0.0	11.375	-43.875	-16.375	-0.9816143	-0.07065956	-0.41749352
1276816804570	1.7978859	11.073342	-1.7570249	1.5484562	0.0	11.875	-44.125	-16.625	-0.6878616	-0.15535855	-0.16095708
1276816804610	1.56634	11.413852	-0.46309182	1.7234793	0.0	11.125	-44.375	-16.625	-0.749742	-0.040174436	-0.13637964
1276816804640	0.27240697	11.141444	0.61291564	1.3549652	0.0	10.625	-44.875	-15.375	-0.73735076	0.054940443	-0.024445008
1276816804670	-2.7240696	12.258313	0.53119355	2.76192	0.0	9.875	-45.4375	-13.5625	0.018722558	0.042276233	0.21866894
1276816804700	-3.6774938	13.211738	-0.53119355	3.9176397	0.0	9.1875	-46.1875	-11.5625	0.25841862	-0.038714297	0.27147847
1276816804740	-2.9556155	13.293459	-2.8330324	4.1029787	0.0	9.1875	-46.9375	-8.0	0.069246314	-0.20510931	0.21877745
1276816804770	0.19068487	10.991621	-2.1792557	1.4005461	0.0	9.1875	-47.4375	-4.375	-0.63856524	-0.19569822	-0.017346464
1276816804810	1.879608	7.8861814	-0.8036005	-1.6598377	0.0	9.875	-47.9375	-0.3125	-1.348434	-0.098800525	-0.23397668
1276816804850	0.7218784	5.47538	-0.42223078	-4.2677717	0.0	10.875	-47.1875	4.25	-1.616767	-0.0763044	-0.13108477
1276816804890	-1.1441092	4.5219555	-1.3075534	-4.9623995	0.0	11.875	-47.6875	7.0625	0.028563065	-0.2733085	0.24781153
1276816804920	-1.334794	3.568531	-1.56634	-5.6872435	0.0	12.125	-47.4375	9.375	0.49118048	-0.39004967	0.35793385
1276816804950	-0.9125633	3.718355	-1.56634	-5.669942	0.0	12.375	-47.4375	9.875	-0.07539882	-0.38833082	0.24066463
1276816804990	-0.84446156	3.718355	-1.879608	-5.5555086	0.0	12.125	-47.9375	9.375	-0.08954391	-0.4579853	0.22331828
1276816805020	-1.9477097	6.932757	-4.1814466	-1.4795151	0.0	11.375	-47.4375	8.375	0.10861972	-0.5260798	0.27388296
1276816805050	-1.8387469	13.525005	-8.308413	6.1726017	0.0	10.875	-47.6875	6.3125	-0.21488757	-0.54679245	0.13512324
1276816805090	0.313268	18.305748	-15.213928	13.998016	0.0	9.875	-48.4375	4.8125	-0.37557504	-0.6933476	-0.017111424
1276816805130	-0.38136974	6.4015636	-10.269742	2.300912	0.0	9.1875	-49.25	3.75	-0.15413766	-1.0125945	0.059504133
1276816805160	-0.6946377	6.510526	-0.84446156	-3.2049394	0.0	8.6875	-49.75	3.75	-0.88914627	-0.12826699	0.10629244
1276816805201	-1.2258313	12.4489975	-0.14982383	2.7034512	0.0	8.9375	-50.5	4.8125	-2.387368	-0.011976514	0.09815186
1276816805240	-5.053149	10.923519	-2.070293	2.4057903	0.0	9.6875	-50.25	5.8125	1.3553772	-0.17034592	0.43327722
1276816805281	-0.6946377	6.782933	0.27240697	-2.9828014	0.0	10.125	-50.25	6.5625	-2.6187558	0.039930455	0.10205386
1276816805310	3.1054392	8.390134	2.7921712	-0.43465328	0.0	11.375	-50.25	5.8125	-2.1506767	0.30252033	-0.35449415
1276816805341	2.8738933	10.18802	0.61291564	0.7966833	0.0	11.625	-50.25	4.25	-1.8401937	0.05783629	-0.2749416
1276816805380	-0.38136974	8.390134	-3.3642259	-0.75912	0.0	11.375	-50.75	1.75	-0.47956422	-0.38098943	0.045423284
1276816805420	-0.9942854	7.8180795	-1.7570249	-1.7321157	0.0	11.125	-51.25	-1.625	-0.33916816	-0.21935566	0.12649861
1276816805460	-0.5720546	7.8861814	0.27240697	-1.8950567	0.0	9.6875	-51.8125	-4.375	-1.1609722	0.03443817	0.07241203
1276816805506	-0.7627395	8.499097	-0.84446156	-1.2317142	0.0	8.6875	-51.8125	-7.6875	-0.30422035	-0.0986401	0.08950382
1276816805540	0.6537767	10.310603	-3.2961242	1.0377216	0.0	8.6875	-51.25	-10.75	-0.4352497	-0.30883393	-0.063323416
1276816805580	0.7627395	9.425281	-1.1168685	-0.2848282	0.0	8.6875	-50.75	-13.0625	-0.595459	-0.11756631	-0.08074889
1276816805610	3.2961242	9.425281	-1.4982382	0.29013443	0.0	9.875	-50.25	-14.625	-0.8892583	-0.14893767	-0.33641732
1276816805641	2.7921712	10.460427	-0.6537767	1.0397396	0.0	11.375	-50.0	-15.375	-0.92280203	-0.060312536	-0.26084548
1276816805680	2.3699405	10.147159	0.53119355	0.6271219	0.0	11.875	-49.75	-15.375	-1.053215	0.050933	-0.2294441
1276816805710	1.4573772	9.425281	-0.46309182	-0.25812626	0.0	13.0625	-49.5	-15.875	-0.8459661	-0.04851782	-0.15340936
1276816805750	0.23154591	10.038197	-1.3756552	0.32801437	0.0	13.0625	-49.0	-16.125	-0.56094664	-0.13615793	-0.023062395
1276816805790	1.5390993	11.604536	-0.0	1.8995056	0.0	12.8125	-49.25	-16.125	-0.87162644	-0.0	-0.13185954
1276816805830	0.040861044	10.841797	-0.0	1.035224	0.0	12.125	-50.25	-15.625	-0.66745186	-0.0	-0.0037688264
1276816805870	-2.6832085	12.299174	-0.53119355	2.7930107	0.0	10.625	-51.25	-13.8125	0.033911135	-0.04217185	0.21479619
1276816805910	-1.9477097	11.985906	-1.920469	2.487402	0.0	9.875	-52.5625	-11.3125	-0.067313634	-0.15685363	0.16109191
1276816805944	-1.0351465	9.112013	-1.9885708	-0.42290306	0.0	8.9375	-53.0625	-7.4375	-0.15373987	-0.21353558	0.11311744
1276816805980	0.50395286	8.430995	-1.334794	-1.255784	0.0	9.6875	-53.3125	-2.875	-0.860314	-0.15674147	-0.05970279
1276816806010	1.1441092	8.430995	-0.46309182	-1.2857866	0.0	10.375	-53.3125	0.4375	-1.4364543	-0.05437478	-0.13487884
1276816806040	0.38136974	8.730643	-0.42223078	-1.0574875	0.0	10.625	-53.0625	3.0	-1.6063983	-0.048278317	-0.04365399
1276816806080	-1.607201	9.00305	-0.6946377	-0.63492584	0.0	11.125	-53.0625	5.0625	-2.0964518	-0.075809464	0.17665648
1276816806120	-4.099725	9.915613	0.19068487	0.9247751	0.0	10.875	-53.0625	6.3125	2.1880102	0.017769765	0.39205703
1276816806160	-5.434519	8.662541	1.1168685	0.4802847	0.0	10.875	-52.8125	8.125	2.1943521	0.108785994	0.56029356
1276816806190	-3.173541	4.372132	0.5720546	-4.3739576	0.0	10.625	-52.5625	9.875	2.1620438	0.10549411	0.6278695
1276816806230	-1.0760075	5.7477865	-0.95342433	-3.8817992	0.0	10.125	-52.0625	11.4375	-3.007236	-0.16162229	0.1850618
1276816806270	0.6946377	8.499097	-3.1054392	-0.7313585	0.0	9.6875	-51.25	11.9375	-1.1619596	-0.3492425	-0.08154951
1276816806302	0.92618364	9.466142	-8.662541	3.0582352	0.0	9.4375	-51.0	11.9375	-0.5259984	-0.73872757	-0.09753129
1276816806340	1.2258313	10.61025	-11.114203	5.60781	0.0	9.875	-51.0	11.9375	-0.5186708	-0.80527973	-0.11502278
1276816806380	-0.42223078	9.343558	-5.8567495	1.2288322	0.0	10.625	-50.75	12.1875	-0.45923257	-0.55944973	0.04515878
1276816806410	-1.2666923	8.812365	-3.445948	-0.26008892	0.0	11.125	-50.5	12.6875	-0.5136982	-0.36929947	0.14276248
1276816806440	-3.214402	6.4424243	-6.0882955	-0.37772846	0.0	11.875	-50.0	13.6875	0.4913093	-0.7019453	0.4628016
1276816806480	-4.099725	7.5456724	-6.932757	1.2300177	0.0	11.625	-50.0	13.9375	0.59355503	-0.6791819	0.49770117
1276816806510	-4.099725	9.343558	-6.428804	2.2531729	0.0	12.125	-50.0	13.4375	0.52165395	-0.5622322	0.41348052
1276816806540	-4.140586	6.701211	-2.6423476	-1.4980593	0.0	12.8125	-50.0	13.4375	1.3826151	-0.3236466	0.5534674
1276816806570	-2.6423476	5.7477865	-2.1111538	-3.1376157	0.0	12.8125	-50.0	12.9375	1.1804603	-0.32210147	0.43090403
1276816806610	1.1441092	9.847511	-1.8387469	0.2761793	0.0	13.5625	-50.0	12.9375	-1.773197	-0.18339042	-0.115664005
1276816806640	1.0351465	9.724928	-1.3756552	0.06949139	0.0	12.5625	-50.25	12.6875	-1.8850553	-0.13974515	-0.1060433
1276816806670	-0.10896278	8.689782	-2.4108016	-0.7879944	0.0	12.125	-50.75	11.9375	-1.3897699	-0.2706032	0.012538527
1276816806700	0.14982383	7.8589406	-0.38136974	-1.9370356	0.0	11.625	-51.25	11.1875	-2.1752143	-0.04848003	-0.019061817
1276816806730	0.14982383	9.80665	-1.2258313	0.07745266	0.0	11.375	-51.8125	9.375	-1.8047452	-0.12434064	-0.015276589
1276816806760	0.10896278	11.454713	-2.9556155	2.0237331	0.0	12.125	-52.5625	7.3125	-1.1257205	-0.2525074	-0.009512198
1276816806800	0.10896278	8.921328	-1.6889231	-0.7262087	0.0	11.875	-53.3125	5.5625	-1.231356	-0.18708515	-0.012213133
1276816806840	0.46309182	7.668256	-0.7218784	-2.090582	0.0	12.125	-53.3125	3.0	-1.4458767	-0.09369222	-0.06031751
1276816806880	1.9477097	8.076866	-1.7570249	-1.3145084	0.0	11.125	-53.3125	0.9375	-1.1924726	-0.20840542	-0.23662895
1276816806920	1.7297841	8.19945	-0.9942854	-1.3679457	0.0	10.125	-53.5625	-0.8125	-1.259909	-0.11809875	-0.20791477
1276816806950	0.7627395	8.390134	-0.95342433	-1.3281393	0.0	9.4375	-53.3125	-3.125	-1.0077271	-0.11269022	-0.090659894
1276816806980	-0.61291564	9.084772	-1.9477097	-0.49524212	0.0	8.1875	-53.8125	-5.4375	-0.26637125	-0.21073076	0.06736418
1276816807010	-0.61291564	10.119919	-2.7513103	0.6984978	0.0	7.9375	-53.8125	-7.6875	-0.21279584	-0.2649916	0.06049138
1276816807040	0.88532263	11.223166	-2.6832085	1.7667189	0.0	7.6875	-53.5625	-10.0	-0.4956129	-0.23397222	-0.07872049
1276816807080	1.7570249	11.563675	-1.1168685	1.9429502	0.0	7.9375	-54.0625	-11.5625	-0.76971847	-0.09519961	-0.1507901
1276816807111	2.8738933	11.182305	-0.27240697	1.7422647	0.0	8.1875	-53.8125	-12.3125	-1.0067354	-0.023589423	-0.2515594
1276816807150	0.46309182	10.56939	-1.1441092	0.8345642	0.0	8.6875	-54.3125	-12.3125	-0.54998916	-0.107725024	-0.04378643
1276816807190	1.9885708	11.223166	-1.9477097	1.7565441	0.0	9.4375	-53.8125	-12.0625	-0.7380912	-0.16924731	-0.17536443
1276816807220	4.944186	11.141444	-0.14982383	2.3834772	0.0	8.9375	-53.3125	-11.5625	-1.1845614	-0.012290897	-0.41765705
1276816807250	2.3018389	10.991621	0.3405087	1.4285688	0.0	8.9375	-54.0625	-10.0	-1.1680757	0.030311901	-0.20643432
1276816807290	-1.3075534	11.073342	1.4573772	1.4384623	0.0	8.4375	-54.3125	-8.25	-1.0848482	0.12996651	0.117536925
1276816807331	-4.4810944	12.639683	-0.19068487	3.605216	0.0	7.4375	-55.375	-4.625	1.1314359	-0.014218102	0.34070104
1276816807370	-4.3312707	12.217452	-1.920469	3.297328	0.0	7.4375	-55.625	-0.5625	0.9316252	-0.14708596	0.34069148
1276816807410	-0.6537767	11.182305	-1.9885708	1.5698948	0.0	8.4375	-54.875	4.5	-0.78438234	-0.17569824	0.05839881
1276816807440	1.5390993	9.043911	-0.6537767	-0.6094456	0.0	9.4375	-52.8125	10.125	-1.9149846	-0.07114428	-0.1685658
1276816807480	0.88532263	6.3607025	-1.3075534	-3.2528706	0.0	10.625	-50.5	15.25	-1.8628254	-0.20085922	-0.1382978
1276816807510	-0.0	3.9090397	-1.334794	-5.6760006	0.0	12.125	-48.4375	19.8125	-1.8208936	-0.32904968	0.0
1276816807540	-0.8036005	3.445948	-1.0760075	-6.1082554	0.0	12.8125	-46.9375	22.375	-2.896293	-0.29520822	0.22910699
1276816807580	-2.1383946	3.445948	-0.95342433	-5.64056	0.0	13.3125	-46.1875	23.6875	2.3338125	-0.23089978	0.55539536
1276816807620	-1.879608	3.8273177	-4.399372	-3.6800065	0.0	13.3125	-46.1875	23.375	0.4432646	-0.8010284	0.4565049
1276816807650	-1.4982382	9.466142	-7.6546354	2.458994	0.0	12.375	-46.9375	21.875	-0.3582716	-0.6739423	0.15697128
1276816807690	0.23154591	13.947236	-13.988097	9.947992	0.0	11.125	-47.9375	20.0625	-0.54541683	-0.786792	-0.016600037
1276816807720	1.4573772	8.076866	-10.147159	3.244194	0.0	10.625	-49.0	19.3125	-0.67608494	-0.89069617	-0.1785176
1276816807760	-4.140586	6.238119	-4.862464	-0.87904453	0.0	10.375	-49.5	18.5625	1.0795763	-0.57597756	0.58598447
1276816807800	-3.9090397	16.630445	0.53119355	7.2852917	0.0	10.375	-49.25	18.3125	3.0827956	0.0310836	0.2308624
1276816807840	-6.851035	5.175732	-2.1111538	-0.9645996	0.0	10.125	-48.1875	18.8125	1.8537366	-0.24109174	0.9238054
1276816807880	-1.607201	5.7886477	2.3018389	-3.3731441	0.0	9.6875	-47.6875	18.3125	3.0425982	0.3658993	0.2708255
1276816807920	4.3312707	11.645397	6.4015636	4.1703024	0.0	9.6875	-47.6875	17.0	-2.4947867	0.47575364	-0.3560763
1276816807950	5.597963	14.09706	-4.1814466	5.9270334	0.0	9.875	-48.4375	14.5	-1.6806111	-0.26899633	-0.37800515
1276816807990	-1.4573772	6.932757	-2.070293	-2.4260554	0.0	9.4375	-49.5	10.875	0.2510681	-0.28432006	0.20719917
1276816808020	-3.2961242	7.273266	-0.7218784	-1.7887983	0.0	8.4375	-50.5	6.5625	1.7276276	-0.090155974	0.4254982
1276816808050	-0.88532263	8.008764	1.1168685	-1.6720638	0.0	7.4375	-51.0	3.25	-2.9694903	0.13773382	0.110097215
1276816808080	0.313268	8.308413	-0.53119355	-1.4753828	0.0	6.5	-50.75	0.9375	-1.3057295	-0.06380231	-0.037687067
1276816808111	0.19068487	9.00305	-3.486809	-0.15009212	0.0	6.0	-51.0	-1.625	-0.34206003	-0.36942786	-0.021176863
1276816808150	2.0294318	10.337844	-4.372132	1.5997143	0.0	6.75	-51.0	-2.875	-0.6566641	-0.39337343	-0.19384588
1276816808190	3.0645783	9.888372	-1.4573772	0.64779854	0.0	6.75	-51.0	-4.375	-1.1044714	-0.13985808	-0.30053025
1276816808220	1.8387469	10.732834	-1.1168685	1.139679	0.0	7.1875	-50.5	-5.9375	-0.962953	-0.102209195	-0.16967261
1276816808260	2.9147544	10.528529	-1.7297841	1.253995	0.0	8.1875	-50.25	-6.1875	-1.0111047	-0.15703551	-0.27007926
1276816808300	-0.42223078	11.563675	-1.334794	1.8414631	0.0	8.1875	-50.25	-7.4375	-0.4489624	-0.11484545	0.036497332
1276816808340	1.879608	12.340035	0.7627395	2.6989956	0.0	8.1875	-49.5	-7.6875	-1.2734876	0.06102949	-0.15115605
1276816808380	-1.879608	11.727119	-0.50395286	2.0808315	0.0	7.4375	-49.75	-6.6875	0.060015745	-0.042406283	0.15892705
1276816808420	-2.9556155	12.762266	1.7978859	3.4161892	0.0	7.1875	-49.75	-4.375	2.1011791	0.1363907	0.22757815
1276816808450	-4.7126403	14.818938	-2.4108016	5.9293556	0.0	6.9375	-49.5	-0.3125	0.8181513	-0.15380862	0.30790105
1276816808480	-2.4108016	12.871228	-2.2609777	3.4821606	0.0	7.6875	-49.75	4.0	0.33401847	-0.17097324	0.18515629
1276816808510	0.8036005	9.507003	-1.4982382	-0.14882469	0.0	8.9375	-48.75	8.375	-1.6363791	-0.15576111	-0.08432677
1276816808540	1.6480621	6.932757	-0.53119355	-2.6609244	0.0	9.875	-47.4375	11.9375	-1.9684466	-0.07440588	-0.23338902
1276816808570	0.88532263	5.7886477	-0.29964766	-3.9430313	0.0	11.625	-45.6875	15.25	-2.1863563	-0.051125124	-0.15176515
1276816808600	-0.6946377	3.9090397	-0.38136974	-5.818097	0.0	12.375	-44.625	17.8125	-2.8241975	-0.09576235	0.17586456
1276816808630	-1.3075534	2.9147544	-0.6946377	-6.537398	0.0	13.5625	-43.625	19.3125	2.6059268	-0.21410814	0.42168754
1276816808660	-1.2258313	2.5333846	-0.95342433	-6.835166	0.0	14.0625	-42.875	20.0625	2.2291317	-0.3266352	0.45066136
1276816808690	-0.7627395	1.879608	-0.88532263	-7.593396	0.0	14.3125	-42.625	19.3125	1.480016	-0.41152716	0.38549387
1276816808720	-1.0760075	3.1054392	-2.6014864	-5.6150784	0.0	14.3125	-42.375	18.3125	0.026088826	-0.6695676	0.33354557
1276816808760	-1.2258313	9.425281	-6.4015636	1.6527824	0.0	13.8125	-43.125	16.5	-0.62822515	-0.5927311	0.12933186
1276816808800	-2.9147544	19.000385	-15.173067	14.682785	0.0	13.0625	-44.125	14.25	-0.34957066	-0.66820246	0.15221837
1276816808840	-2.7921712	5.434519	-11.536434	3.2478333	0.0	12.5625	-45.4375	13.4375	0.2711482	-1.0837399	0.47461423
1276816808880	-4.399372	6.8237944	-1.4573772	-1.5578566	0.0	13.3125	-45.9375	12.4375	1.8646046	-0.17760994	0.5726478
1276816808920	-2.7921712	14.628253	-0.6537767	5.1000404	0.0	13.8125	-46.1875	12.6875	-2.706966	-0.04387201	0.18860656
1276816808950	-3.718355	8.076866	0.6946377	-0.8878803	0.0	14.5625	-45.9375	13.1875	2.800848	0.07796389	0.43144488
1276816808990	-1.334794	6.891896	1.3075534	-2.6659503	0.0	14.8125	-45.4375	12.6875	-2.8695188	0.18415183	0.19130737
1276816809020	1.1168685	7.504812	1.6480621	-2.042263	0.0	14.5625	-45.4375	12.6875	-2.3653693	0.21388619	-0.14773601
1276816809050	3.5276701	9.112013	2.2609777	0.22257042	0.0	14.3125	-45.6875	11.6875	-2.1572244	0.22739364	-0.36937562
1276816809090	4.630918	12.258313	-3.718355	3.8145761	0.0	14.5625	-45.9375	9.625	-1.535087	-0.27649185	-0.36120373
1276816809120	-2.070293	6.5513873	-2.982856	-2.3163753	0.0	14.0625	-46.9375	7.0625	0.05628872	-0.409587	0.30607787
1276816809160	-2.5606253	7.3958488	-1.4982382	-1.8379555	0.0	13.5625	-47.6875	4.25	0.49727723	-0.18914123	0.33330753
1276816809190	0.8036005	7.1234417	0.38136974	-2.6278868	0.0	13.0625	-47.9375	1.75	-1.7957749	0.05314973	-0.11233577
1276816809220	-0.14982383	7.205164	-0.42223078	-2.5875702	0.0	11.625	-48.1875	0.1875	-1.3267419	-0.05852157	0.020790955
1276816809260	0.50395286	9.00305	-4.2904096	0.17916393	0.0	11.125	-48.1875	-1.625	-0.5628931	-0.44410565	-0.05591744
1276816809290	2.6014864	10.460427	-1.4165162	1.0650921	0.0	11.125	-48.1875	-3.125	-1.1952571	-0.13066489	-0.2437528
1276816809320	1.2666923	11.985906	1.2666923	2.3123827	0.0	11.375	-48.1875	-4.125	-1.6184723	0.10471216	-0.105290994
1276816809350	2.1792557	12.639683	-2.3018389	3.2244358	0.0	12.375	-48.4375	-5.4375	-0.98975176	-0.17757389	-0.17073521
1276816809380	4.3312707	12.026767	-2.1111538	3.1494293	0.0	13.0625	-48.4375	-6.4375	-1.1438874	-0.16367681	-0.34567592
1276816809420	1.9885708	10.528529	-1.4165162	1.001257	0.0	13.5625	-48.4375	-7.1875	-1.0421975	-0.13144109	-0.18667544
1276816809451	2.4108016	10.841797	0.040861044	1.3000231	0.0	13.0625	-48.1875	-7.4375	-1.2670679	0.0036789717	-0.21880196
1276816809490	1.0351465	11.454713	0.46309182	1.7040596	0.0	12.375	-48.1875	-7.6875	-1.2360641	0.040242247	-0.09012381
1276816809530	-3.5276701	12.762266	1.1441092	3.48353	0.0	11.875	-48.1875	-6.1875	0.6340187	0.086193494	0.26968038
1276816809560	-4.440233	13.906375	-0.08172209	4.791624	0.0	10.625	-47.9375	-3.375	0.88505536	-0.0055980943	0.3090631
1276816809590	-3.5957718	13.797412	-2.0294318	4.5953197	0.0	10.375	-48.75	-0.8125	0.28067186	-0.14138405	0.25494128
1276816809630	-0.23154591	10.923519	-1.1168685	1.1762581	0.0	10.875	-48.75	3.75	-1.444511	-0.101867594	0.021193832
1276816809670	-0.38136974	7.205164	-0.0	-2.5914001	0.0	12.125	-47.6875	7.875	-2.258441	-0.0	0.05288071
1276816809700	-1.3075534	6.2108784	-0.46309182	-3.4427552	0.0	13.8125	-46.6875	11.4375	-2.6819856	-0.07283299	0.20749624
1276816809730	-0.61291564	4.8216033	-0.10896278	-4.9450254	0.0	15.5	-44.375	15.5	-2.5470798	-0.02241471	0.12644048
1276816809770	-0.29964766	3.9499009	-0.88532263	-5.747672	0.0	17.25	-42.0625	18.0625	-2.0997868	-0.2198822	0.07571704
1276816809800	-1.4573772	2.9556155	-1.6889231	-6.1036687	0.0	18.1875	-40.8125	19.8125	0.56630415	-0.47360584	0.45810238
1276816809830	-1.4573772	1.9885708	-4.0180025	-5.0925536	0.0	19.1875	-40.3125	19.5625	0.29848114	-1.0204391	0.63245183
1276816809870	-0.61291564	5.284695	-7.3549876	-0.7292328	0.0	19.1875	-41.3125	17.8125	-0.52652687	-0.94458044	0.11546351
1276816809900	-1.879608	15.554437	-11.182305	9.442179	0.0	18.4375	-42.0625	15.5	-0.79801404	-0.6198761	0.12025755
1276816809930	-6.510526	13.797412	-15.050485	11.623997	0.0	17.75	-42.875	13.9375	0.09884119	-0.77860636	0.44088796
1276816809970	-5.053149	3.9499009	-7.3141265	-0.07872772	0.0	17.0	-43.375	13.1875	0.83504725	-0.8508928	0.9073318
1276816810010	-1.1441092	15.894946	-2.1792557	6.2777348	0.0	17.0	-43.625	12.9375	-2.0254529	-0.13590689	0.071855515
1276816810050	-3.3642259	9.615966	1.2258313	0.45431805	0.0	17.5	-43.375	13.9375	-3.029065	0.11975147	0.3365486
1276816810090	4.0588636	6.0882955	2.1792557	-2.171804	0.0	18.1875	-43.125	14.5	-2.06929	0.28946075	-0.5880026
1276816810130	3.1054392	8.499097	2.1111538	-0.51496696	0.0	18.9375	-42.625	13.9375	-2.149824	0.22921075	-0.35031417
1276816810170	0.88532263	13.756551	-3.336985	4.3765078	0.0	19.1875	-42.625	11.9375	-1.656683	-0.2375046	-0.064267814
1276816810200	-3.255263	7.0553403	-2.1383946	-1.7476616	0.0	18.9375	-43.875	8.875	0.28029728	-0.26855946	0.43228534
1276816810230	-3.0237172	5.5162406	-1.9477097	-3.2214131	0.0	18.0	-45.6875	5.3125	0.5845819	-0.30026057	0.5014203
1276816810270	-0.84446156	7.273266	-0.6537767	-2.4553962	0.0	16.5	-46.9375	2.0	-1.3621849	-0.089051686	0.11558733
1276816810311	-0.8036005	7.5456724	0.38136974	-2.2087302	0.0	15.5	-47.1875	-0.0625	-1.7950004	0.050215065	0.10609828
1276816810350	0.3405087	9.956474	-3.718355	0.826952	0.0	14.8125	-47.4375	-2.625	-0.71649265	-0.3572292	-0.0341864
1276816810390	0.8036005	10.079058	-0.7218784	0.33012867	0.0	14.3125	-46.6875	-4.9375	-1.1447917	-0.07127411	-0.07956142
1276816810430	2.2201166	10.841797	-0.23154591	1.2625456	0.0	14.3125	-46.6875	-6.4375	-1.2669702	-0.020919569	-0.20198157
1276816810470	3.486809	12.108489	-1.9477097	2.9435234	0.0	14.5625	-46.4375	-8.0	-1.086935	-0.1533599	-0.28037834
1276816810500	4.099725	10.310603	-1.9477097	1.4587774	0.0	14.8125	-45.6875	-8.0	-1.1349124	-0.1737658	-0.37845486
1276816810530	3.9499009	10.841797	0.27240697	1.735467	0.0	15.25	-45.9375	-7.6875	-1.3486011	0.023603318	-0.34937608
1276816810560	2.7921712	11.032481	2.152015	1.775363	0.0	15.75	-45.6875	-7.6875	-1.5692074	0.18689275	-0.24788141
1276816810590	-1.7978859	13.525005	0.6537767	3.8529835	0.0	15.5	-45.6875	-6.1875	-1.174049	0.047880244	0.13215573
1276816810620	-3.445948	15.636159	0.3405087	6.2083416	0.0	15.25	-46.6875	-4.375	-0.96792585	0.021263475	0.21691585
1276816810650	-2.982856	14.669114	-0.46309182	5.1698246	0.0	14.5625	-47.1875	-2.375	-0.8961425	-0.030926215	0.20060754
1276816810680	-2.1111538	11.836082	-1.7570249	2.3439445	0.0	14.0625	-47.6875	1.4375	-0.7627998	-0.14511278	0.1765097
1276816810720	1.3756552	9.343558	-0.9125633	-0.3183794	0.0	13.8125	-47.6875	5.0625	-1.6045009	-0.09632695	-0.14618012
1276816810760	3.0237172	7.8589406	-0.08172209	-1.3856945	0.0	14.8125	-46.9375	7.3125	-1.7932217	-0.009704763	-0.36728996
1276816810800	-0.46309182	5.706926	0.8036005	-4.0248485	0.0	16.5	-45.4375	10.625	-2.497357	0.13943931	0.08096818
1276816810830	-3.336985	3.990762	0.61291564	-4.5685863	0.0	17.25	-43.875	12.4375	2.4382966	0.11728054	0.6964144
1276816810870	-3.0645783	3.173541	0.8036005	-5.3223696	0.0	18.6875	-42.875	13.6875	2.4876418	0.18017718	0.76793265
1276816810910	-1.7297841	3.0237172	-0.7218784	-6.249105	0.0	18.9375	-41.8125	14.25	2.3957431	-0.2043337	0.5196311
1276816810951	-2.2201166	6.4424243	-3.7864566	-2.0110745	0.0	18.1875	-42.375	13.1875	-0.30380833	-0.50718516	0.33186397
1276816810995	-5.09401	15.5135765	-12.299174	10.6357	0.0	17.75	-43.375	11.1875	-0.17194141	-0.6455673	0.31726626
1276816811030	-0.95342433	10.923519	-13.1708765	7.331152	0.0	17.0	-44.375	9.375	-0.42218983	-0.8765369	0.08706116
1276816811060	1.7297841	3.1054392	-6.0474343	-2.791854	0.0	15.75	-45.6875	8.875	-0.99618584	-1.0393933	-0.508215
1276816811100	-2.4108016	10.269742	-3.8681788	1.4291124	0.0	15.0625	-46.1875	8.125	-0.42668372	-0.3514652	0.23057315
1276816811140	-3.5276701	14.519291	0.313268	5.1383286	0.0	14.5625	-46.6875	8.875	-2.8354366	0.020962957	0.238346
1276816811180	-6.0474343	4.5219555	-0.3405087	-2.247848	0.0	13.8125	-46.9375	9.125	1.816463	-0.045063224	0.9287382
1276816811210	-0.42223078	6.2108784	1.7570249	-3.338233	0.0	13.5625	-46.6875	8.875	-2.691361	0.2750877	0.06787802
1276816811250	4.399372	12.408136	4.372132	4.0653315	0.0	14.3125	-46.9375	8.625	-2.1860783	0.32064334	-0.34072733
1276816811290	3.3778462	10.882658	-2.5606253	1.872344	0.0	14.8125	-46.9375	6.3125	-1.4746287	-0.2210462	-0.3009596
1276816811320	-2.982856	6.891896	-2.5606253	-1.8723917	0.0	14.8125	-47.9375	3.5	0.40277112	-0.32861266	0.40846404
1276816811350	-3.5957718	7.0553403	-2.1383946	-1.6042032	0.0	14.5625	-49.25	0.4375	0.63506085	-0.26374933	0.47133976
1276816811390	-0.61291564	8.240311	-0.08172209	-1.5431728	0.0	13.0625	-50.25	-2.375	-1.2704563	-0.0098897135	0.07424345
1276816811430	-0.38136974	7.8180795	-0.6946377	-1.9485121	0.0	12.375	-51.25	-4.125	-0.8487161	-0.08851276	0.04874185
1276816811470	0.46309182	8.158588	-2.2201166	-1.3387146	0.0	12.125	-51.5	-6.6875	-0.6502241	-0.2652797	-0.056700423
1276816811510	1.1441092	10.079058	-2.8330324	0.7253227	0.0	12.125	-51.8125	-9.0	-0.6794734	-0.27234787	-0.11302969
1276816811550	2.7240696	11.495573	-0.3405087	2.0121784	0.0	12.375	-51.25	-11.3125	-1.0828758	-0.028814685	-0.23267505
1276816811580	3.445948	12.340035	-1.6480621	3.1110563	0.0	12.5625	-51.0	-13.0625	-0.94159657	-0.1279303	-0.27231255
1276816811620	1.920469	10.61025	-1.7978859	1.1248646	0.0	12.5625	-50.25	-14.125	-0.7764348	-0.16521879	-0.17906262
1276816811660	1.607201	10.310603	-1.3075534	0.7100668	0.0	12.8125	-49.5	-14.625	-0.78383327	-0.124653526	-0.15463403
1276816811690	3.405087	11.114203	1.1441092	1.8736372	0.0	13.0625	-50.0	-14.125	-1.2258897	0.09810947	-0.29729286
1276816811720	1.2258313	11.836082	1.6480621	2.2063265	0.0	12.125	-50.25	-13.0625	-1.2227838	0.13762419	-0.103199385
1276816811760	-4.372132	12.4489975	2.2609777	3.5801	0.0	10.875	-51.25	-10.75	1.3063704	0.16971017	0.3377466
1276816811800	-6.3607025	14.859799	-2.1792557	6.5035095	0.0	9.875	-52.3125	-6.9375	0.69433194	-0.13401417	0.4044492
1276816811841	-0.61291564	12.408136	-2.1383946	2.7993116	0.0	9.1875	-52.0625	-2.625	-0.5221014	-0.17045787	0.04935615
1276816811880	2.982856	9.275456	-0.6946377	-0.03863907	0.0	9.875	-51.5	2.5	-1.5398995	-0.0711736	-0.3111409
1276816811920	-0.53119355	7.3958488	-0.6537767	-2.3629837	0.0	11.625	-50.25	7.875	-1.9696238	-0.08794325	0.07170008
1276816811960	-1.1168685	4.671779	-0.53119355	-4.973941	0.0	12.8125	-48.75	11.6875	-2.9583626	-0.11013884	0.23466267
1276816812000	-1.525479	2.152015	-0.08172209	-7.167534	0.0	13.8125	-47.4375	14.5	2.2498791	-0.030970655	0.6166481
1276816812030	-0.8036005	2.1111538	0.10896278	-7.5450983	0.0	13.8125	-46.6875	16.0	2.9423184	0.04819919	0.36371064
1276816812060	-1.2258313	2.4516625	-1.56634	-6.649637	0.0	13.3125	-46.6875	15.5	0.7207433	-0.5191544	0.4636476
1276816812090	-2.1111538	6.932757	-5.5162406	-0.6990166	0.0	12.8125	-46.9375	14.25	0.078032084	-0.65061045	0.2955972
1276816812120	-4.5628166	16.317177	-11.876944	10.8846855	0.0	12.125	-47.9375	11.9375	0.06617584	-0.61138934	0.2726681
1276816812150	-4.5628166	16.507862	-14.396708	12.567308	0.0	11.875	-49.25	9.875	0.066843465	-0.69900745	0.26966977
1276816812190	-0.8036005	4.6036777	-10.691973	1.8620214	0.0	11.625	-49.75	9.375	-0.06729632	-1.1587353	0.17281501
1276816812220	0.14982383	7.8180795	-3.1054392	-1.3930559	0.0	11.375	-49.25	9.125	-0.90803266	-0.37803808	-0.01916142
1276816812260	-3.255263	13.865514	-1.0760075	4.476452	0.0	11.625	-48.75	9.875	-3.1127763	-0.07540573	0.23059784
1276816812300	-3.445948	6.6331096	-0.53119355	-2.312995	0.0	12.125	-47.9375	10.375	2.1198125	-0.07094528	0.47913128
1276816812330	0.313268	8.158588	0.5720546	-1.6220341	0.0	12.8125	-47.6875	10.125	-2.3121157	0.06995092	-0.038378477
1276816812370	1.607201	7.8861814	2.2201166	-1.4577665	0.0	13.8125	-48.1875	9.625	-2.3097665	0.26915586	-0.20104638
1276816812410	3.6774938	11.563675	-0.50395286	2.3381634	0.0	14.5625	-48.1875	7.5625	-1.7728226	-0.041507233	-0.30790693
1276816812440	0.6946377	8.539958	-2.9556155	-0.7430382	0.0	15.25	-48.75	4.8125	-1.0536891	-0.3321718	-0.08116104
1276816812480	-2.982856	7.164303	-2.3699405	-1.6923857	0.0	15.0625	-49.0	1.4375	0.3493704	-0.29639143	0.3945211
1276816812520	-0.6946377	8.076866	0.50395286	-1.6843195	0.0	14.0625	-49.75	-1.875	-1.7012372	0.06208523	0.085792266
1276816812560	-0.42223078	7.7363577	0.53119355	-2.0405908	0.0	13.0625	-50.5	-4.125	-1.5108534	0.06845281	0.05452337
1276816812590	-2.0294318	9.234595	-2.7513103	0.040483475	0.0	11.375	-50.25	-6.6875	-0.015569532	-0.28317142	0.21632522
1276816812620	0.50395286	10.269742	-3.486809	1.0505781	0.0	11.125	-50.0	-9.25	-0.50345194	-0.32694453	-0.04903229
1276816812650	1.8387469	9.888372	-1.7570249	0.40354252	0.0	10.875	-49.25	-11.3125	-0.7998567	-0.17294624	-0.18385057
1276816812681	3.3778462	10.882658	-0.6537767	1.6069174	0.0	11.125	-48.4375	-13.3125	-1.0082691	-0.057312034	-0.3009596
1276816812720	3.5957718	11.795221	-0.6537767	2.5418015	0.0	11.875	-47.9375	-14.125	-0.9977533	-0.05296879	-0.29590026
1276816812760	1.2258313	10.760075	-2.3018389	1.2649498	0.0	12.125	-47.6875	-14.625	-0.6311024	-0.20943248	-0.11343499
1276816812800	0.84446156	10.269742	-0.7627395	0.5259428	0.0	12.5625	-47.1875	-15.125	-0.72546965	-0.07388599	-0.08204354
1276816812840	2.6423476	11.645397	0.6946377	2.1549473	0.0	12.5625	-47.1875	-14.625	-1.0812957	0.058105007	-0.22312273
1276816812880	-1.8387469	12.340035	1.879608	2.8104172	0.0	12.5625	-47.4375	-12.5625	-0.8115719	0.14953005	0.14791828
1276816812920	-5.8567495	14.47843	-0.61291564	5.823517	0.0	11.625	-47.9375	-9.75	0.55331767	-0.039223693	0.38439298
1276816812960	-3.3642259	13.021052	-2.1111538	3.8066807	0.0	11.125	-49.0	-5.1875	0.11458629	-0.15570831	0.25283897
1276816813000	3.5957718	10.528529	-2.1111538	1.5175047	0.0	11.125	-49.25	-0.5625	-1.2573705	-0.18752645	-0.32910618
1276816813030	2.5606253	8.430995	-1.0351465	-0.9347849	0.0	11.375	-49.25	3.5	-1.5059352	-0.1169438	-0.29486218
1276816813060	0.6537767	5.7886477	0.42223078	-3.9659185	0.0	12.5625	-47.9375	7.875	-2.1306672	0.07235385	-0.11246461
1276816813100	-0.84446156	3.405087	0.92618364	-6.178214	0.0	13.5625	-46.1875	10.625	-3.0511053	0.25811347	0.24309541
1276816813140	-2.4108016	3.1463003	0.08172209	-5.842076	0.0	13.8125	-45.125	12.6875	2.2605562	0.02061454	0.65381
1276816813180	-2.1792557	3.568531	-1.1849703	-5.460649	0.0	14.3125	-44.375	12.9375	1.5788114	-0.27615422	0.5482406
1276816813212	-2.5333846	4.5628166	-3.173541	-3.6985655	0.0	13.8125	-44.625	11.9375	0.6155508	-0.54634064	0.506845
1276816813250	-4.5628166	10.800936	-6.0882955	3.4049673	0.0	13.3125	-45.6875	10.125	0.40700233	-0.47892898	0.39970577
1276816813290	-2.982856	17.583868	-15.431854	13.77792	0.0	12.5625	-46.4375	7.875	-0.18004899	-0.713283	0.1680363
1276816813330	0.6946377	4.399372	-10.501288	1.6001053	0.0	11.875	-46.6875	7.0625	-0.46395868	-1.1696656	-0.15660188
1276816813360	-1.0760075	6.0474343	-1.1168685	-3.5635223	0.0	11.375	-47.1875	6.8125	-0.9805144	-0.1798639	0.17608517
1276816813415	-4.7535014	16.167353	0.3405087	7.0484676	0.0	11.125	-47.4375	7.0625	2.8168695	0.02020347	0.28596023
1276816813460	-2.8330324	5.5571017	-0.040861044	-3.5689325	0.0	11.625	-47.4375	8.125	2.1803985	-0.0065506874	0.47145998
1276816813500	-0.19068487	5.175732	3.6774938	-3.4546013	0.0	12.125	-47.4375	7.0625	-2.8410683	0.6174355	0.03682545
1276816813548	3.2961242	13.402422	2.9556155	4.3080587	0.0	13.3125	-47.4375	5.5625	-2.1071336	0.21096098	-0.24114911
1276816813580	1.0760075	8.853226	-4.5628166	0.21116924	0.0	13.3125	-47.4375	2.75	-0.8033991	-0.47290015	-0.12094528
1276816813610	-3.486809	7.6273947	-2.1792557	-1.1415396	0.0	13.0625	-47.6875	-0.8125	0.54662514	-0.25422743	0.42877805
1276816813640	-1.7978859	8.19945	0.3405087	-1.4055014	0.0	12.125	-47.9375	-3.125	-0.9533488	0.040542312	0.21585304
1276816813680	0.42223078	7.3958488	0.6537767	-2.369965	0.0	10.875	-47.9375	-5.1875	-1.4962851	0.08802602	-0.05702834
1276816813720	0.7218784	8.539958	-3.1463003	-0.6769619	0.0	10.625	-47.9375	-6.6875	-0.5777773	-0.35183713	-0.08432904
1276816813760	1.2666923	9.724928	-2.8330324	0.40142536	0.0	10.625	-47.4375	-8.25	-0.68013567	-0.28122064	-0.1295229
1276816813800	2.9147544	10.18802	-0.84446156	0.82371426	0.0	11.125	-46.4375	-10.75	-1.032316	-0.079522416	-0.27865276
1276816813840	1.7978859	11.75436	-1.1441092	2.139326	0.0	11.375	-45.6875	-12.5625	-0.82807004	-0.09592063	-0.15177846
1276816813880	1.7570249	11.413852	-2.7240696	2.0585814	0.0	12.125	-44.625	-13.8125	-0.68146425	-0.23165046	-0.152739
1276816813920	1.334794	10.378705	0.10896278	0.65810394	0.0	12.125	-44.125	-14.625	-0.89395046	0.010412547	-0.1279068
1276816813950	1.1168685	11.073342	1.2258313	1.3901787	0.0	11.875	-45.125	-14.375	-1.0440911	0.10970011	-0.10052107
1276816813980	-2.3018389	11.372991	0.8036005	1.8247356	0.0	11.875	-45.6875	-13.5625	-0.24566084	0.069144055	0.19969758
1276816814020	-6.5922484	13.211738	0.14982383	4.959195	0.0	10.875	-47.1875	-11.3125	0.80807793	0.010146822	0.4628225
1276816814050	-4.2086873	13.906375	-0.19068487	4.723892	0.0	10.625	-47.9375	-7.6875	0.41968825	-0.013123415	0.29388115
1276816814080	-1.56634	12.53072	-1.525479	2.913391	0.0	10.375	-47.9375	-2.875	-0.46294677	-0.120216556	0.124354996
1276816814110	0.53119355	10.228881	-2.4925237	0.7349272	0.0	10.625	-48.1875	1.4375	-0.92636263	-0.23870745	-0.051884156
1276816814140	1.879608	8.158588	-1.7297841	-1.2575188	0.0	11.875	-47.6875	5.0625	-1.3972592	-0.20374113	-0.22643305
1276816814170	2.2609777	8.158588	-0.84446156	-1.2985544	0.0	13.0625	-46.9375	7.875	-1.7167399	-0.099417575	-0.27034402
1276816814210	0.7218784	7.3141265	-0.10896278	-2.4561791	0.0	14.3125	-46.4375	9.125	-1.9935539	-0.014824462	-0.09837785
1276816814250	-2.1792557	4.2495484	-0.19068487	-5.027092	0.0	15.25	-45.6875	10.875	2.459765	-0.03990651	0.47385138
1276816814290	-2.5606253	3.445948	-0.53119355	-5.4807367	0.0	15.75	-44.875	12.1875	2.003223	-0.12310408	0.63905954
1276816814320	-1.56634	2.7240696	-1.56634	-6.295611	0.0	15.75	-44.375	12.4375	0.7261832	-0.46242377	0.52183425
1276816814350	-1.4982382	3.568531	-3.405087	-4.6516767	0.0	15.75	-44.375	12.1875	0.12067595	-0.72154313	0.39749816
1276816814390	-2.6832085	11.032481	-6.851035	3.4542675	0.0	15.0625	-44.875	10.375	-0.2546913	-0.54291445	0.23857784
1276816814430	-2.982856	18.0061	-15.6634	14.244528	0.0	14.3125	-46.1875	8.375	-0.2586003	-0.70923436	0.16416721
1276816814465	-1.920469	4.8216033	-10.923519	2.2871227	0.0	13.8125	-47.1875	7.875	0.11287858	-1.127249	0.37904435
1276816814510	0.3405087	2.2201166	-1.879608	-6.877864	0.0	13.3125	-47.4375	7.5625	-0.72440934	-0.69680434	-0.15218829
1276816814550	-2.6014864	18.237646	-2.9147544	8.844765	0.0	13.3125	-47.6875	8.125	-1.6256205	-0.15691842	0.14168793
1276816814580	-3.8681788	8.308413	1.2258313	-0.5602894	0.0	13.3125	-46.9375	8.875	2.670023	0.13296592	0.43572932
1276816814610	-3.255263	3.214402	0.5720546	-5.1961875	0.0	12.8125	-46.9375	8.875	2.0926836	0.124398075	0.7917139
1276816814640	-0.9942854	4.671779	3.405087	-3.940754	0.0	13.0625	-46.9375	8.625	-3.0565372	0.61932886	0.20969918
1276816814670	3.405087	12.9529505	3.9090397	4.1452007	0.0	13.3125	-47.1875	7.3125	-2.2195208	0.28398237	-0.2570649
1276816814700	4.862464	13.593107	-0.5720546	4.641303	0.0	13.8125	-47.4375	5.5625	-1.7070556	-0.039604515	-0.3435316
1276816814740	-0.6537767	6.8237944	-5.6660647	-0.91306305	0.0	14.0625	-47.9375	2.5	-0.3109775	-0.69072425	0.09551684
1276816814780	-2.8738933	7.164303	-0.3405087	-2.0799146	0.0	13.3125	-49.0	-0.5625	1.129011	-0.04408317	0.38148934
1276816814820	-0.9942854	7.7363577	1.334794	-1.8932753	0.0	12.375	-49.25	-3.125	-2.3062725	0.16948596	0.12782043
1276816814850	-1.3075534	8.430995	-2.2609777	-0.980361	0.0	11.125	-49.5	-5.4375	-0.18484578	-0.2590517	0.15386309
1276816814880	-0.040861044	10.147159	-3.9499009	1.0822535	0.0	10.875	-49.5	-7.4375	-0.40499553	-0.37121236	0.004026824
1276816814910	0.84446156	10.800936	-2.3699405	1.283433	0.0	10.625	-48.75	-9.25	-0.64211786	-0.21535996	-0.078025386
1276816814940	2.6423476	10.95076	-0.38136974	1.4648438	0.0	11.375	-47.9375	-10.5	-1.07784	-0.03384135	-0.23676771
1276816814980	2.6832085	11.536434	-1.56634	2.140832	0.0	12.125	-47.4375	-11.5625	-0.92043865	-0.13148059	-0.22852269
1276816815020	4.630918	10.95076	-0.9942854	2.1245337	0.0	12.8125	-46.9375	-12.0625	-1.102741	-0.08343178	-0.40007833
1276816815060	0.61291564	10.528529	-1.1168685	0.7986784	0.0	13.3125	-46.1875	-12.8125	-0.7394046	-0.10550765	-0.058149114
1276816815100	0.53119355	11.727119	0.61291564	1.9484835	0.0	13.0625	-46.1875	-12.5625	-0.97924703	0.05216391	-0.045265224
1276816815130	-1.2666923	12.14935	0.95342433	2.4457054	0.0	12.375	-46.1875	-11.5625	-0.76366544	0.077894345	0.10388476
1276816815170	-5.053149	13.021052	1.0351465	4.1988363	0.0	11.125	-46.9375	-8.75	0.9047461	0.07397753	0.3701844
1276816815210	-5.012288	13.102775	-2.4108016	4.4277344	0.0	10.375	-47.6875	-4.9375	0.5132255	-0.17018498	0.36536148
1276816815250	0.040861044	11.141444	-2.1792557	1.5459976	0.0	10.125	-47.6875	-0.0625	-0.841295	-0.19315903	-0.0036674652
1276816815290	3.255263	7.246025	-0.95342433	-1.8059855	0.0	11.125	-47.1875	4.25	-1.5583702	-0.11945201	-0.42222852
1276816815330	1.4573772	6.0201936	-0.42223078	-3.5981917	0.0	12.125	-45.9375	8.625	-1.8205323	-0.06806149	-0.23751214
1276816815371	-1.920469	4.7535014	-0.0	-4.67986	0.0	13.8125	-44.625	11.9375	2.8251035	-0.0	0.38395974
1276816815410	-2.7921712	3.8681788	-0.27240697	-5.028237	0.0	15.25	-44.125	13.6875	2.2611246	-0.05703875	0.62522787
1276816815440	-1.920469	3.336985	-1.1168685	-5.7977767	0.0	15.75	-43.875	14.75	1.7371969	-0.28233513	0.5222177
1276816815470	-2.1383946	3.255263	-2.7921712	-5.014397	0.0	16.0	-43.875	13.9375	0.6154296	-0.6219766	0.5812132
1276816815510	-2.4925237	7.5456724	-5.9793324	0.13831139	0.0	15.25	-44.375	12.9375	-0.03143404	-0.645055	0.31904057
1276816815540	-3.718355	17.120777	-13.021052	12.022116	0.0	14.0625	-45.125	10.625	-0.20983303	-0.6391443	0.21386251
1276816815580	-3.486809	12.9529505	-13.865514	9.485556	0.0	12.8125	-46.1875	9.125	-0.013030951	-0.8019462	0.26295704
1276816815610	-1.6480621	3.2961242	-7.3549876	-1.5800838	0.0	12.375	-47.4375	8.625	0.25440106	-1.1063131	0.4636476
1276816815640	-3.1463003	9.956474	-3.568531	1.2280674	0.0	12.125	-47.9375	8.375	0.34435418	-0.32931113	0.30607527
1276816815671	-1.7570249	17.079916	-1.334794	7.415207	0.0	12.375	-47.6875	8.375	-2.122706	-0.07758362	0.10251023
1276816815710	-4.372132	8.281172	0.9942854	-0.38954067	0.0	13.0625	-47.6875	8.625	2.4769852	0.10578003	0.485765
1276816815740	-2.4925237	4.140586	1.3756552	-4.781757	0.0	13.8125	-46.4375	7.875	2.6060116	0.27730858	0.54186946
1276816815770	0.040861044	6.6331096	2.2609777	-2.798667	0.0	14.5625	-46.4375	7.5625	-2.5502272	0.32850555	-0.0061600865
1276816815810	2.7240696	11.032481	4.1814466	2.3020535	0.0	15.0625	-46.1875	7.3125	-2.2583227	0.35258582	-0.2420717
1276816815850	2.8330324	12.026767	-3.255263	2.9709053	0.0	15.0625	-45.9375	4.5	-1.3309956	-0.25760382	-0.23134317
1276816815880	-2.9556155	6.2108784	-2.3018389	-2.5534348	0.0	14.0625	-46.9375	1.1875	0.48312178	-0.32293826	0.44416383
1276816815910	-2.3699405	6.973618	-0.0	-2.441328	0.0	13.3125	-46.6875	-2.125	0.84983057	-0.0	0.32759845
1276816815940	-0.19068487	8.580819	1.4573772	-1.1008606	0.0	12.375	-47.1875	-5.4375	-1.7950372	0.16819513	0.022218565
1276816815970	-1.1441092	8.471856	-1.4573772	-1.134553	0.0	11.125	-47.9375	-7.4375	-0.28789437	-0.16885485	0.1342361
1276816816010	-0.7218784	9.466142	-4.671779	0.7742033	0.0	11.125	-47.9375	-9.0	-0.24686861	-0.45730472	0.076111674
1276816816040	2.070293	10.378705	-1.4982382	0.88205147	0.0	10.875	-48.4375	-10.75	-0.8696337	-0.14063339	-0.19689076
1276816816070	0.14982383	11.114203	-1.6480621	1.4300785	0.0	11.125	-47.9375	-12.3125	-0.55023247	-0.14719841	-0.013479576
1276816816110	2.7240696	11.536434	-0.7627395	2.0715494	0.0	12.375	-46.9375	-13.3125	-0.9584706	-0.06425761	-0.2318802
1276816816150	2.2201166	10.691973	-1.3756552	1.1996946	0.0	13.0625	-46.6875	-14.125	-0.85452884	-0.1253152	-0.20473398
1276816816190	-0.84446156	9.847511	-1.7570249	0.23196125	0.0	13.8125	-46.4375	-14.875	-0.40336815	-0.17593287	0.08554453
1276816816220	2.152015	11.182305	-0.6537767	1.5996008	0.0	14.0625	-46.6875	-14.625	-0.9244081	-0.057348836	-0.19012383
1276816816260	3.568531	11.536434	0.14982383	2.270029	0.0	14.3125	-47.1875	-13.5625	-1.1292338	0.012406363	-0.2999916
1276816816300	-0.38136974	11.795221	2.5606253	2.2693386	0.0	13.5625	-47.6875	-11.3125	-1.4996835	0.21366473	0.032321304
1276816816340	-5.053149	14.410328	0.23154591	5.465726	0.0	12.5625	-48.1875	-7.6875	0.53299403	0.0151616745	0.33726412
1276816816370	-4.140586	13.484144	-2.4516625	4.510376	0.0	12.125	-49.25	-3.125	0.23924728	-0.17208919	0.297931
1276816816410	1.56634	10.732834	-1.0760075	1.0931177	0.0	11.625	-49.25	1.75	-1.4160565	-0.09887943	-0.14491604
1276816816450	1.1849703	7.7772183	-0.88532263	-1.890017	0.0	12.5625	-48.1875	5.8125	-1.6043394	-0.112065114	-0.1512014
1276816816490	0.42223078	6.0882955	-0.0	-3.703731	0.0	14.0625	-47.6875	9.375	-2.0667264	-0.0	-0.06924037
1276816816530	-1.7978859	3.405087	1.3075534	-5.740115	0.0	15.25	-46.1875	12.1875	2.8504395	0.32735536	0.4857959
1276816816560	-2.6423476	3.214402	0.08172209	-5.6447926	0.0	16.25	-45.4375	13.6875	2.3004227	0.019637227	0.6880327
1276816816590	-2.1792557	2.982856	-0.9125633	-6.0014753	0.0	16.25	-44.875	14.25	1.780759	-0.24218212	0.63096493
1276816816620	-2.7513103	3.486809	-3.214402	-4.323957	0.0	16.5	-44.375	13.6875	0.75884926	-0.62646115	0.6680361
1276816816660	-3.3642259	7.4639506	-6.510526	0.65353775	0.0	16.0	-44.875	11.6875	0.18661053	-0.67181814	0.42346075
1276816816700	-4.372132	17.120777	-13.0619135	12.1672	0.0	15.0625	-46.1875	9.375	-0.14770816	-0.6365565	0.2500263
1276816816730	-0.42223078	10.882658	-12.789507	6.991623	0.0	14.5625	-47.1875	8.375	-0.390572	-0.86540586	0.038779043
1276816816760	0.50395286	4.944186	-7.1234417	-1.1208935	0.0	13.8125	-47.4375	8.125	-0.51334906	-0.9616366	-0.10157757
1276816816790	-3.173541	12.639683	-3.1054392	3.5902414	0.0	13.3125	-47.6875	8.125	-0.34903446	-0.2339307	0.24599262
1276816816830	-3.8681788	15.241169	-0.08172209	5.91794	0.0	13.3125	-46.6875	9.375	-2.9873536	-0.005197112	0.24855007
1276816816870	-5.47538	2.4925237	2.4925237	-3.2947278	0.0	13.3125	-46.4375	9.875	2.0925143	0.39278534	1.1436067
1276816816900	-1.334794	6.1700177	2.3699405	-3.0636973	0.0	13.3125	-46.4375	9.625	-3.0191922	0.35914	0.21305232
1276816816930	0.92618364	8.076866	4.5628166	-0.48394203	0.0	13.8125	-46.1875	8.875	-2.5686526	0.5114364	-0.114172466
1276816816964	4.7535014	14.1787815	-1.9885708	5.2793703	0.0	14.5625	-46.4375	6.5625	-1.6166787	-0.1322002	-0.32347867
1276816817000	1.5390993	10.269742	-3.486809	1.1475391	0.0	14.5625	-45.9375	3.5	-1.1127944	-0.3239444	-0.14876024
1276816817040	-2.9556155	6.1291566	-1.7978859	-2.7685666	0.0	14.5625	-46.9375	0.6875	0.55406404	-0.2583142	0.4493245
1276816817080	-0.29964766	8.076866	0.19068487	-1.7219782	0.0	14.0625	-47.1875	-1.875	-1.5099143	0.023588162	0.03708249
1276816817120	0.88532263	7.8861814	-1.7297841	-1.6845932	0.0	12.8125	-47.4375	-3.625	-0.93591684	-0.21461743	-0.11179445
1276816817160	-0.23154591	9.302697	-3.9771416	0.3132038	0.0	12.5625	-47.6875	-5.9375	-0.43742207	-0.40389603	0.024885051
1276816817200	0.08172209	9.915613	-1.525479	0.22595406	0.0	12.375	-46.9375	-8.5	-0.6880904	-0.15264422	-0.0082415715
1276816817230	2.1111538	10.691973	-1.2258313	1.1604786	0.0	12.8125	-46.1875	-10.25	-0.9628433	-0.11200727	-0.19494459
1276816817270	2.6014864	10.95076	0.040861044	1.4489508	0.0	13.5625	-45.6875	-12.3125	-1.0975993	0.0036302933	-0.23323867
1276816817310	2.4108016	11.223166	-2.1111538	1.8650417	0.0	14.0625	-45.4375	-13.0625	-0.85274047	-0.18187924	-0.21159057
1276816817350	0.61291564	10.61025	-0.6946377	0.8439646	0.0	14.5625	-44.625	-13.5625	-0.8071085	-0.06526676	-0.057702243
1276816817390	1.4165162	11.073342	0.3405087	1.3621178	0.0	14.5625	-44.375	-13.5625	-1.0221646	0.030492306	-0.12723029
1276816817430	-1.1849703	12.14935	1.6889231	2.516634	0.0	14.0625	-44.375	-12.5625	-1.0012404	0.1374841	0.09722612
1276816817470	-4.862464	13.375181	1.5390993	4.5079527	0.0	13.3125	-44.875	-10.0	0.520736	0.10772777	0.34868926
1276816817500	-6.2789803	13.797412	-2.2609777	5.5199995	0.0	12.5625	-45.6875	-5.4375	0.5476914	-0.14805973	0.42707366
1276816817530	-2.5606253	12.176591	-2.4108016	2.8676596	0.0	12.375	-46.1875	-0.8125	-0.25783128	-0.19137776	0.20727071
1276816817560	2.070293	9.275456	-1.1441092	-0.23433685	0.0	13.0625	-45.9375	4.0	-1.5248063	-0.11980918	-0.21960166
1276816817590	3.1463003	7.246025	-0.95342433	-1.8496971	0.0	14.5625	-44.375	7.5625	-1.6775632	-0.12011138	-0.4096461
1276816817620	0.6537767	5.434519	-0.50395286	-4.309798	0.0	15.75	-43.125	10.125	-1.866352	-0.09180919	-0.1197254
1276816817650	-1.56634	3.2961242	-0.23154591	-6.149948	0.0	16.5	-41.5625	11.9375	2.8291042	-0.06336336	0.44361687
1276816817690	-2.4516625	2.0294318	-0.08172209	-6.622954	0.0	16.75	-40.3125	13.4375	2.119058	-0.025671754	0.87934566
1276816817720	-1.4982382	1.9477097	-0.84446156	-7.2083035	0.0	17.25	-40.3125	14.5	1.5625508	-0.33101127	0.6556956
1276816817760	-1.0760075	2.4108016	-3.759216	-5.2130175	0.0	17.5	-39.5625	13.6875	0.005234404	-0.9585405	0.4197958
1276816817790	-1.1441092	10.228881	-8.812365	3.7431383	0.0	17.75	-40.0625	12.4375	-0.6395073	-0.70807034	0.11138789
1276816817830	-4.7126403	18.496431	-13.865514	13.785286	0.0	17.25	-40.3125	10.125	-0.37323213	-0.62824106	0.24947847
1276816817870	-3.5957718	6.0474343	-11.604536	3.7641382	0.0	16.75	-40.5625	8.625	0.19152653	-1.0257657	0.5364354
1276816817900	-1.56634	7.246025	-5.09401	-0.8118048	0.0	16.25	-41.3125	7.5625	-0.36756727	-0.6020405	0.2128898
1276816817930	-1.3075534	16.017529	-3.9771416	6.74897	0.0	16.0	-40.8125	7.0625	-1.3204359	-0.24260186	0.08145204
1276816817964	-3.214402	9.615966	0.5720546	0.34846783	0.0	16.75	-40.8125	7.5625	-2.855818	0.056361493	0.32260016
1276816818024	-2.3426998	3.336985	0.14982383	-5.72668	0.0	17.0	-40.3125	7.5625	2.3495774	0.03673005	0.61209434
1276816818080	3.1054392	12.408136	2.2201166	3.175435	0.0	18.0	-39.8125	6.8125	-2.0046995	0.17185861	-0.24523693
1276816818110	1.9477097	12.4489975	-2.8738933	3.1173735	0.0	18.4375	-39.8125	4.8125	-1.4313344	-0.22424294	-0.155197
1276816818150	-3.405087	7.4639506	-1.7978859	-1.4079857	0.0	18.6875	-39.8125	2.25	-0.06607521	-0.21573769	0.4280015
1276816818190	-3.5276701	8.049625	-0.95342433	-0.96640396	0.0	18.0	-40.0625	-0.8125	-0.07305089	-0.108060606	0.41303164
1276816818230	-0.23154591	8.962189	-0.3405087	-0.8350067	0.0	16.75	-40.0625	-2.625	-1.3119603	-0.037963	0.02583012
1276816818270	0.6537767	7.9679036	-1.7978859	-1.6123037	0.0	15.75	-40.0625	-3.625	-1.0062991	-0.22120522	-0.08186789
1276816818300	-0.0	8.008764	-1.6480621	-1.6300726	0.0	14.8125	-40.0625	-4.625	-0.8657379	-0.20294924	0.0
1276816818340	-1.1441092	7.6954966	-1.0760075	-1.9525146	0.0	15.25	-39.8125	-5.6875	-0.6833235	-0.13743106	0.14759147
1276816818380	1.1849703	10.269742	-1.7297841	0.6749487	0.0	16.0	-39.5625	-6.6875	-1.0118177	-0.16578901	-0.114876606
1276816818420	3.5957718	12.14935	-1.1849703	2.918932	0.0	17.0	-39.3125	-7.4375	-1.2066264	-0.09325227	-0.28775007
1276816818450	4.0588636	11.223166	-2.6014864	2.4081593	0.0	18.1875	-38.25	-8.5	-1.1180342	-0.21462195	-0.34701595
1276816818480	1.4165162	11.34575	-2.0294318	1.805893	0.0	18.4375	-37.5	-9.0	-0.9927812	-0.17566408	-0.12420724
1276816818510	1.879608	11.413852	0.6537767	1.7793922	0.0	18.6875	-37.0	-9.25	-1.2789215	0.056457948	-0.16321295
1276816818540	-0.10896278	10.95076	-0.08172209	1.1449566	0.0	18.4375	-36.25	-8.5	-1.1190054	-0.0074621784	0.00994992
1276816818573	-2.3699405	11.141444	1.6480621	1.702673	0.0	18.4375	-35.9375	-7.4375	-1.4039284	0.14368759	0.20959008
1276816818610	-4.862464	13.484144	-0.0	4.527425	0.0	18.4375	-36.25	-5.6875	-0.72583926	-0.0	0.346092
1276816818640	-3.6774938	13.906375	-2.3426998	4.7672806	0.0	18.1875	-35.9375	-2.875	-0.74133307	-0.16144633	0.2585286
1276816818670	1.4165162	11.876944	-1.3075534	2.2257233	0.0	18.9375	-36.25	-0.3125	-1.4002204	-0.10888465	-0.11870533
1276816818701	3.486809	10.61025	-2.6014864	1.6608248	0.0	18.9375	-36.5	2.25	-1.4243733	-0.22885017	-0.31750837
1276816818740	0.88532263	6.973618	-1.7570249	-2.5608048	0.0	18.9375	-36.25	4.5	-1.4104799	-0.24492879	-0.12627761
1276816818780	-1.1441092	4.3312707	-1.3075534	-5.1398964	0.0	18.6875	-36.5	5.0625	-0.94167393	-0.2839866	0.2582522
1276816818820	-2.4925237	3.6774938	-1.334794	-5.1678667	0.0	18.4375	-36.5	5.3125	0.67009145	-0.29187307	0.59565556
1276816818850	-2.2201166	2.6014864	-0.14982383	-6.383333	0.0	18.1875	-37.0	5.3125	1.9069916	-0.04377968	0.70646644
1276816818880	-1.4982382	2.7240696	-0.6537767	-6.6297493	0.0	18.1875	-37.0	4.5	0.43554774	-0.20727167	0.5028432
1276816818910	-2.3426998	4.671779	-2.2201166	-4.1283865	0.0	18.1875	-37.0	3.5	0.025391	-0.4017017	0.4648131
1276816818940	-3.173541	10.501288	-7.246025	3.3407183	0.0	17.75	-37.5	1.75	-0.2826209	-0.58372843	0.29347843
1276816818980	1.4982382	17.052675	-15.745122	13.451624	0.0	18.0	-37.25	-0.3125	-0.717494	-0.74363613	-0.08763439
1276816819020	2.5606253	8.308413	-9.534244	3.096385	0.0	18.0	-37.75	-1.625	-0.87119347	-0.83145845	-0.2989596
1276816819050	-4.0588636	11.182305	-0.6537767	2.1074486	0.0	17.5	-38.75	-2.375	-0.6021362	-0.054901786	0.34818408
1276816819090	-5.8567495	14.7916975	1.7297841	6.1960983	0.0	17.75	-39.5625	-1.875	-2.5390208	0.108304545	0.37700877
1276816819120	-7.164303	4.2086873	-2.6014864	-1.0998707	0.0	17.0	-40.3125	-0.8125	1.1642975	-0.30342302	1.039654
1276816819150	-3.759216	4.0588636	1.1441092	-4.157308	0.0	17.25	-40.3125	-0.8125	2.045218	0.20393136	0.7470894
1276816819190	1.4982382	8.812365	7.5456724	1.8911982	0.0	18.6875	-39.8125	-1.0625	-2.30138	0.701086	-0.16840518
1276816819220	5.325556	15.935807	-2.8330324	7.232645	0.0	19.6875	-39.0	-2.875	-1.3200932	-0.16704036	-0.32251957
1276816819271	0.9942854	8.240311	-2.3699405	-1.1748524	0.0	20.6875	-38.25	-4.375	-1.0637938	-0.27813137	-0.12008064
1276816819320	-2.1383946	8.117727	-0.84446156	-1.369628	0.0	20.875	-38.75	-6.1875	-0.7794362	-0.10025787	0.25757146
1276816819360	1.1849703	8.349273	0.19068487	-1.3715525	0.0	20.1875	-38.75	-8.0	-1.2951002	0.022608051	-0.1409834
1276816819390	0.50395286	7.43671	-1.3756552	-2.2270036	0.0	19.4375	-38.75	-9.0	-0.9534022	-0.18250477	-0.06766212
1276816819430	-0.7218784	9.043911	-2.5606253	-0.37954903	0.0	19.4375	-39.0	-11.0625	-0.64506704	-0.27507988	0.0796504
1276816819460	2.1792557	10.079058	-1.8387469	0.667964	0.0	19.4375	-38.25	-12.5625	-0.978853	-0.17645746	-0.21293834
1276816819490	2.4108016	10.691973	-0.7218784	1.1774912	0.0	20.1875	-38.0	-13.8125	-1.0544055	-0.06576746	-0.2217691
1276816819520	2.6423476	11.264028	-0.50395286	1.7741222	0.0	20.875	-37.5	-14.875	-1.0585945	-0.043530088	-0.2304166
1276816819550	3.405087	10.841797	-1.334794	1.6354151	0.0	21.125	-36.75	-15.625	-1.026367	-0.11692296	-0.30431488
1276816819590	1.7297841	10.18802	-1.6889231	0.664279	0.0	21.625	-36.5	-16.125	-0.91431046	-0.16200411	-0.16818225
1276816819620	0.313268	11.114203	-0.08172209	1.3122673	0.0	21.625	-36.75	-15.875	-0.9517113	-0.0073498907	-0.028178813
1276816819650	-0.040861044	10.991621	0.14982383	1.1860676	0.0	20.875	-37.5	-16.125	-0.92545336	0.013629793	0.0037174548
1276816819690	-2.9147544	11.182305	-0.19068487	1.7508631	0.0	20.1875	-38.5	-15.375	-0.54865843	-0.016499529	0.25498405
1276816819731	-3.6774938	12.340035	1.9885708	3.2223501	0.0	19.4375	-40.0625	-13.0625	-0.8587466	0.15322536	0.28963307
1276816819770	-4.5900574	13.797412	-1.607201	4.8227825	0.0	18.6875	-41.3125	-10.5	-0.29584733	-0.110082984	0.32115814
1276816819810	-1.4982382	11.876944	-2.3018389	2.3837137	0.0	18.6875	-42.625	-5.9375	-0.74711734	-0.18996492	0.12548397
1276816819850	2.3699405	8.62168	-1.8387469	-0.67807007	0.0	19.4375	-43.125	-1.625	-1.2830515	-0.20281507	-0.26825607
1276816819890	0.53119355	6.1291566	-0.53119355	-3.6316285	0.0	19.9375	-42.875	2.0	-1.5058005	-0.08612939	-0.086450644
1276816819920	-1.6889231	3.568531	-0.42223078	-5.8361144	0.0	20.6875	-42.375	5.3125	-2.0096679	-0.10654246	0.44204602
1276816819950	-1.607201	3.1054392	-0.9125633	-6.1928406	0.0	21.375	-41.5625	6.3125	0.021118054	-0.25528494	0.477584
1276816819990	-1.1849703	3.1054392	-1.334794	-6.2248096	0.0	21.875	-41.8125	7.3125	-0.4779356	-0.38186944	0.364526
1276816820030	-1.1168685	2.9556155	-2.6423476	-5.6877837	0.0	22.625	-41.8125	6.8125	-0.250059	-0.696482	0.36129338
1276816820060	-2.6423476	8.430995	-7.8589406	2.0181808	0.0	22.125	-42.375	5.3125	-0.2997979	-0.7269763	0.30371255
1276816820100	-1.607201	17.733692	-13.906375	12.786583	0.0	21.125	-43.375	3.5	-0.6004797	-0.6630337	0.09038288
1276816820140	-1.3075534	8.471856	-12.067628	4.9957037	0.0	20.1875	-43.875	2.5	-0.349199	-0.9531618	0.15313254
1276816820180	-2.7513103	3.214402	-1.1168685	-5.430638	0.0	18.6875	-44.625	2.25	0.9970297	-0.25808057	0.707928
1276816820220	-5.243834	17.24336	-0.8036005	8.234333	0.0	18.4375	-44.625	2.25	-1.5937896	-0.044557795	0.29522082
1276816820260	-4.099725	7.014479	1.9477097	-1.4517574	0.0	18.6875	-43.625	3.5	2.75353	0.23528695	0.52891916
1276816820300	-0.50395286	5.053149	3.718355	-3.512649	0.0	18.9375	-43.125	3.75	-2.6828222	0.63202226	0.09940177
1276816820340	0.14982383	7.504812	2.6014864	-1.8623204	0.0	20.1875	-42.375	3.5	-2.2520332	0.33361894	-0.019961052
1276816820380	4.5219555	15.28203	-2.2201166	6.2842617	0.0	20.875	-42.0625	2.5	-1.4998189	-0.13841487	-0.28769127
1276816820420	-1.9477097	6.782933	-1.7978859	-2.5241952	0.0	21.375	-42.375	0.1875	-0.663092	-0.24945834	0.2796252
1276816820460	-2.6014864	6.973618	0.23154591	-2.359994	0.0	21.125	-42.875	-2.125	-1.4373494	0.031098956	0.35705727
1276816820490	0.08172209	8.049625	0.5720546	-1.73631	0.0	20.1875	-43.375	-4.375	-1.5076566	0.07094308	-0.010151937
1276816820520	-0.42223078	8.430995	-2.8330324	-0.90238094	0.0	19.6875	-43.375	-6.4375	-0.71372694	-0.32379395	0.05003897
1276816820560	0.42223078	9.80665	-4.0588636	0.8151684	0.0	18.9375	-43.625	-7.6875	-0.7255507	-0.39209482	-0.04302898
1276816820601	0.6537767	10.079058	-1.2258313	0.3677044	0.0	18.9375	-43.125	-9.75	-0.9746441	-0.12077587	-0.064774126
1276816820640	1.3756552	11.795221	-1.56634	2.1713753	0.0	19.1875	-42.375	-11.3125	-0.9698915	-0.13114338	-0.11610366
1276816820670	3.486809	10.923519	-0.9942854	1.702899	0.0	19.9375	-42.0625	-11.8125	-1.1374375	-0.08649568	-0.3089789
1276816820700	2.1792557	10.460427	-1.1849703	0.9438772	0.0	20.875	-41.3125	-12.0625	-1.065204	-0.110448815	-0.20539539
1276816820730	-0.38136974	10.18802	-1.607201	0.51441	0.0	21.375	-40.8125	-11.5625	-0.8366783	-0.15635684	0.037415687
1276816820760	0.50395286	10.841797	-0.88532263	1.082901	0.0	21.875	-41.3125	-11.0625	-1.0292451	-0.08139002	-0.04644898
1276816820800	2.1111538	10.56939	-0.19068487	0.9732084	0.0	21.625	-41.5625	-10.5	-1.2078727	-0.017689917	-0.19714771
1276816820830	-0.0	10.691973	1.7297841	1.0243444	0.0	21.125	-42.0625	-9.5	-1.4455202	0.1603937	0.0
1276816820860	-3.1463003	12.408136	1.879608	3.1314325	0.0	20.1875	-43.125	-7.6875	-1.4804808	0.14579311	0.2483335
1276816820900	-5.8976107	14.9006605	-2.3018389	6.3831596	0.0	19.1875	-43.375	-4.625	-0.16446908	-0.14266168	0.37687635
1276816820940	-1.7570249	12.4489975	-2.2201166	2.9602451	0.0	19.1875	-43.375	-0.5625	-0.99010575	-0.17478494	0.14021175
1276816820971	2.6832085	9.043911	-2.0294318	-0.15727043	0.0	19.4375	-42.875	3.0	-1.4242935	-0.21189953	-0.28841433
1276816821010	2.7921712	7.3958488	-0.9942854	-1.8390031	0.0	20.4375	-41.5625	6.0625	-1.6317737	-0.12511651	-0.36098886
1276816821040	-0.38136974	5.243834	-0.19068487	-4.54551	0.0	21.375	-40.5625	7.875	-1.9033734	-0.03625196	0.072599456
1276816821070	-2.1792557	3.5276701	-0.0	-5.660132	0.0	21.625	-39.8125	8.875	2.8642638	-0.0	0.55337656
1276816821111	-2.6832085	2.7921712	0.08172209	-5.933343	0.0	21.625	-39.3125	9.125	2.2820845	0.021100355	0.7655003
1276816821150	-1.879608	2.5333846	-0.88532263	-6.530256	0.0	21.875	-39.3125	8.625	1.0013876	-0.2736137	0.63831985
1276816821190	-2.5606253	5.434519	-4.372132	-2.3765535	0.0	21.875	-39.3125	7.5625	-0.1482815	-0.62912244	0.44032526
1276816821220	-4.099725	15.785983	-10.991621	9.861109	0.0	21.875	-40.0625	4.8125	-0.49123275	-0.59301645	0.25409326
1276816821260	-3.445948	15.704261	-14.560152	11.884279	0.0	21.875	-41.3125	3.25	-0.42258447	-0.735901	0.21600424
1276816821300	-1.4982382	4.903325	-7.04172	-1.0961313	0.0	21.625	-41.8125	1.4375	-0.22729497	-0.9414554	0.2965458
1276816821330	-4.0588636	14.709975	-1.3075534	5.5089455	0.0	21.125	-42.625	0.4375	-1.1959139	-0.08547804	0.26922682
1276816821360	-3.1054392	14.2877445	-1.0760075	4.8542223	0.0	20.875	-42.375	0.9375	-1.3607991	-0.073459186	0.2140211
1276816821400	-5.134871	2.2201166	1.56634	-3.9972405	0.0	20.6875	-41.8125	0.6875	1.8984847	0.27299964	1.1627076
1276816821440	-1.7978859	4.2495484	3.0237172	-4.289955	0.0	20.6875	-41.5625	1.4375	-3.034558	0.5800945	0.40024066
1276816821472	1.6889231	11.563675	3.405087	2.3656816	0.0	21.375	-41.0625	1.4375	-1.9842135	0.2835232	-0.14502876
1276816821510	5.7477865	15.050485	-3.759216	6.736803	0.0	21.375	-40.5625	-0.0625	-1.3719878	-0.22923526	-0.3648066
1276816821540	-0.27240697	7.3958488	-0.95342433	-2.344626	0.0	21.625	-40.0625	-1.625	-1.2438347	-0.12812042	0.03681577
1276816821570	-4.440233	7.014479	-1.56634	-1.3584538	0.0	21.375	-40.0625	-3.875	0.26921022	-0.18648425	0.5643383
1276816821600	-2.7513103	7.668256	-0.29964766	-1.6542492	0.0	20.4375	-40.3125	-5.6875	-0.6542134	-0.036764037	0.34448594
1276816821640	-0.0	8.390134	0.3405087	-1.4096098	0.0	20.1875	-40.8125	-6.6875	-1.326744	0.040562157	0.0
1276816821680	-0.5720546	8.499097	-2.2609777	-0.9933691	0.0	19.4375	-41.0625	-8.25	-0.72389925	-0.25944287	0.06720633
1276816821710	1.2258313	9.915613	-3.0645783	0.64388466	0.0	19.4375	-40.8125	-9.5	-0.87575847	-0.29762042	-0.123002276
1276816821740	0.6537767	9.847511	-0.9125633	0.10464001	0.0	19.6875	-40.5625	-10.5	-1.0088301	-0.0922037	-0.06629276
1276816821780	1.879608	11.032481	-1.3075534	1.460926	0.0	20.1875	-40.0625	-11.8125	-1.0319045	-0.116307706	-0.1687501
1276816821820	3.336985	11.114203	-1.2666923	1.8666315	0.0	21.125	-39.8125	-11.8125	-1.1229124	-0.10872619	-0.29168165
1276816821860	1.920469	10.147159	-1.0760075	0.5765486	0.0	21.875	-39.8125	-12.0625	-1.0749823	-0.103816055	-0.18704931
1276816821900	-0.5720546	11.686258	-0.6537767	1.9118528	0.0	21.875	-39.3125	-12.5625	-0.9321897	-0.055819105	0.04891201
1276816821940	0.3405087	11.454713	1.4982382	1.7506475	0.0	21.375	-39.5625	-11.8125	-1.2831542	0.13000156	-0.029717766
1276816821980	-3.9499009	11.876944	0.46309182	2.718443	0.0	20.4375	-40.0625	-10.5	-0.65168345	0.036981557	0.32106233
1276816822020	-4.440233	13.143636	0.42223078	4.073159	0.0	18.9375	-40.8125	-8.25	-0.6164796	0.030425197	0.32578656
1276816822050	-3.5957718	13.293459	-1.8387469	4.086752	0.0	18.0	-41.8125	-4.125	-0.571031	-0.13273619	0.26417017
1276816822090	-0.19068487	11.032481	-1.7297841	1.3622417	0.0	17.75	-41.8125	-0.0625	-1.2017809	-0.1555011	0.01728223
1276816822120	2.6832085	8.19945	-1.525479	-1.0455046	0.0	18.1875	-41.0625	3.25	-1.4841806	-0.1750107	-0.31625885
1276816822160	1.0760075	6.851035	0.23154591	-2.8677678	0.0	18.9375	-39.8125	7.0625	-1.8917456	0.033375535	-0.15578505
1276816822200	-2.1383946	4.630918	0.14982383	-4.703653	0.0	19.9375	-38.0	9.125	-2.935471	0.029364185	0.43259427
1276816822230	-2.1792557	3.9499009	-0.6946377	-5.242289	0.0	20.4375	-36.5	10.375	-3.0742307	-0.15278096	0.50416595
1276816822270	-1.4982382	3.336985	-1.2666923	-5.935643	0.0	20.6875	-35.6875	11.1875	-0.97993517	-0.33336595	0.42200506
1276816822310	-0.61291564	2.7921712	-2.7513103	-5.8390822	0.0	20.875	-35.6875	11.1875	-0.5853985	-0.7662665	0.21608496
1276816822340	-0.10896278	6.973618	-4.9850473	-1.2337914	0.0	21.375	-35.6875	10.125	-1.0227282	-0.62056124	0.015623729
1276816822371	-0.61291564	15.431854	-8.812365	7.974676	0.0	21.375	-37.0	9.125	-1.0726699	-0.51852155	0.039696697
1276816822410	-1.7978859	17.924377	-13.865514	12.925886	0.0	21.375	-38.25	8.125	-0.7677931	-0.65598655	0.09996958
1276816822450	-4.3312707	5.5571017	-8.730643	1.4123259	0.0	21.125	-38.25	7.5625	0.23330912	-0.8917996	0.6620605
1276816822480	-3.255263	4.2904096	-0.08172209	-4.420461	0.0	20.1875	-39.0	8.125	2.3546338	-0.015173107	0.649065
1276816822510	-6.5922484	14.628253	1.920469	6.3529205	0.0	19.1875	-38.75	8.375	-3.02522	0.11912561	0.4233958
1276816822540	-6.5922484	12.721405	3.173541	4.8686104	0.0	18.9375	-38.0	8.625	3.103569	0.21797305	0.4781024
1276816822580	-2.9556155	6.5513873	0.9942854	-2.5509667	0.0	18.4375	-37.75	8.125	-3.0489516	0.13746794	0.42380443
1276816822636	1.2258313	6.0201936	2.7921712	-3.0581975	0.0	18.6875	-37.0	7.0625	-2.2294943	0.4265692	-0.2008738
1276816822670	-0.27240697	13.593107	-5.5571017	4.8810368	0.0	18.6875	-37.25	6.3125	-1.1333281	-0.38801426	0.020037398
1276816822705	-0.46309182	9.724928	-1.4982382	0.04390335	0.0	18.0	-37.75	5.3125	-1.5328336	-0.15268946	0.047583107
1276816822750	-1.920469	8.117727	4.399372	-0.3758402	0.0	17.5	-38.25	5.0625	-2.8078701	0.48531762	0.23230608
1276816822780	0.42223078	7.4639506	5.9793324	-0.23370647	0.0	16.25	-39.3125	5.8125	-2.5669143	0.67462885	-0.056509115
1276816822810	2.3699405	9.152874	4.2086873	0.54249287	0.0	15.25	-39.3125	6.8125	-2.2566376	0.4188062	-0.2533642
1276816822840	1.2258313	10.501288	0.7218784	0.7905588	0.0	14.0625	-39.3125	8.125	-2.0927389	0.06817247	-0.116205595
1276816822871	-0.040861044	9.765789	0.040861044	-0.040690422	0.0	12.8125	-39.8125	8.625	-2.1783125	0.0041840393	0.004184076
1276816822900	0.7627395	9.043911	2.070293	-0.49750328	0.0	12.125	-39.5625	8.625	-2.4038398	0.22426867	-0.08413824
1276816822940	2.6832085	8.662541	1.3756552	-0.6343193	0.0	11.625	-39.8125	8.875	-2.1186342	0.15054683	-0.30037612
1276816822972	3.718355	9.043911	-0.040861044	-0.028094292	0.0	11.125	-40.0625	8.875	-1.9006336	-0.00417865	-0.3900767
1276816823010	1.8387469	9.275456	0.7218784	-0.3231802	0.0	11.125	-40.0625	8.875	-1.9006336	-0.00417865	-0.3900767
1276816823040	-0.08172209	8.499097	0.61291564	-1.2850895	0.0	10.375	-41.3125	8.125	-2.408621	0.071987435	0.009615088
1276816823070	-0.29964766	8.62168	1.4573772	-1.0575294	0.0	9.4375	-41.5625	7.3125	-2.6286855	0.16735424	0.034741152
1276816823100	-0.95342433	9.80665	1.3756552	0.14180851	0.0	8.6875	-42.0625	6.8125	-2.7945216	0.13872273	0.09691763
1276816823140	-0.42223078	10.732834	1.3075534	1.0137796	0.0	7.9375	-42.875	6.3125	-2.6433477	0.12113722	0.039319824
1276816823171	-0.42223078	10.732834	1.6889231	1.0664568	0.0	7.4375	-42.625	6.3125	-2.721808	0.15596181	0.039319824
1276816823200	-0.0	11.495573	0.6946377	1.7098913	0.0	7.1875	-42.875	6.3125	-2.461534	0.060353152	0.0
1276816823241	0.6537767	11.304889	-0.27240697	1.5204029	0.0	7.4375	-43.125	6.0625	-2.0407357	-0.024051555	-0.057766985
1276816823280	1.1168685	10.800936	-0.46309182	1.0617476	0.0	6.5	-42.875	5.8125	-1.9247397	-0.042621925	-0.10303859
1276816823320	1.1168685	9.575105	0.10896278	-0.16601181	0.0	6.5	-42.875	6.5625	-2.1227674	0.011302685	-0.11611822
1276816823350	-0.38136974	9.343558	0.53119355	-0.440238	0.0	6.25	-42.625	7.5625	-2.7174575	0.056743044	0.040793683
1276816823380	-3.486809	9.534244	0.27240697	0.34883308	0.0	6.0	-41.5625	9.875	2.4746056	0.026826851	0.35060504
1276816823410	-4.671779	10.038197	0.50395286	1.2768908	0.0	6.75	-40.3125	12.1875	2.4793346	0.045484256	0.4355867
1276816823440	-4.140586	11.141444	-0.50395286	2.0899963	0.0	6.75	-38.5	15.0	2.6539536	-0.042373598	0.35582006
1276816823474	-1.7297841	11.495573	-1.334794	1.8947182	0.0	7.1875	-36.25	17.3125	-3.010423	-0.114320464	0.14935343
1276816823510	0.5720546	11.114203	-1.3075534	1.3988152	0.0	7.4375	-34.1875	19.0625	-2.591942	-0.11695535	-0.051425207
1276816823540	0.3405087	9.00305	-1.2666923	-0.7085533	0.0	7.9375	-31.875	21.125	-2.6365674	-0.13967982	-0.037803464
1276816823570	-1.4165162	8.049625	-1.8387469	-1.4290628	0.0	8.6875	-29.875	22.625	-2.9240627	-0.22128561	0.17418954
1276816823600	-2.4925237	7.668256	-2.2609777	-1.4324732	0.0	9.875	-28.0625	23.9375	-3.093919	-0.27338684	0.31427208
1276816823630	-3.9499009	6.701211	-2.2609777	-1.7060347	0.0	11.125	-25.75	24.4375	2.9227405	-0.2828691	0.53261185
1276816823670	-4.2086873	5.407278	-1.6889231	-2.7494435	0.0	12.125	-24.5	24.9375	2.842993	-0.24166434	0.6613918
1276816823710	-2.982856	3.759216	-1.7297841	-4.7055435	0.0	13.0625	-23.5	24.4375	2.8386202	-0.3459598	0.6707516
1276816823751	-2.2609777	2.982856	-3.1054392	-4.9431944	0.0	13.0625	-22.9375	24.4375	2.1174264	-0.69258046	0.6485957
1276816823790	-2.3018389	5.597963	-6.238119	-1.1147127	0.0	12.8125	-24.0	24.1875	-0.8115074	-0.8004798	0.3901175
1276816823830	-1.9885708	11.686258	-9.193735	5.1949434	0.0	12.375	-25.5	22.875	-1.7453873	-0.65966296	0.16854875
1276816823870	-3.7864566	10.760075	-9.384419	4.9643955	0.0	11.375	-27.0625	22.375	-0.9169427	-0.6884297	0.33836532
1276816823910	-5.175732	10.882658	-4.7943625	3.1627893	0.0	11.125	-28.0625	21.625	2.9213033	-0.3786497	0.44393328
1276816823940	-6.742072	12.299174	-1.7570249	4.32885	0.0	10.875	-28.3125	21.125	2.909389	-0.12462106	0.5014392
1276816823970	-3.6774938	4.944186	-0.50395286	-3.6241827	0.0	10.875	-27.3125	21.375	2.7620327	-0.081603765	0.6395224
1276816824010	-4.7535014	0.88532263	0.7627395	-4.9116178	0.0	11.125	-25.75	21.125	2.3567972	0.15645662	1.3866596
1276816824050	-3.3642259	11.223166	-4.862464	2.8788157	0.0	12.125	-25.25	20.375	-2.6531653	-0.3933772	0.29123408
1276816824090	7.164303	12.408136	5.243834	5.4507055	0.0	12.125	-25.0	20.625	-2.3923194	0.35084578	-0.5236267
1276816824130	-2.5333846	8.730643	-3.7864566	0.04116249	0.0	11.375	-25.75	20.0625	-2.6932473	-0.39466313	0.2824157
1276816824170	-4.3312707	10.460427	-5.434519	2.751791	0.0	11.375	-27.5625	19.3125	3.133886	-0.447528	0.39257014
1276816824210	-2.9147544	7.205164	-0.7627395	-1.9969158	0.0	10.125	-29.0625	18.3125	3.0425436	-0.09782117	0.38441133
1276816824240	-0.95342433	8.281172	-2.3018389	-1.1588011	0.0	9.4375	-30.875	16.5	-2.4766116	-0.2694224	0.11462688
1276816824270	0.6537767	8.580819	-2.1792557	-0.9293175	0.0	9.6875	-31.875	15.25	-2.1059134	-0.2480204	-0.07604356
1276816824314	-0.23154591	7.504812	-1.1168685	-2.2156549	0.0	8.6875	-32.625	14.25	-2.4492455	-0.14766677	0.03084321
1276816824350	-2.6014864	8.076866	-0.10896278	-1.3204632	0.0	7.9375	-33.4375	13.6875	2.940807	-0.01284037	0.3115986
1276816824390	-2.5333846	8.853226	-0.3405087	-0.59179306	0.0	7.6875	-34.4375	12.4375	2.9565125	-0.036960557	0.27870598
1276816824420	-2.1792557	10.038197	-3.1463003	0.936429	0.0	7.4375	-35.6875	10.875	0.8289672	-0.2972246	0.21377902
1276816824450	0.10896278	10.95076	-2.1792557	1.3593769	0.0	8.1875	-36.75	9.375	-1.8047789	-0.19642916	-0.00994992
1276816824480	0.27240697	11.372991	-0.7218784	1.5924816	0.0	8.6875	-37.75	7.875	-2.0901818	-0.06336989	-0.023947518
1276816824510	0.313268	11.75436	-3.255263	2.3941631	0.0	8.9375	-38.0	7.5625	-1.2979648	-0.27007845	-0.02664491
1276816824540	0.3405087	10.528529	-3.759216	1.3780527	0.0	8.9375	-38.25	7.875	-1.0876265	-0.34277648	-0.03233026
1276816824580	1.1441092	10.56939	-2.2201166	1.0538244	0.0	8.9375	-38.5	7.875	-1.5769976	-0.2058729	-0.10782757
1276816824610	1.9477097	11.645397	-0.29964766	2.004304	0.0	8.6875	-38.5	8.875	-2.0601318	-0.025373042	-0.16571762
1276816824640	0.53119355	11.563675	0.08172209	1.7695074	0.0	8.9375	-38.0	9.875	-2.330638	0.0070595765	-0.045904122
1276816824681	0.38136974	12.489859	0.313268	2.692956	0.0	9.6875	-37.25	11.6875	-2.432433	0.025064856	-0.030524869
1276816824720	-3.8681788	13.484144	-1.9885708	4.361602	0.0	10.125	-36.5	14.75	3.1058295	-0.14081894	0.2793666
1276816824760	-0.88532263	8.853226	-2.4516625	-0.57767105	0.0	11.375	-34.4375	17.8125	-2.3483453	-0.26887628	0.09966866
1276816824800	2.152015	8.281172	-2.4925237	-0.89476776	0.0	11.875	-32.625	20.875	-2.1196272	-0.28346646	-0.25424477
1276816824840	3.7864566	8.240311	-0.88532263	-0.69491196	0.0	12.375	-30.625	22.875	-2.2786164	-0.0973164	-0.4307294
1276816824880	-0.040861044	7.082581	-1.0760075	-2.642684	0.0	13.8125	-27.8125	24.4375	-2.5419712	-0.1507677	0.0057691666
1276816824920	-2.070293	6.3198414	-1.56634	-2.9743786	0.0	15.0625	-26.25	25.1875	-2.8079755	-0.23131336	0.31656927
1276816824950	-2.9147544	6.3607025	-1.3075534	-2.6887832	0.0	16.5	-24.75	24.9375	-2.9010377	-0.18474936	0.4296885
1276816824980	-3.405087	5.829509	-1.2258313	-2.9451303	0.0	17.75	-24.5	24.9375	-2.9877987	-0.17961727	0.52865535
1276816825020	-3.8273177	4.8216033	-2.070293	-3.3118577	0.0	18.0	-25.25	24.4375	3.0217743	-0.32442307	0.67094
1276816825050	-3.759216	7.8861814	-4.5628166	0.04945755	0.0	17.5	-26.25	23.6875	-2.5387762	-0.4813126	0.4448214
1276816825090	-2.0294318	10.528529	-9.656827	4.6232786	0.0	17.25	-27.8125	22.875	-1.2823682	-0.73316145	0.19042009
1276816825130	3.486809	11.264028	-10.800936	6.183859	0.0	17.25	-28.8125	22.125	-1.6175294	-0.74158716	-0.30019745
1276816825160	2.3426998	7.5456724	-6.973618	0.7316971	0.0	17.0	-29.875	21.375	-1.5899539	-0.72313374	-0.3010338
1276816825200	-1.2666923	7.082581	-3.486809	-1.8113203	0.0	17.0	-30.875	20.875	-1.9286804	-0.45126665	0.17697507
1276816825230	-4.2495484	11.604536	1.334794	2.6233778	0.0	16.5	-31.375	20.875	-2.9520674	0.1075921	0.3510309
1276816825270	-7.7363577	11.917805	-3.486809	4.8235626	0.0	15.5	-32.125	20.625	2.7721665	-0.24064527	0.5757724
1276816825310	-2.0294318	5.6252036	-1.3075534	-3.685277	0.0	15.0625	-32.375	20.375	-2.8886213	-0.21526323	0.34624135
1276816825340	6.4424243	10.18802	5.829509	3.5830374	0.0	15.25	-32.375	19.8125	-2.2855325	0.4504526	-0.56386936
1276816825380	1.879608	10.147159	0.95342433	0.5570736	0.0	15.75	-33.4375	18.8125	-2.3542614	0.09212657	-0.18315889
1276816825420	-3.1054392	9.466142	-5.012288	1.3456869	0.0	16.0	-34.6875	16.75	-1.1261735	-0.46613652	0.31699485
1276816825460	-0.5720546	7.5865335	-1.0351465	-2.1284819	0.0	16.0	-36.5	14.75	-2.196556	-0.13522863	0.075261526
1276816825500	-2.1383946	8.499097	-0.040861044	-1.042573	0.0	15.0625	-38.25	12.9375	-2.7492805	-0.00466235	0.2464864
1276816825530	-0.42223078	8.158588	-1.0760075	-1.5665874	0.0	14.3125	-39.5625	10.375	-1.9604782	-0.13095643	0.051706787
1276816825570	-0.040861044	9.302697	-2.9147544	-0.057925224	0.0	13.3125	-40.5625	8.625	-1.2811321	-0.30363223	0.0043923585
1276816825600	-0.84446156	9.275456	-0.38136974	-0.4850273	0.0	12.5625	-40.8125	6.8125	-2.0953019	-0.0409238	0.09079229
1276816825640	-0.19068487	9.956474	-1.6889231	0.2938547	0.0	12.5625	-41.5625	4.0	-1.3175215	-0.16800092	0.019149505
1276816825670	1.1441092	10.882658	-0.6946377	1.1580086	0.0	13.0625	-41.5625	2.75	-1.5830443	-0.06339488	-0.10474665
1276816825710	2.070293	10.269742	-0.14982383	0.6707611	0.0	13.5625	-41.3125	2.0	-1.6386825	-0.014300186	-0.19892539
1276816825750	1.6480621	9.343558	-1.8387469	-0.1423254	0.0	14.0625	-42.0625	1.4375	-1.2942066	-0.19142829	-0.17458905
1276816825790	0.23154591	12.067628	-0.88532263	2.2956247	0.0	14.0625	-42.0625	1.75	-1.4828141	-0.07321881	-0.019185005
1276816825830	0.27240697	11.34575	0.08172209	1.5426636	0.0	13.5625	-42.375	2.5	-1.7607588	0.007200682	-0.024004992
1276816825870	-3.568531	10.528529	0.61291564	1.3270826	0.0	13.8125	-42.375	3.5	3.0542345	0.05507817	0.3267873
1276816825910	-5.5162406	12.026767	-1.4573772	3.5048475	0.0	13.5625	-41.8125	5.8125	1.7638092	-0.10970249	0.4300352
1276816825950	-2.6832085	12.721405	-2.5606253	3.4444084	0.0	13.5625	-40.5625	9.375	-1.7697695	-0.19446263	0.20787391
1276816825980	0.14982383	10.038197	-1.2666923	0.31225967	0.0	14.3125	-38.75	13.1875	-2.0773053	-0.12550996	-0.0149242645
1276816826010	0.84446156	8.19945	-1.4573772	-1.4359856	0.0	15.0625	-36.5	16.5	-2.0694401	-0.17499714	-0.102628194
1276816826040	0.8036005	6.701211	-1.0351465	-2.9785075	0.0	16.25	-33.9375	18.5625	-2.1616354	-0.15218678	-0.11934877
1276816826080	-1.2258313	5.134871	-1.1441092	-4.404933	0.0	17.0	-32.125	20.0625	-2.5001419	-0.21342123	0.23434076
1276816826120	-2.3699405	4.2904096	-1.2258313	-4.7542357	0.0	17.25	-30.875	20.875	-3.12695	-0.24506861	0.50466937
1276816826160	-1.879608	4.4810944	-1.607201	-4.688425	0.0	17.0	-30.375	21.875	-2.7641835	-0.31941932	0.39716285
1276816826200	-2.6014864	5.47538	-3.8681788	-2.6156611	0.0	16.5	-30.625	21.875	-1.4307747	-0.56796813	0.44354984
1276816826230	-2.1792557	10.038197	-5.8976107	2.0380259	0.0	16.25	-31.375	21.125	-1.7147709	-0.52118987	0.21377903
1276816826270	-2.1383946	12.571581	-12.639683	8.148264	0.0	15.75	-32.9375	19.8125	-0.7542863	-0.78096884	0.16848491
