#timestamp	accel_x	accel_y	accel_z	accel_mag	temperature	mag_x	mag_y	mag_z	azimuth	pitch	roll
1277247801559	1.7297841	4.7126403	8.471856	0.04086113	0.0	-9.25	-28.625	-24.75	-3.052732	1.0358663	-0.35178444
1277247801598	1.879608	4.671779	8.281172	-0.11457825	0.0	-7.75	-28.625	-25.0	-2.8620317	1.0244478	-0.38251543
1277247801650	1.5390993	4.5628166	8.471856	-0.061883926	0.0	-6.5	-28.375	-25.0	-2.918489	1.0539361	-0.32532835
1277247801687	1.6480621	4.5219555	8.539958	-0.0038404465	0.0	-5.75	-28.625	-25.0	-2.8122208	1.0575895	-0.34949633
1277247801727	1.7297841	4.4810944	8.349273	-0.17427158	0.0	-5.75	-29.625	-25.0	-2.7616885	1.0487337	-0.36839533
1277247801757	1.5390993	4.5219555	8.390134	-0.15205193	0.0	-6.25	-30.125	-25.25	-2.8779545	1.0532382	-0.32806244
1277247801789	1.607201	4.5628166	8.390134	-0.12177849	0.0	-5.75	-30.375	-24.75	-2.8221288	1.0477737	-0.3386679
1277247801827	1.6480621	4.4810944	8.349273	-0.18861103	0.0	-5.5	-30.125	-25.5	-2.772398	1.0513309	-0.35242686
1277247801857	1.56634	4.630918	8.349273	-0.13146687	0.0	-6.0	-29.625	-25.5	-2.8564503	1.0410942	-0.32615584
1277247801887	1.6480621	4.7943625	8.390134	-0.003774643	0.0	-5.75	-29.125	-25.5	-2.8172183	1.0272596	-0.33109605
1277247801929	1.607201	4.903325	8.662541	0.27627182	0.0	-6.25	-29.375	-26.5	-2.88209	1.0335674	-0.31674224
1277247801968	1.56634	4.9850473	9.302697	0.86313343	0.0	-6.75	-29.125	-26.0	-2.9704738	1.0590141	-0.3044398
1277247802007	1.9477097	4.6036777	8.689782	0.21830559	0.0	-6.25	-28.875	-26.5	-2.7105536	1.048779	-0.40024063
1277247802047	1.8387469	3.568531	8.921328	-0.023732185	0.0	-6.75	-27.875	-27.5	-2.6949732	1.147961	-0.47578663
1277247802087	2.2609777	2.7240696	8.853226	-0.27186203	0.0	-7.5	-26.375	-28.0	-2.4320672	1.1904022	-0.69276786
1277247802127	2.3699405	2.5606253	8.853226	-0.29071522	0.0	-8.25	-24.875	-29.25	-2.3844993	1.1953878	-0.7467434
1277247802167	2.7649305	2.6423476	8.539958	-0.44942188	0.0	-8.75	-23.125	-30.25	-2.213482	1.149743	-0.8080643
1277247802197	3.0237172	2.6014864	9.302697	0.31514645	0.0	-9.5	-22.875	-30.25	-2.2172215	1.1657284	-0.8603182
1277247802235	2.982856	2.7921712	9.043911	0.117360115	0.0	-10.0	-22.625	-30.75	-2.2663767	1.1464697	-0.8184051
1277247802267	3.1463003	2.7649305	9.043911	0.16011333	0.0	-9.75	-22.625	-30.75	-2.174102	1.1370722	-0.849825
1277247802297	3.405087	2.7240696	8.962189	0.16009426	0.0	-10.25	-22.875	-30.25	-2.1071184	1.1179588	-0.8960554
1277247802337	3.5957718	2.6423476	9.234595	0.44953442	0.0	-10.25	-22.625	-30.25	-2.0512612	1.1206715	-0.93706286
1277247802378	3.7864566	2.7649305	9.466142	0.75696373	0.0	-10.75	-22.375	-29.75	-2.0702355	1.110922	-0.9400778
1277247802417	3.990762	2.4925237	10.038197	1.2795687	0.0	-12.0	-21.875	-29.75	-2.0968611	1.1324769	-1.0125039
1277247802458	3.718355	1.7978859	8.539958	-0.32037354	0.0	-13.5	-20.625	-30.5	-1.9958297	1.1203284	-1.1204222
1277247802497	3.8681788	1.0351465	8.19945	-0.6816673	0.0	-14.0	-19.625	-30.5	-1.7843789	1.1165034	-1.3093175
1277247802539	4.0588636	0.7218784	8.689782	-0.18855286	0.0	-14.5	-19.125	-31.0	-1.7312396	1.1278259	-1.3947845
1277247802577	4.3312707	1.879608	8.539958	-0.048386574	0.0	-13.75	-19.375	-31.5	-1.7750305	1.0657486	-1.1613591
1277247802617	3.0237172	2.7240696	9.724928	0.7355337	0.0	-12.25	-20.625	-31.0	-2.4807215	1.1744497	-0.8374837
1277247802657	2.6423476	3.1054392	9.575105	0.60048103	0.0	-10.75	-21.375	-30.75	-2.5964084	1.168214	-0.7050031
1277247802707	2.6014864	3.2961242	8.499097	-0.3268385	0.0	-8.75	-23.375	-30.25	-2.3753905	1.1119114	-0.66815543
1277247802754	2.5606253	3.405087	9.152874	0.28921604	0.0	-7.25	-24.625	-29.25	-2.3802474	1.135147	-0.64477986
1277247802787	2.4516625	3.5276701	8.689782	-0.11297035	0.0	-6.25	-25.625	-28.5	-2.3529453	1.1116654	-0.60734934
1277247802818	2.7649305	4.0180025	7.9679036	-0.4644518	0.0	-5.5	-27.125	-28.0	-2.1503658	1.0215034	-0.6027188
1277247802857	2.8330324	4.140586	7.8861814	-0.45986557	0.0	-5.25	-27.125	-27.0	-2.1314702	1.0041984	-0.6000502
1277247802899	3.0237172	4.3312707	8.117727	-0.12159634	0.0	-6.0	-27.375	-26.25	-2.1721215	0.99392045	-0.6094585
1277247802938	3.1054392	4.2086873	7.9270425	-0.309556	0.0	-6.5	-27.875	-26.0	-2.1635172	0.98755306	-0.6356888
1277247802977	3.1463003	4.3312707	8.008764	-0.1734047	0.0	-7.5	-28.125	-25.75	-2.2398686	0.9815634	-0.6282351
1277247803017	3.1054392	4.0180025	8.008764	-0.32359123	0.0	-7.5	-28.375	-25.5	-2.24791	1.0056942	-0.6579851
1277247803047	3.2961242	3.9499009	7.9679036	-0.32226086	0.0	-7.25	-29.125	-25.75	-2.158375	0.9974808	-0.6954163
1277247803088	3.336985	4.0588636	7.8861814	-0.33027458	0.0	-7.75	-28.625	-25.75	-2.1639307	0.98305255	-0.68810046
1277247803127	3.5957718	4.0588636	8.049625	-0.10095978	0.0	-8.0	-28.375	-26.25	-2.0910563	0.9779823	-0.7249736
1277247803168	3.5957718	3.8273177	8.158588	-0.104047775	0.0	-8.75	-27.875	-27.0	-2.1043196	0.99888134	-0.75421566
1277247803207	3.6774938	3.8273177	8.349273	0.08691692	0.0	-9.0	-27.125	-27.25	-2.097176	1.0045286	-0.76543707
1277247803247	3.759216	3.5957718	8.240311	-0.06170273	0.0	-9.0	-27.375	-27.75	-2.0288846	1.007685	-0.8076168
1277247803287	3.718355	3.718355	7.8861814	-0.3280325	0.0	-9.25	-27.125	-27.5	-2.0232158	0.9826976	-0.7853982
1277247803327	3.718355	3.6774938	8.117727	-0.15016937	0.0	-9.25	-26.625	-28.0	-2.027378	0.99848354	-0.790923
1277247803374	3.9090397	3.718355	8.471856	0.23720932	0.0	-9.25	-26.375	-28.25	-1.9989157	1.0037405	-0.810393
1277247803407	3.7864566	3.8681788	8.580819	0.3388176	0.0	-9.0	-25.875	-28.25	-2.0383556	1.0080228	-0.7747224
1277247803447	3.718355	4.099725	8.962189	0.7268553	0.0	-8.75	-25.625	-28.75	-2.0836477	1.0175568	-0.7366563
1277247803477	3.759216	4.2086873	9.00305	0.8187752	0.0	-8.5	-25.625	-28.25	-2.0797424	1.0109032	-0.7290476
1277247803527	3.6774938	3.8681788	8.471856	0.20629692	0.0	-8.75	-25.375	-28.25	-2.0366957	1.0086071	-0.76013273
1277247803567	3.255263	3.445948	8.076866	-0.44144535	0.0	-8.25	-25.625	-28.0	-2.0996325	1.0400578	-0.75695056
1277247803597	2.9556155	3.5957718	8.049625	-0.5081711	0.0	-7.75	-26.125	-27.75	-2.207576	1.0465325	-0.6879943
1277247803641	2.4925237	3.8273177	7.6954966	-0.8578119	0.0	-6.75	-27.125	-27.5	-2.3299427	1.0351592	-0.57725036
1277247803687	1.4165162	5.012288	8.308413	-5.674362E-4	0.0	-5.25	-28.125	-26.5	-2.889116	1.0108268	-0.27542612
1277247803784	1.1441092	5.706926	8.008764	0.09376907	0.0	-3.6875	-28.875	-25.5	-2.9037123	0.9423329	-0.19785447
1277247803817	0.9942854	6.0882955	7.8589406	0.18428993	0.0	-0.9375	-30.625	-23.5	-2.7376697	0.905294	-0.1618819
1277247803857	1.1168685	5.8976107	7.0553403	-0.5434418	0.0	1.0625	-32.625	-21.0	-2.5529394	0.8658586	-0.18716004
1277247803887	0.53119355	7.164303	6.701211	0.017586708	0.0	2.8125	-34.375	-18.75	-2.630352	0.7506443	-0.07400906
1277247803917	0.7627395	7.3958488	6.8237944	0.28515434	0.0	4.0625	-36.375	-16.5	-2.5678806	0.7425542	-0.102767445
1277247803957	0.313268	7.9270425	6.66035	0.5517473	0.0	4.3125	-37.125	-14.75	-2.707153	0.6983964	-0.039498348
1277247804001	-0.46309182	8.662541	6.782933	1.205265	0.0	4.8125	-37.375	-13.75	-2.9172237	0.66360795	0.053408276
1277247804037	-0.61291564	8.349273	6.742072	0.94237614	0.0	5.125	-37.125	-14.25	-2.9503353	0.67798674	0.073278025
1277247804078	-3.486809	8.662541	6.891896	1.7991972	0.0	5.625	-36.625	-15.25	2.3956647	0.6358102	0.3826732
1277247804121	-2.6423476	6.891896	5.5571017	-0.5675154	0.0	7.375	-35.375	-17.0	2.5085547	0.64534515	0.366114
1277247804172	-2.6423476	5.284695	5.325556	-1.8523088	0.0	11.125	-32.875	-19.0	2.651409	0.7335565	0.4636476
1277247804227	-1.879608	3.2961242	2.9147544	-5.021971	0.0	16.6875	-29.625	-20.25	3.103145	0.6550324	0.51825565
1277247804258	0.040861044	-0.38136974	0.040861044	-9.420927	0.0	22.4375	-24.625	-22.25	0.6675949	0.10613282	-3.034857
1277247804287	2.070293	3.255263	2.7240696	-5.084002	0.0	26.0	-20.875	-24.75	-1.0707872	0.61481786	-0.56645846
1277247804327	2.3426998	4.671779	12.721405	3.946456	0.0	28.5	-18.125	-26.0	-1.3736792	1.1809939	-0.4648131
1277247804358	-5.134871	1.607201	11.304889	2.713354	0.0	28.75	-15.625	-28.0	2.784612	1.1265761	1.2674584
1277247804387	-2.7240696	1.4573772	11.75436	2.3469286	0.0	28.0	-13.625	-29.0	-3.08906	1.3137779	1.0795424
1277247804417	-3.759216	2.6832085	11.536434	2.6199589	0.0	28.5	-10.8125	-28.75	-2.7063458	1.1899904	0.95088965
1277247804447	-4.5900574	2.5333846	11.223166	2.5806875	0.0	28.25	-8.0625	-29.5	-2.6859648	1.1337818	1.0664735
1277247804478	-4.2086873	2.7240696	10.528529	1.8545475	0.0	28.5	-6.8125	-29.0	-2.4774094	1.1263958	0.9963573
1277247804507	-3.759216	2.7240696	9.765789	1.0064392	0.0	29.0	-6.8125	-28.75	-2.396844	1.1270396	0.94372565
1277247804537	-3.336985	2.4516625	9.425281	0.48810768	0.0	29.25	-6.8125	-29.25	-2.422437	1.1568528	0.93716335
1277247804567	-3.0645783	2.152015	9.302697	0.22145939	0.0	29.0	-6.8125	-29.25	-2.4960716	1.1881027	0.9585805
1277247804599	-3.1463003	2.152015	9.234595	0.1837511	0.0	29.0	-6.5625	-29.75	-2.4844308	1.17932	0.9709013
1277247804645	-3.0237172	2.070293	9.112013	0.014640808	0.0	29.25	-6.3125	-29.5	-2.4853187	1.1884226	0.9704232
1277247804677	-3.1463003	1.879608	8.662541	-0.40070724	0.0	29.0	-6.5625	-28.75	-2.5842957	1.170549	1.0322889
1277247804717	-3.405087	2.0294318	8.580819	-0.35447216	0.0	28.75	-7.3125	-29.0	-2.588158	1.1380415	1.0333232
1277247804757	-4.440233	2.070293	9.043911	0.47897625	0.0	29.0	-7.5625	-28.25	-2.7327218	1.0743414	1.134505
1277247804797	-5.366417	1.6480621	9.656827	1.363348	0.0	29.0	-7.8125	-28.25	-3.052869	1.0442195	1.2728325
1277247804827	-5.8158884	1.4165162	9.615966	1.520215	0.0	29.25	-7.5625	-28.25	3.1018689	1.0139991	1.3318882
1277247804857	-6.238119	1.4982382	9.425281	1.5948744	0.0	29.5	-6.3125	-28.25	-3.0586312	0.973161	1.3350862
1277247804897	-6.469665	1.3756552	9.043911	1.397872	0.0	28.75	-5.3125	-28.5	-3.0263605	0.93933576	1.361285
1277247804937	-6.5922484	1.0760075	8.539958	1.0352325	0.0	28.25	-4.3125	-28.25	-3.08393	0.9070377	1.4089999
1277247804977	-5.407278	1.2666923	7.8861814	-0.16118431	0.0	27.75	-3.8125	-28.0	-2.7681503	0.9572391	1.3406887
1277247805017	-4.2904096	1.4165162	7.205164	-1.3020325	0.0	27.75	-4.3125	-27.25	-2.6683552	1.010704	1.2519057
1277247805057	-3.9771416	1.7570249	7.205164	-1.3912363	0.0	28.5	-5.0625	-27.25	-2.5382	1.0278431	1.1547985
1277247805097	-3.9771416	1.7570249	7.504812	-1.1333008	0.0	29.0	-5.8125	-27.0	-2.631758	1.045694	1.1547985
1277247805137	-3.9771416	1.56634	7.8180795	-0.8963499	0.0	29.5	-6.5625	-27.25	-2.7973588	1.0704583	1.1956154
1277247805167	-3.9499009	1.56634	8.349273	-0.43832588	0.0	29.5	-7.0625	-27.25	-2.8508213	1.1000359	1.1932662
1277247805207	-3.9499009	1.5390993	8.62168	-0.19915771	0.0	29.5	-7.8125	-26.5	-2.924009	1.1138213	1.1992396
1277247805237	-4.2086873	1.56634	8.689782	-0.025096893	0.0	30.0	-7.8125	-26.0	-2.9411144	1.0938147	1.2145106
1277247805267	-4.399372	1.7570249	8.499097	-0.07647705	0.0	30.75	-7.8125	-25.25	-2.874767	1.0623019	1.1908238
1277247805297	-4.3312707	1.9477097	8.281172	-0.2603798	0.0	31.0	-8.0625	-24.75	-2.8000832	1.0501084	1.148204
1277247805337	-4.372132	2.1111538	8.049625	-0.40617275	0.0	31.25	-7.5625	-24.5	-2.6978543	1.028062	1.1209496
1277247805377	-4.5628166	2.1111538	8.049625	-0.31598473	0.0	31.25	-8.3125	-24.5	-2.7633312	1.0125067	1.1374425
1277247805407	-4.7126403	2.152015	7.8861814	-0.37097263	0.0	31.0	-8.0625	-24.75	-2.7323024	0.98955774	1.1424282
1277247805437	-5.284695	2.1111538	7.8180795	-0.13673115	0.0	31.75	-7.5625	-24.5	-2.7551596	0.94159	1.1907344
1277247805467	-5.7886477	2.0294318	7.8589406	0.1628027	0.0	31.75	-8.3125	-23.75	-2.9078937	0.9080445	1.2335975
1277247805507	-6.1291566	1.920469	7.9679036	0.42771626	0.0	32.0	-7.8125	-22.75	-2.956981	0.8923423	1.2671524
1277247805547	-6.2789803	1.879608	7.9270425	0.47909355	0.0	32.5	-8.0625	-21.5	-3.010171	0.8799114	1.2799367
1277247805587	-6.2108784	1.8387469	7.9270425	0.4302435	0.0	33.0	-8.3125	-21.0	-3.0348642	0.8857032	1.282965
1277247805627	-6.3198414	1.7297841	7.8180795	0.39408112	0.0	33.75	-7.8125	-20.5	-3.039083	0.8732544	1.3036327
1277247805657	-6.0474343	1.879608	8.240311	0.5859966	0.0	33.75	-8.0625	-21.0	-2.9847262	0.91555053	1.269451
1277247805697	-6.2108784	1.920469	8.62168	0.9913397	0.0	33.5	-8.3125	-21.25	-3.0095823	0.92472017	1.2709111
1277247805737	-6.701211	1.7978859	8.499097	1.1648254	0.0	32.75	-8.5625	-21.75	-3.1242352	0.88616765	1.3086765
1277247805777	-6.0474343	1.3756552	7.504812	-0.07083511	0.0	32.25	-8.8125	-22.75	3.0143785	0.8801678	1.347125
1277247805817	-5.053149	1.3075534	6.973618	-1.0960035	0.0	31.75	-9.0625	-23.5	3.075272	0.92827183	1.31759
1277247805857	-4.9850473	0.9942854	7.3141265	-0.8995886	0.0	31.0	-9.0625	-24.0	2.9231892	0.96344143	1.3739263
1277247805897	-4.8216033	1.0760075	7.4639506	-0.85588455	0.0	30.5	-9.3125	-24.5	2.9555147	0.9861179	1.3512303
1277247805937	-4.7943625	1.1168685	7.8180795	-0.56783676	0.0	29.75	-9.5625	-25.5	2.9434433	1.008853	1.3419237
1277247805977	-5.202973	1.4982382	8.308413	0.11027241	0.0	30.0	-9.8125	-25.25	3.052605	0.993244	1.2904234
1277247806017	-5.325556	1.334794	8.921328	0.66871643	0.0	29.75	-10.0625	-26.0	2.950016	1.0191221	1.3252159
1277247806057	-5.175732	1.607201	8.662541	0.4115162	0.0	29.5	-10.3125	-26.0	3.0550914	1.0117455	1.2697105
1277247806097	-5.366417	2.2201166	8.158588	0.2078352	0.0	29.25	-10.5625	-25.25	-3.0090978	0.95217496	1.1785309
1277247806137	-5.175732	2.7240696	7.43671	-0.34549713	0.0	28.75	-11.0625	-25.0	-2.7447655	0.90435356	1.0863184
1277247806177	-4.862464	3.1463003	7.4639506	-0.35925198	0.0	29.0	-12.0625	-24.5	-2.6018941	0.9108964	0.9964915
1277247806217	-4.944186	3.2961242	7.273266	-0.41464233	0.0	29.25	-12.875	-24.5	-2.5859022	0.88578224	0.9827937
1277247806257	-5.7886477	3.568531	7.668256	0.4424963	0.0	29.75	-14.125	-24.0	-2.7450745	0.845322	1.018354
1277247806297	-5.6660647	3.1054392	8.281172	0.6969614	0.0	30.0	-15.375	-23.0	-3.0663707	0.908223	1.0694308
1277247806337	-5.434519	2.7649305	7.7772183	0.075858116	0.0	30.0	-17.125	-22.0	3.0199955	0.90587944	1.1001558
1277247806377	-6.1700177	2.9556155	6.510526	-0.3625126	0.0	29.5	-18.375	-21.0	2.7229142	0.7606221	1.1240661
1277247806417	-5.5162406	3.214402	7.6954966	0.19244766	0.0	29.0	-19.125	-20.5	3.0011435	0.8782444	1.0431825
1277247806457	-5.6252036	3.636633	7.6273947	0.3444662	0.0	28.75	-20.125	-20.25	3.0424519	0.85015815	0.99689317
1277247806497	-5.434519	3.9499009	7.164303	0.014904976	0.0	28.75	-20.875	-20.0	-3.1402051	0.817513	0.9422982
1277247806537	-5.5571017	3.336985	7.0553403	-0.22569656	0.0	28.75	-21.875	-19.75	2.848129	0.8277223	1.0300165
1277247806577	-5.366417	2.982856	8.62168	0.77773666	0.0	29.0	-23.125	-19.75	2.8193886	0.9519804	1.0634823
1277247806627	-4.9850473	3.1463003	7.43671	-0.31694221	0.0	29.25	-23.375	-19.75	2.9003873	0.90053695	1.0077885
1277247806657	-5.243834	3.336985	7.504812	-0.06214142	0.0	29.75	-23.125	-19.0	2.9337227	0.8790889	1.0040671
1277247806687	-5.706926	3.173541	7.3141265	-0.0017118454	0.0	30.5	-23.625	-18.0	2.801517	0.8419805	1.0632926
1277247806717	-5.8158884	2.8330324	6.851035	-0.38394833	0.0	31.0	-23.625	-16.75	2.7017717	0.8140556	1.1175061
1277247806758	-6.5922484	2.3018389	6.742072	-0.10037708	0.0	31.5	-24.375	-16.0	2.4328096	0.7678774	1.2348579
1277247806798	-6.3607025	2.1111538	6.782933	-0.27125835	0.0	31.5	-25.125	-15.5	2.4255655	0.791407	1.2503312
1277247806837	-5.597963	2.1111538	7.014479	-0.58726406	0.0	31.25	-25.625	-14.75	2.5566761	0.86460686	1.2101605
1277247806877	-5.6252036	2.3699405	6.742072	-0.71186733	0.0	30.5	-26.625	-14.5	2.5468802	0.8350232	1.1720574
1277247806917	-6.4015636	2.6423476	7.014479	0.050577164	0.0	30.0	-27.125	-14.25	2.4683576	0.7917839	1.1793334
1277247806957	-6.2789803	3.1463003	6.1700177	-0.45817852	0.0	29.0	-27.625	-13.75	2.4772954	0.7208225	1.1062814
1277247806997	-5.7886477	2.982856	6.6331096	-0.51127434	0.0	28.75	-27.625	-13.75	2.5682	0.7946128	1.0949885
1277247807037	-7.6273947	4.440233	6.1700177	0.96191216	0.0	29.25	-27.625	-13.25	2.4727502	0.61011994	1.0436106
1277247807067	-6.1700177	3.5957718	5.597963	-0.73273754	0.0	28.75	-27.625	-12.4375	2.55456	0.6648351	1.0431337
1277247807097	-5.434519	3.0645783	6.2789803	-0.9550276	0.0	29.0	-27.625	-12.1875	2.6636474	0.7885887	1.0573366
1277247807137	-5.8158884	3.8273177	6.1291566	-0.5309038	0.0	29.0	-28.375	-11.4375	2.7289774	0.72184724	0.98876214
1277247807177	-6.851035	3.8681788	5.284695	-0.3289137	0.0	28.75	-28.875	-10.6875	2.439068	0.59148026	1.0568037
1277247807217	-6.2789803	4.944186	4.671779	-0.5494318	0.0	29.0	-29.875	-9.9375	2.7173767	0.528992	0.90377414
1277247807257	-6.932757	5.6252036	4.0588636	5.1116943E-4	0.0	28.75	-31.125	-8.6875	2.5716417	0.4266982	0.8891458
1277247807297	-7.205164	5.434519	4.140586	0.12274265	0.0	28.0	-31.625	-6.9375	2.4882693	0.43014535	0.92457867
1277247807337	-6.6331096	5.325556	4.099725	-0.3637991	0.0	27.25	-32.875	-5.9375	2.5517972	0.44910756	0.894305
1277247807377	-6.4015636	4.903325	4.099725	-0.7606373	0.0	26.5	-33.625	-5.1875	2.5004675	0.47036082	0.91716045
1277247807417	-6.701211	5.5162406	3.568531	-0.42211246	0.0	26.0	-34.375	-4.4375	2.4393218	0.39007357	0.88208574
1277247807457	-6.6331096	6.3198414	3.0237172	-0.1587801	0.0	24.9375	-35.625	-4.4375	2.387526	0.31877944	0.80957854
1277247807487	-6.5513873	6.66035	2.6423476	-0.09774017	0.0	23.6875	-36.125	-3.4375	2.3427937	0.27563393	0.7771509
1277247807527	-6.2108784	5.6660647	2.7649305	-0.9565573	0.0	22.4375	-36.625	-2.4375	2.295832	0.31773764	0.83123755
1277247807567	-6.1291566	5.5162406	3.5276701	-0.8378191	0.0	21.6875	-36.875	-1.9375	2.4062557	0.40424588	0.8379813
1277247807607	-7.6546354	4.3312707	2.6832085	-0.6113825	0.0	21.9375	-36.625	-1.1875	2.0021446	0.29611155	1.055876
1277247807637	-5.366417	4.0180025	2.8330324	-2.5286798	0.0	22.4375	-36.375	-0.1875	2.3444238	0.3998295	0.9281079
1277247807677	-5.9793324	7.082581	3.0645783	-0.044119835	0.0	22.9375	-36.375	0.8125	2.7440338	0.31931084	0.7011351
1277247807717	-6.851035	7.6273947	-0.53119355	0.45960522	0.0	23.1875	-36.125	1.8125	1.5153735	-0.05176482	0.7318276
1277247807757	-6.6331096	5.325556	0.95342433	-1.2469358	0.0	23.4375	-36.125	2.5625	2.0551686	0.11161668	0.894305
1277247807797	-6.851035	6.2108784	3.336985	0.02427864	0.0	23.9375	-35.625	2.8125	2.5905645	0.34631875	0.8343684
1277247807837	-7.082581	4.2495484	1.8387469	-1.3448181	0.0	24.4375	-35.125	3.3125	2.1594365	0.2190464	1.0303769
1277247807877	-6.469665	10.61025	0.7627395	2.6438828	0.0	24.6875	-34.375	4.5625	-2.7222927	0.06129998	0.5475623
1277247807917	-6.4015636	6.0201936	-1.2666923	-0.9281788	0.0	24.6875	-33.625	6.5625	1.6554075	-0.14315857	0.81609035
1277247807957	-6.510526	6.891896	1.7297841	-0.16936111	0.0	24.9375	-33.625	7.8125	2.8249736	0.18046664	0.75695056
1277247807997	-6.238119	7.205164	1.1168685	-0.21103	0.0	24.9375	-33.125	8.8125	2.9360418	0.116657995	0.71358675
1277247808037	-6.0474343	7.082581	0.61291564	-0.47337246	0.0	24.9375	-32.875	8.0625	2.923506	0.06571721	0.7067227
1277247808077	-6.469665	5.284695	1.8387469	-1.2529631	0.0	25.75	-32.375	5.8125	2.5928366	0.21665642	0.8858698
1277247808117	-7.014479	5.134871	3.214402	-0.53830624	0.0	26.25	-32.125	3.5625	2.5988243	0.35417336	0.9388898
1277247808157	-6.742072	5.5571017	3.6774938	-0.32715225	0.0	26.25	-31.875	0.3125	2.6831975	0.3983975	0.88144726
1277247808197	-6.1291566	5.706926	4.4810944	-0.30845165	0.0	26.5	-32.125	-2.9375	2.8292792	0.4913126	0.8210562
1277247808237	-5.5162406	5.7886477	4.7126403	-0.52514553	0.0	25.25	-32.625	-5.4375	2.8856015	0.53256565	0.7613064
1277247808277	-3.6774938	5.6252036	4.7126403	-1.5983706	0.0	23.4375	-32.875	-8.1875	-3.042976	0.61154425	0.57900906
1277247808307	-2.2609777	6.510526	6.2108784	-0.52904415	0.0	20.6875	-33.375	-11.1875	-2.6814542	0.73346597	0.3342499
1277247808337	-1.2258313	6.0201936	8.962189	1.0591774	0.0	17.9375	-33.625	-13.0	-2.6964176	0.96985716	0.2008738
1277247808377	-0.23154591	4.7535014	11.223166	2.383873	0.0	15.1875	-34.125	-15.25	-2.6640716	1.1697341	0.04867213
1277247808417	0.19068487	5.8567495	9.00305	0.9354534	0.0	12.375	-34.625	-16.75	-2.5369215	0.9938068	-0.032546643
1277247808457	-2.2609777	7.9270425	6.973618	0.9906349	0.0	10.875	-35.125	-17.0	-3.0652192	0.7021593	0.27784574
1277247808497	-1.607201	6.851035	5.7477865	-0.7205715	0.0	9.125	-35.875	-16.25	-3.077928	0.6848962	0.23042569
1277247808537	-1.0760075	7.7363577	5.7886477	-0.0846405	0.0	9.125	-36.875	-14.75	-2.7855935	0.6377843	0.13819793
1277247808577	-1.879608	7.7363577	6.0882955	0.21589947	0.0	9.375	-37.125	-13.25	-3.114494	0.65285873	0.23833975
1277247808617	-2.4925237	8.076866	5.938472	0.52359104	0.0	10.375	-37.6875	-10.6875	3.0543547	0.61243653	0.29932824
1277247808647	-2.3426998	8.049625	5.5571017	0.25148582	0.0	11.875	-37.9375	-9.4375	-3.084833	0.58535844	0.28320923
1277247808677	-2.1792557	7.6954966	5.134871	-0.30208683	0.0	12.375	-37.6875	-8.4375	-3.0276368	0.570738	0.2759605
1277247808717	-2.2609777	7.668256	5.134871	-0.30501556	0.0	13.375	-37.9375	-7.6875	-3.0046833	0.5709359	0.28672445
1277247808757	-1.7570249	7.5456724	5.325556	-0.40527534	0.0	14.125	-37.9375	-7.9375	-2.8336759	0.6022107	0.22877541
1277247808797	-2.1383946	7.7363577	5.09401	-0.30018425	0.0	14.375	-37.375	-7.9375	-2.8816037	0.5655104	0.26967517
1277247808837	-2.1111538	7.9679036	5.7886477	0.26573277	0.0	14.125	-37.375	-8.4375	-2.8908906	0.6122435	0.25900578
1277247808877	-1.2666923	8.662541	5.597963	0.5847559	0.0	12.875	-37.9375	-8.4375	-2.6671367	0.5689062	0.14519736
1277247808917	-0.29964766	8.158588	4.7535014	-0.3595276	0.0	10.875	-38.4375	-8.4375	-2.4836428	0.52726215	0.03671138
1277247808947	-0.10896278	7.246025	4.4810944	-1.2862654	0.0	8.375	-39.4375	-9.1875	-2.6019342	0.5538038	0.01503646
1277247808987	0.23154591	7.7363577	5.134871	-0.5183916	0.0	5.875	-39.6875	-9.1875	-2.6795952	0.58576214	-0.029920645
1277247809017	0.88532263	7.8180795	5.8567495	0.0019006729	0.0	3.3125	-39.6875	-8.9375	-2.6939414	0.6398891	-0.11276007
1277247809047	1.56634	7.43671	5.47538	-0.43980122	0.0	1.8125	-39.9375	-9.1875	-2.5586073	0.6243238	-0.20758852
1277247809087	1.5390993	6.932757	4.9850473	-1.1300936	0.0	0.5625	-39.6875	-9.1875	-2.583901	0.61204463	-0.21846093
1277247809127	1.2666923	6.66035	4.9850473	-1.3914576	0.0	-0.6875	-39.9375	-9.4375	-2.7339346	0.63401794	-0.18793957
1277247809157	1.7978859	6.5922484	5.8976107	-0.78046894	0.0	-1.4375	-40.1875	-9.9375	-2.670941	0.712053	-0.26625204
1277247809197	1.5390993	7.504812	5.6660647	-0.27799225	0.0	-2.1875	-40.1875	-10.6875	-2.7668464	0.6368105	-0.20227697
1277247809237	1.1168685	7.1234417	6.3198414	-0.21857357	0.0	-2.1875	-40.6875	-11.6875	-2.9145947	0.71966857	-0.15552165
1277247809277	1.7978859	7.7363577	6.2108784	0.27593994	0.0	-1.6875	-40.1875	-13.0	-2.6555502	0.66365516	-0.22834127
1277247809317	2.0294318	7.082581	6.1291566	-0.22290802	0.0	-1.1875	-39.4375	-14.5	-2.5106883	0.69389576	-0.27906147
1277247809347	2.1792557	6.851035	6.5513873	-0.08006191	0.0	-0.9375	-38.4375	-15.5	-2.4653594	0.7390073	-0.30797073
1277247809387	2.9556155	7.273266	6.3198414	0.27186394	0.0	-1.4375	-37.375	-16.0	-2.2159963	0.6777743	-0.3859831
1277247809417	3.636633	7.5865335	6.0474343	0.55443287	0.0	-2.1875	-37.125	-16.0	-2.037977	0.6232389	-0.44699454
1277247809447	3.8681788	6.973618	5.829509	0.071474075	0.0	-3.9375	-36.875	-16.25	-2.0242472	0.6312364	-0.5064349
1277247809487	4.0180025	6.2789803	6.238119	-0.08635807	0.0	-6.25	-36.875	-16.5	-2.1444643	0.6967943	-0.56925166
1277247809527	4.5628166	6.0201936	6.5922484	0.21930408	0.0	-8.75	-36.375	-16.25	-2.1722496	0.71752024	-0.6485498
1277247809577	4.671779	5.053149	6.1700177	-0.5638714	0.0	-11.5	-35.125	-17.0	-2.1361573	0.7309135	-0.7462025
1277247809617	4.944186	4.944186	6.5922484	-0.19687939	0.0	-13.75	-33.875	-17.75	-2.1920612	0.7559694	-0.7853982
1277247809647	5.407278	4.5628166	7.0553403	0.18513584	0.0	-15.5625	-31.625	-19.0	-2.1550448	0.7839952	-0.8698959
1277247809687	4.6036777	3.8273177	7.3958488	-0.291358	0.0	-16.0625	-30.125	-21.5	-2.2788718	0.89029795	-0.87722325
1277247809727	3.0645783	4.099725	7.7772183	-0.49619865	0.0	-16.0625	-28.875	-23.25	-2.8468876	0.98871696	-0.64190453
1277247809767	4.5219555	8.076866	9.575105	3.5112505	0.0	-15.3125	-27.875	-24.75	-3.096362	0.8023121	-0.51038563
1277247809807	10.119919	10.923519	10.732834	8.548996	0.0	-15.0625	-27.625	-26.0	-1.1717336	0.62452954	-0.747229
1277247809837	13.021052	12.9529505	15.363752	14.138529	0.0	-17.0625	-26.375	-26.25	-1.5051694	0.696611	-0.7880201
1277247809867	10.800936	12.830367	14.1787815	12.155052	0.0	-20.3125	-23.125	-26.5	1.0511336	0.701827	-0.6997294
1277247809907	7.8180795	11.536434	7.8589406	6.1925564	0.0	-25.125	-15.625	-26.5	0.88706154	0.5134762	-0.5955926
1277247809947	-0.42223078	7.3958488	2.4925237	-1.9906712	0.0	-28.625	-3.8125	-25.5	0.8868398	0.32456973	0.057028335
1277247809987	-4.2495484	2.1111538	3.405087	-3.9662519	0.0	-28.625	9.6875	-24.25	0.10881834	0.6224446	1.1097162
1277247810027	-4.630918	-1.56634	7.014479	-1.2566938	0.0	-25.125	21.25	-24.5	-0.78951544	0.9621296	1.8969522
1277247810067	-4.862464	-1.0351465	9.193735	0.64513683	0.0	-18.0625	27.75	-26.25	-0.93215096	1.0750898	1.7805502
1277247810107	-5.597963	0.0	12.176591	3.595087	0.0	-11.25	29.75	-29.0	-0.9268117	1.1398792	1.5707964
1277247810147	-3.759216	-1.4573772	13.593107	4.371792	0.0	-6.25	29.0	-31.75	-1.4162098	1.282454	1.9406381
1277247810187	-1.4573772	-2.9556155	10.528529	1.2255545	0.0	-4.6875	28.75	-32.5	-2.223053	1.2674593	2.6834903
1277247810227	-1.2258313	-4.4810944	5.6660647	-2.479498	0.0	-5.75	30.5	-30.75	-1.7225984	0.88402474	2.8745692
1277247810267	-0.38136974	-4.8216033	0.6537767	-4.926002	0.0	-8.75	33.0	-27.0	-0.46733373	0.1343567	3.062661
1277247810307	0.040861044	-6.932757	-9.084772	1.6212921	0.0	-12.25	35.25	-24.25	-0.27432156	-0.9189438	-3.1356988
1277247810347	-0.38136974	0.19068487	-2.1383946	-7.6261606	0.0	-11.5	33.75	-25.5	-2.2423112	-1.3739824	1.1071488
1277247810387	-7.9270425	11.413852	11.917805	8.500401	0.0	-5.75	27.0	-28.75	-0.27127385	0.70889497	0.60703236
1277247810427	-12.367276	11.413852	19.231932	15.749029	0.0	2.0625	17.5	-33.75	-0.44347557	0.8519261	0.82546836
1277247810457	-7.8180795	7.3958488	11.917805	6.251215	0.0	9.625	9.4375	-38.8125	-0.4837921	0.83631533	0.81314397
1277247810497	-5.325556	3.214402	4.4810944	-2.140221	0.0	14.125	4.6875	-39.5625	-0.40416932	0.6242744	1.0277482
1277247810537	-1.7570249	0.0	7.273266	-2.3241687	0.0	14.125	3.9375	-39.5625	-2.4161103	1.3337647	1.5707964
1277247810577	-2.4516625	0.38136974	8.962189	-0.5073538	0.0	13.625	4.9375	-39.5625	-1.8082932	1.3007146	1.4164776
1277247810607	-4.372132	1.9477097	8.471856	-0.07621002	0.0	13.625	5.1875	-38.8125	-0.79469854	1.0565324	1.1517053
1277247810637	-4.7126403	2.4516625	8.430995	0.1583538	0.0	13.625	4.6875	-39.3125	-0.69376093	1.0085512	1.0910951
1277247810667	-4.2086873	2.2609777	8.689782	0.10987091	0.0	13.125	4.6875	-39.5625	-0.76034135	1.0681139	1.0778204
1277247810707	-3.8681788	2.3699405	8.853226	0.14116478	0.0	11.875	4.6875	-39.5625	-0.73832136	1.0972726	1.0211083
1277247810747	-3.7864566	2.2609777	8.539958	-0.19519043	0.0	11.125	4.1875	-40.0625	-0.66728264	1.0941058	1.0324955
1277247810787	-3.636633	2.5606253	8.499097	-0.21412468	0.0	10.375	4.1875	-40.0625	-0.61883026	1.088673	0.95731074
1277247810827	-4.4810944	2.9556155	9.193735	0.83950615	0.0	9.375	3.9375	-41.0625	-0.4905566	1.0423138	0.9877198
1277247810857	-3.636633	2.3699405	9.084772	0.26185513	0.0	8.875	3.6875	-41.5625	-0.5471326	1.1250659	0.9932372
1277247810897	-3.6774938	2.2201166	9.234595	0.37817287	0.0	8.375	3.6875	-41.8125	-0.5270359	1.1353967	1.027658
1277247810937	-3.1054392	1.7570249	9.915613	0.73138905	0.0	7.875	3.4375	-42.3125	-0.62758344	1.2253822	1.0559115
1277247810977	-2.1792557	1.56634	10.800936	1.3227158	0.0	7.875	3.1875	-42.0625	-0.8964773	1.3272535	0.947597
1277247811017	-2.4925237	1.5390993	10.269742	0.8727274	0.0	7.625	3.1875	-42.3125	-0.7664281	1.2929279	1.0176184
1277247811047	-3.486809	1.9885708	8.962189	0.013383865	0.0	7.125	3.6875	-42.3125	-0.46819505	1.1497049	1.052492
1277247811087	-4.1814466	2.3018389	8.62168	0.048111916	0.0	6.625	3.6875	-42.5625	-0.35955286	1.0651767	1.0675781
1277247811127	-3.6774938	2.5333846	9.00305	0.24307156	0.0	6.375	3.9375	-42.0625	-0.40525225	1.1103419	0.9675665
1277247811157	-3.0645783	2.7649305	9.043911	0.1346178	0.0	5.875	4.4375	-41.8125	-0.422181	1.1426432	0.83675486
1277247811187	-2.7513103	2.5333846	9.466142	0.37154198	0.0	5.375	4.1875	-41.8125	-0.43871564	1.194526	0.826612
1277247811227	-1.9477097	2.2609777	8.308413	-0.9785528	0.0	4.8125	4.6875	-41.5625	-0.43484807	1.2259662	0.71110153
1277247811267	-1.7570249	2.2201166	9.193735	-0.18683624	0.0	3.8125	4.9375	-42.3125	-0.4109462	1.2720567	0.6694818
1277247811307	-0.7218784	2.3426998	11.223166	1.681118	0.0	3.3125	4.6875	-42.3125	-0.35002914	1.3557508	0.29890743
1277247811348	-2.4925237	2.152015	8.662541	-0.53931713	0.0	3.0625	4.9375	-42.3125	-0.3466841	1.207525	0.858581
1277247811387	-1.607201	1.3756552	9.956474	0.37209702	0.0	2.5625	5.4375	-42.0625	-0.51278776	1.3614309	0.8628683
1277247811427	-1.6889231	1.3756552	9.765789	0.19912434	0.0	1.8125	5.9375	-41.5625	-0.4692825	1.3513372	0.8872665
1277247811457	-1.7978859	1.0760075	10.419566	0.8214989	0.0	1.3125	6.6875	-41.8125	-0.5480004	1.3723522	1.0314916
1277247811487	-1.525479	0.95342433	10.378705	0.7268028	0.0	0.5625	7.6875	-42.0625	-0.5660785	1.3991736	1.012197
1277247811527	-1.2666923	0.88532263	9.997335	0.30942726	0.0	-0.4375	8.1875	-42.0625	-0.51498014	1.4174277	0.9607923
1277247811567	-0.9125633	0.7627395	9.847511	0.1124239	0.0	-0.1875	8.6875	-42.0625	-0.5482724	1.4506018	0.87459177
1277247811597	-1.4165162	0.61291564	9.888372	0.2014513	0.0	-0.875	7.5	-42.8125	-0.56374115	1.4159602	1.1624284
1277247811627	-1.8387469	1.0760075	9.997335	0.41516495	0.0	-0.875	7.25	-42.8125	-0.41378084	1.3608358	1.0413413
1277247811657	-1.2666923	1.7297841	9.507003	-0.060894012	0.0	-0.625	6.5	-42.8125	-0.22034238	1.3489906	0.6320658
1277247811687	-0.9125633	1.9885708	9.343558	-0.21033478	0.0	-0.875	5.25	-42.8125	-0.09417813	1.340773	0.43023387
1277247811717	-0.8036005	1.6480621	9.193735	-0.43186188	0.0	-0.375	5.0	-43.5625	-0.14073746	1.3739446	0.45368114
1277247811757	-1.2666923	1.1849703	9.615966	-0.035495758	0.0	-0.125	4.5	-42.8125	-0.29028106	1.3923333	0.81871915
1277247811797	-1.1849703	1.1849703	10.079058	0.41077232	0.0	0.125	5.0	-42.5625	-0.3358562	1.4060376	0.7853982
1277247811837	-1.920469	1.4573772	10.460427	0.92799854	0.0	0.875	5.25	-42.5625	-0.37488964	1.3442793	0.9216456
1277247811877	-2.0294318	1.607201	10.228881	0.7447338	0.0	1.25	3.75	-42.75	-0.30517566	1.3229176	0.90098554
1277247811917	-1.607201	1.7570249	11.604536	2.0396776	0.0	2.5	2.75	-43.0	-0.390975	1.3684082	0.7408931
1277247811947	-1.2258313	2.2609777	11.264028	1.7472668	0.0	3.5	-0.25	-43.25	-0.36300248	1.3463156	0.49681076
1277247811977	-1.4573772	2.1792557	8.539958	-0.8733425	0.0	3.5	-4.5	-42.5	-0.05789398	1.2729414	0.5894435
1277247812017	0.46309182	1.879608	2.7921712	-6.409063	0.0	4.375	-11.125	-41.4375	-0.41711822	0.96458054	-0.2415657
1277247812057	2.6014864	6.932757	4.671779	-1.0512877	0.0	2.125	-18.5625	-38.9375	-0.34005478	0.5628404	-0.35898596
1277247812097	0.88532263	7.43671	11.604536	4.004711	0.0	-2.4375	-22.3125	-36.5	-0.22846383	0.99768275	-0.11848996
1277247812137	-0.14982383	9.534244	8.812365	3.1772633	0.0	-6.0	-21.0625	-37.5	0.44392288	0.7460102	0.015712991
1277247812167	1.879608	3.214402	1.2666923	-5.8734818	0.0	-9.75	-16.0625	-39.0625	0.009977749	0.32789817	-0.52912766
1277247812207	0.9942854	4.1814466	9.275456	0.41622543	0.0	-11.0	-9.0	-41.3125	0.88067114	1.1368738	-0.2334496
1277247812247	-0.27240697	4.140586	9.615966	0.6664324	0.0	-9.0	-4.75	-42.8125	0.61505336	1.1634113	0.0656948
1277247812287	0.7627395	5.012288	9.534244	0.9918041	0.0	-7.75	-4.25	-42.5625	0.4316799	1.0820596	-0.15101534
1277247812327	0.6537767	5.09401	9.425281	0.9270477	0.0	-7.25	-6.0	-42.8125	0.41855225	1.0718807	-0.12764446
1277247812367	1.4165162	4.4810944	8.894087	0.2527485	0.0	-6.0	-7.75	-43.0625	0.2752517	1.0846863	-0.30616978
1277247812407	1.3756552	6.4015636	7.9679036	0.50644493	0.0	-5.5	-9.75	-43.0625	0.1727039	0.8829271	-0.21167447
1277247812447	2.6832085	7.8861814	10.337844	3.469738	0.0	-6.25	-11.25	-42.5625	0.13530403	0.8925335	-0.32795522
1277247812477	0.08172209	7.5865335	9.847511	2.624586	0.0	-6.75	-11.75	-42.0625	0.38580588	0.9143379	-0.010771577
1277247812517	1.6889231	5.7477865	9.343558	1.2925205	0.0	-8.25	-12.0	-41.5625	0.39789096	1.0006554	-0.28579482
1277247812557	1.6480621	3.568531	9.466142	0.44314766	0.0	-9.0	-11.25	-41.5625	0.85208964	1.177222	-0.43264982
1277247812597	2.2609777	3.2961242	7.6954966	-1.1350222	0.0	-9.75	-10.5	-41.3125	0.31423032	1.0917478	-0.6012343
1277247812627	2.5606253	3.3778462	7.082581	-1.5525846	0.0	-11.0	-10.25	-41.3125	0.29389414	1.031503	-0.6486424
1277247812657	2.9556155	3.636633	6.973618	-1.4047394	0.0	-11.75	-10.0	-41.0625	0.26617983	0.9791145	-0.6824575
1277247812687	2.9556155	4.0180025	6.66035	-1.4855766	0.0	-12.5	-9.75	-40.8125	0.33700258	0.9279947	-0.63421685
1277247812727	3.173541	4.2495484	7.246025	-0.8269558	0.0	-12.25	-9.5	-41.0625	0.3265583	0.9389435	-0.64144665
1277247812767	3.486809	4.372132	7.6954966	-0.29381466	0.0	-11.75	-9.75	-41.0625	0.2524378	0.94237965	-0.67321944
1277247812807	3.336985	4.3312707	8.076866	-0.053131104	0.0	-11.25	-9.75	-41.5625	0.2580941	0.9757056	-0.65645504
1277247812837	3.3778462	4.2495484	9.112013	0.79982376	0.0	-10.75	-10.5	-41.8125	0.21561386	1.033507	-0.6716062
1277247812867	3.5957718	4.630918	9.302697	1.1894922	0.0	-10.5	-10.75	-41.8125	0.17420141	1.0084312	-0.66022825
1277247812907	3.1463003	4.3312707	8.430995	0.18038082	0.0	-10.5	-10.5	-41.5625	0.23063491	1.0050604	-0.6282351
1277247812937	3.173541	4.399372	8.349273	0.15006638	0.0	-10.5	-10.75	-40.5625	0.2270524	0.99462885	-0.62491965
1277247812967	2.982856	4.4810944	8.117727	-0.0662632	0.0	-10.5	-10.75	-39.8125	0.27960134	0.9852479	-0.58730084
1277247813007	2.8738933	4.5628166	8.049625	-0.11773777	0.0	-10.5	-11.5	-39.8125	0.28446388	0.98055786	-0.56207985
1277247813047	2.7649305	4.7126403	7.9270425	-0.17899132	0.0	-9.75	-12.0	-39.8125	0.22935806	0.9673088	-0.53058654
1277247813087	2.7240696	4.903325	7.8861814	-0.12909889	0.0	-9.75	-12.8125	-40.3125	0.21812323	0.9525467	-0.50709856
1277247813127	2.5606253	4.862464	7.668256	-0.37253666	0.0	-9.75	-12.5625	-40.5625	0.24913993	0.94898057	-0.48470882
1277247813167	2.2609777	4.8216033	8.076866	-0.13216591	0.0	-10.0	-12.25	-41.0625	0.37463513	0.9878833	-0.4384813
1277247813207	2.4516625	4.903325	7.8589406	-0.22457314	0.0	-10.5	-12.5625	-40.5625	0.35626182	0.9617096	-0.4636476
1277247813247	1.7297841	3.2961242	8.049625	-0.937994	0.0	-10.75	-12.5625	-40.3125	1.0143298	1.137648	-0.483285
1277247813287	0.8036005	2.1792557	8.281172	-1.2059097	0.0	-11.75	-13.0625	-40.0625	2.2159321	1.2973431	-0.35327998
1277247813327	0.95342433	4.2086873	6.742072	-1.8018017	0.0	-13.0	-13.3125	-38.8125	0.91005117	1.0014408	-0.2227771
1277247813367	1.2258313	2.3426998	4.2904096	-4.766956	0.0	-14.25	-14.0625	-38.5625	0.9908976	1.0185026	-0.4820787
1277247813407	-1.0760075	0.88532263	6.932757	-2.7352495	0.0	-14.25	-14.5625	-38.5625	1.1405444	1.37245	0.8823158
1277247813437	0.040861044	2.9556155	9.575105	0.2143259	0.0	-14.25	-14.5625	-38.8125	1.7574514	1.2713711	-0.013824004
1277247813477	2.6014864	3.636633	8.008764	-0.63423824	0.0	-12.75	-14.3125	-39.0625	0.7049001	1.0615991	-0.62095773
1277247813517	1.2666923	3.9499009	8.049625	-0.7511158	0.0	-10.75	-13.0625	-39.8125	0.97214544	1.094977	-0.3103284
1277247813557	-0.23154591	3.990762	8.281172	-0.61112976	0.0	-8.5	-11.5	-40.3125	0.8759052	1.1210694	0.0579555
1277247813597	0.23154591	7.3958488	8.771504	1.6690407	0.0	-5.5	-11.75	-40.5625	0.2923052	0.8700408	-0.031297326
1277247813637	1.2666923	9.112013	12.489859	5.705598	0.0	-2.9375	-13.5625	-40.5625	0.080520384	0.935947	-0.13812824
1277247813667	2.8738933	9.00305	11.727119	5.2545424	0.0	-0.4375	-15.8125	-40.0625	-0.31880194	0.8924819	-0.30898917
1277247813707	1.3075534	9.765789	5.325556	1.3934336	0.0	1.3125	-17.5625	-39.3125	-0.13675311	0.49552378	-0.13309963
1277247813737	1.1168685	9.466142	5.434519	1.1655531	0.0	2.3125	-18.5625	-39.0625	-0.17742269	0.5181787	-0.11744266
1277247813777	2.7649305	9.997335	6.4015636	2.3823442	0.0	2.5625	-19.3125	-38.8125	-0.31208175	0.5529408	-0.2698222
1277247813817	4.140586	10.56939	7.8589406	3.9998493	0.0	1.5625	-21.3125	-38.0625	-0.42626092	0.6055573	-0.37337637
1277247813858	2.2201166	9.043911	8.771504	2.9863377	0.0	-0.4375	-24.8125	-36.25	-0.5109494	0.7554955	-0.24072187
1277247813897	0.5720546	7.3141265	6.0882955	-0.27297115	0.0	-1.6875	-28.0625	-34.5	-0.05875589	0.6926896	-0.0780534
1277247813938	0.9942854	6.0201936	3.9090397	-2.5601392	0.0	-2.9375	-30.0625	-34.0	-0.16032435	0.56976897	-0.1636808
1277247813977	1.7297841	5.366417	5.366417	-2.0227556	0.0	-2.4375	-30.5625	-34.25	-1.0298185	0.76069593	-0.3118196
1277247814017	1.8387469	4.7126403	5.5571017	-2.2919078	0.0	0.0625	-31.0625	-35.25	-1.3669108	0.83231735	-0.37200657
1277247814047	1.920469	4.671779	6.851035	-1.2948694	0.0	3.3125	-33.0625	-34.5	-1.7681527	0.9354876	-0.39002037
1277247814077	2.8738933	4.5628166	7.082581	-0.9048805	0.0	6.875	-36.5625	-31.25	-1.6798049	0.9200591	-0.56207985
1277247814117	3.1054392	5.8567495	6.1700177	-0.75047016	0.0	8.375	-40.375	-26.75	-1.6484997	0.74954355	-0.48754013
1277247814157	0.14982383	7.43671	7.3141265	0.6252022	0.0	8.125	-42.875	-22.0	-2.5790455	0.7769866	-0.020143796
1277247814187	2.070293	9.275456	8.962189	3.2563133	0.0	6.375	-43.125	-19.25	-2.2987826	0.75608194	-0.21960166
1277247814227	3.6774938	9.956474	12.340035	6.4700756	0.0	4.5625	-41.625	-18.5	-2.2889102	0.8604559	-0.35381427
1277247814267	3.2961242	7.9270425	9.234595	2.802085	0.0	3.3125	-39.375	-18.75	-2.189111	0.8218353	-0.39405885
1277247814307	1.56634	5.434519	7.4639506	-0.44193077	0.0	2.0625	-37.625	-20.75	-2.4769716	0.9223593	-0.2806152
1277247814347	0.7218784	3.759216	6.0474343	-2.6495366	0.0	1.3125	-35.8125	-22.75	-2.7073135	1.0064797	-0.18971948
1277247814377	1.920469	3.214402	3.336985	-4.7910695	0.0	0.0625	-34.3125	-25.0	-1.6224371	0.72792745	-0.53854805
1277247814417	2.4516625	4.099725	4.671779	-3.12504	0.0	-0.6875	-34.0625	-27.0	-1.6525526	0.7742773	-0.5389525
1277247814447	4.0588636	5.134871	6.0882955	-0.8674879	0.0	-0.6875	-33.8125	-26.0	-1.5374962	0.7492383	-0.66889113
1277247814477	4.2086873	5.2165933	7.246025	0.06405258	0.0	0.0625	-33.8125	-24.5	-1.6948172	0.8243317	-0.6788666
1277247814507	4.140586	5.47538	8.853226	1.3962002	0.0	1.3125	-33.8125	-22.75	-1.8756512	0.9112422	-0.64746934
1277247814537	5.5162406	6.238119	10.337844	3.4679136	0.0	2.3125	-32.8125	-21.75	-1.7522452	0.8927041	-0.72406155
1277247814577	7.3549876	6.8237944	10.310603	4.579752	0.0	3.3125	-31.3125	-22.5	-1.4849855	0.7990456	-0.8228446
1277247814617	4.099725	5.6252036	11.876944	3.9597015	0.0	3.0625	-30.0625	-23.25	-1.9330525	1.0406868	-0.62980336
1277247814647	1.1849703	5.053149	8.894087	0.49108028	0.0	3.3125	-28.5625	-23.25	-2.4447832	1.0425532	-0.23033933
1277247814677	0.7627395	4.1814466	6.469665	-2.0656662	0.0	3.5625	-27.3125	-22.5	-2.420745	0.98952967	-0.18042675
1277247814717	1.334794	3.9499009	7.1234417	-1.5527534	0.0	3.0625	-26.5625	-21.75	-2.2849166	1.041257	-0.32588273
1277247814757	3.1463003	4.4810944	7.082581	-0.8544235	0.0	1.5625	-26.3125	-22.25	-1.735061	0.9126919	-0.6121525
1277247814787	4.5628166	4.7943625	5.597963	-1.1381788	0.0	-1.1875	-26.0625	-23.25	-1.2847604	0.7020501	-0.7606579
1277247814827	5.134871	4.8216033	8.62168	1.3265495	0.0	-4.6875	-25.0625	-25.0	-1.5784231	0.8857847	-0.8168515
1277247814858	5.7477865	6.891896	9.697687	3.4062376	0.0	-8.25	-24.3125	-28.0	-1.4166225	0.82412934	-0.6951269
1277247814897	6.238119	4.5219555	5.325556	-0.44055367	0.0	-9.75	-22.5625	-29.75	-0.7890258	0.6048021	-0.9435597
1277247814937	2.982856	2.4108016	8.812365	-0.19586658	0.0	-10.5	-20.8125	-31.75	-2.188675	1.1603044	-0.8910637
1277247814967	2.070293	1.7297841	6.701211	-2.5827665	0.0	-10.75	-20.3125	-31.75	-2.3068635	1.1880611	-0.8747653
1277247814997	2.9147544	1.2666923	3.0645783	-5.391682	0.0	-10.0	-21.3125	-30.25	-1.0220848	0.76721585	-1.1608399
1277247815037	6.66035	3.5957718	6.0201936	-0.13542652	0.0	-9.75	-24.3125	-27.75	-1.0693909	0.6719141	-1.0757581
1277247815077	7.43671	4.7126403	5.284695	0.46182728	0.0	-11.0	-28.8125	-25.25	-1.1199983	0.540602	-1.0059656
1277247815117	5.829509	4.7535014	4.630918	-0.97351074	0.0	-13.0	-33.5625	-23.25	-1.3821802	0.55185336	-0.88672304
1277247815157	7.273266	6.3198414	3.8273177	0.56104755	0.0	-15.5625	-38.375	-20.25	-1.3008286	0.37810278	-0.85542375
1277247815197	5.5162406	7.246025	2.5333846	-0.35404015	0.0	-17.3125	-42.875	-17.5	-1.1883061	0.27132583	-0.6506801
1277247815237	5.325556	5.6252036	2.9147544	-1.5301619	0.0	-16.3125	-47.125	-14.75	-1.6772584	0.35989165	-0.7580418
1277247815277	4.2904096	7.0553403	3.0237172	-1.0129986	0.0	-15.3125	-51.125	-12.4375	-1.994314	0.35101625	-0.54636
1277247815317	6.1700177	8.158588	2.152015	0.6462374	0.0	-14.75	-53.625	-11.9375	-1.520093	0.20736039	-0.64749575
1277247815347	6.238119	7.9679036	2.2201166	0.5533953	0.0	-16.0625	-54.125	-11.9375	-1.551227	0.21597105	-0.66423047
1277247815387	5.8976107	8.430995	1.1168685	0.5427885	0.0	-18.3125	-54.375	-10.9375	-1.2745776	0.108126424	-0.6104006
1277247815427	4.9850473	7.7772183	1.4165162	-0.4609375	0.0	-20.0625	-53.875	-10.4375	-1.424006	0.15215497	-0.57000864
1277247815457	3.7864566	7.4639506	-0.19068487	-1.4350214	0.0	-20.3125	-53.625	-9.6875	-0.51014256	-0.022779481	-0.46946993
1277247815497	3.336985	8.008764	-0.0	-1.1304893	0.0	-19.8125	-54.375	-8.9375	-0.2856727	-0.0	-0.3947911
1277247815527	4.7943625	9.575105	1.7570249	1.044879	0.0	-19.3125	-54.625	-10.1875	-1.4675977	0.16263092	-0.46421644
1277247815557	5.9793324	9.00305	2.8330324	1.3662367	0.0	-18.3125	-55.625	-12.1875	-1.7323313	0.25636202	-0.58625495
1277247815597	6.1291566	7.9270425	1.9885708	0.4089737	0.0	-18.5625	-56.125	-14.5	-1.4009423	0.19591056	-0.65818197
1277247815637	6.2789803	7.43671	2.4108016	0.2204237	0.0	-17.8125	-56.125	-17.25	-1.4097677	0.24280803	-0.7011886
1277247815677	7.3958488	6.851035	3.255263	0.7873106	0.0	-16.8125	-56.375	-18.75	-1.4947355	0.31232855	-0.82362044
1277247815747	2.3018389	6.891896	1.6480621	-2.355959	0.0	-15.3125	-56.625	-18.25	-0.61390686	0.22304055	-0.32234335
1277247815787	4.9850473	6.0201936	2.9147544	-1.4646349	0.0	-10.5	-56.375	-17.5	-1.6107659	0.35693762	-0.69161475
1277247815837	4.7535014	8.539958	0.040861044	-0.032791138	0.0	-5.75	-56.625	-16.25	-0.9520554	0.004180658	-0.50791067
1277247815877	2.3699405	4.372132	1.6889231	-4.5545444	0.0	0.8125	-56.125	-15.0	-1.6267896	0.32738778	-0.49672374
1277247815917	3.8681788	8.662541	4.7943625	0.8229475	0.0	7.625	-54.375	-15.25	-1.8189309	0.4679291	-0.41997358
1277247815957	4.0180025	15.050485	3.173541	6.0909224	0.0	11.625	-52.625	-16.5	-1.3101215	0.20097443	-0.260884
1277247815997	0.53119355	7.3549876	2.6014864	-1.9870758	0.0	15.1875	-51.375	-18.25	-1.54285	0.33915356	-0.07209704
1277247816037	0.95342433	5.053149	2.3699405	-4.1444993	0.0	16.6875	-50.125	-19.5	-1.6334486	0.43185735	-0.1864869
1277247816077	4.0180025	10.038197	2.6832085	1.333787	0.0	17.9375	-48.875	-19.75	-1.2952049	0.2432447	-0.38074028
1277247816117	2.982856	10.923519	3.8681788	2.1592817	0.0	19.4375	-47.625	-19.5	-1.4043932	0.32917878	-0.26656854
1277247816157	2.6832085	6.510526	2.3018389	-2.3982077	0.0	20.4375	-45.375	-18.25	-1.3868644	0.31593448	-0.39092267
1277247816197	3.173541	6.510526	3.0237172	-1.9580083	0.0	21.4375	-43.125	-17.75	-1.4388741	0.39548257	-0.4535554
1277247816237	2.3426998	8.689782	2.6832085	-0.4151554	0.0	21.6875	-41.375	-18.5	-1.3257966	0.28974327	-0.26333195
1277247816277	3.1054392	10.651112	3.214402	1.7442074	0.0	21.1875	-39.125	-18.5	-1.291715	0.28200558	-0.28369588
1277247816317	3.9499009	10.61025	2.152015	1.7176847	0.0	20.6875	-37.625	-19.25	-1.1726807	0.18783924	-0.356377
1277247816357	4.2904096	11.836082	3.8681788	3.3638954	0.0	20.4375	-36.0625	-20.0	-1.2290494	0.29809442	-0.34775427
1277247816397	4.5628166	8.308413	1.7978859	-0.1587801	0.0	20.4375	-34.8125	-20.5	-1.1316158	0.1874463	-0.50221366
1277247816427	3.1054392	6.5513873	1.9477097	-2.2994537	0.0	20.4375	-34.5625	-20.5	-1.1733692	0.26244816	-0.44264227
1277247816457	2.6832085	8.812365	1.920469	-0.39678383	0.0	20.9375	-34.3125	-20.0	-1.1310763	0.20553508	-0.29556385
1277247816497	2.6832085	8.580819	2.1111538	-0.5715523	0.0	20.1875	-34.5625	-19.25	-1.1688104	0.23064053	-0.30306563
1277247816537	2.7649305	8.730643	1.6480621	-0.50153923	0.0	19.6875	-34.8125	-17.75	-1.1631415	0.17805296	-0.3066999
1277247816577	2.8738933	4.4810944	1.1849703	-4.352879	0.0	18.4375	-35.8125	-16.25	-1.252749	0.21902232	-0.57026136
1277247816617	2.7921712	6.1700177	2.2609777	-2.6668072	0.0	15.6875	-36.5625	-15.5	-1.3626603	0.3222173	-0.42496306
1277247816647	3.759216	6.238119	0.040861044	-2.5232782	0.0	11.375	-36.8125	-14.5	-1.1075891	0.0056102118	-0.5423438
1277247816677	3.9499009	12.871228	1.2666923	3.7164688	0.0	5.875	-37.625	-13.5	-1.0198458	0.09380616	-0.29775518
1277247816717	5.284695	10.269742	-1.1441092	1.7995806	0.0	0.5625	-38.375	-13.0	-0.8373142	-0.098737516	-0.47525048
1277247816757	3.2961242	12.108489	0.46309182	2.7509928	0.0	-3.1875	-39.125	-11.9375	-0.6008516	0.036885653	-0.2657761
1277247816797	3.214402	8.771504	-0.14982383	-0.46351814	0.0	-4.1875	-40.875	-11.1875	-0.70849085	-0.016036404	-0.35126227
1277247816827	2.6832085	6.932757	0.8036005	-2.3294516	0.0	-3.9375	-42.375	-10.4375	-1.09581	0.10768145	-0.36927855
1277247816857	2.1792557	6.2108784	0.8036005	-3.1756668	0.0	-3.1875	-42.875	-9.1875	-1.2203896	0.121487364	-0.33745608
1277247816897	0.7627395	9.193735	0.9942854	-0.52790356	0.0	-2.6875	-43.375	-8.1875	-0.25488573	0.10736344	-0.0827734
1277247816937	1.4165162	13.021052	0.7218784	3.311102	0.0	-1.4375	-43.375	-7.1875	-0.5973488	0.055058464	-0.10836049
1277247816967	-0.3405087	14.519291	0.7627395	4.7366486	0.0	0.5625	-43.375	-5.9375	0.12376511	0.05247019	0.02344786
1277247816997	-2.7240696	10.119919	-1.6889231	0.80870533	0.0	3.0625	-44.375	-5.4375	0.60845274	-0.15978089	0.26294646
1277247817037	-1.2666923	9.234595	-1.2258313	-0.40532494	0.0	6.125	-44.375	-3.6875	-0.003981268	-0.13076152	0.13631745
1277247817077	-1.607201	9.275456	-1.4573772	-0.2808361	0.0	7.875	-44.875	-1.6875	-0.011326623	-0.15359563	0.17157105
1277247817117	-1.0760075	9.00305	-3.1054392	-0.22247314	0.0	9.125	-44.375	-0.4375	-0.24711251	-0.3299728	0.118951656
1277247817157	-0.14982383	8.921328	-3.214402	-0.32272053	0.0	9.875	-43.875	1.3125	-0.58852196	-0.34578088	0.016792314
1277247817197	0.3405087	8.962189	-2.9147544	-0.3762436	0.0	10.375	-43.625	2.5625	-0.8336921	-0.314226	-0.037975654
1277247817237	0.53119355	8.049625	-3.173541	-1.1377401	0.0	11.375	-43.125	3.3125	-0.8527607	-0.3747964	-0.065894306
1277247817277	-0.46309182	8.539958	-3.445948	-0.58602715	0.0	12.125	-43.125	4.5625	-0.67910117	-0.38301834	0.054173414
1277247817317	-0.19068487	8.049625	-3.3642259	-1.080205	0.0	12.875	-42.375	5.3125	-0.79907614	-0.39577213	0.023684235
1277247817357	0.040861044	8.730643	-3.255263	-0.4887886	0.0	13.625	-42.125	5.0625	-0.9468262	-0.3568851	-0.004680153
1277247817397	-0.95342433	7.9270425	-3.636633	-1.0332747	0.0	14.125	-42.375	5.5625	-0.6009316	-0.42740193	0.119699925
1277247817438	-2.2609777	9.193735	-2.6832085	0.033898354	0.0	14.125	-41.875	4.8125	-0.46662545	-0.27616563	0.24114057
1277247817478	-1.9477097	9.112013	-2.3018389	-0.2086916	0.0	15.1875	-42.375	4.8125	-0.78264683	-0.24218649	0.21058285
1277247817517	-1.7570249	8.812365	-2.982856	-0.33868694	0.0	15.4375	-42.375	5.0625	-0.6382683	-0.32050645	0.19680104
1277247817547	-1.7978859	9.615966	-1.6889231	0.12066841	0.0	15.4375	-41.875	4.0625	-1.1350263	-0.1709604	0.18483478
1277247817577	-1.1441092	9.425281	-2.1792557	-0.06529236	0.0	15.4375	-42.375	4.0625	-1.0495819	-0.22562103	0.12079629
1277247817617	-1.4982382	8.580819	-3.173541	-0.5359144	0.0	14.375	-41.625	3.0625	-0.5279494	-0.349383	0.1728606
1277247817657	-1.3075534	9.765789	-2.3018389	0.3115902	0.0	13.875	-41.625	2.5625	-0.84448195	-0.22950341	0.13309963
1277247817687	-0.88532263	9.466142	-1.879608	-0.11518097	0.0	13.625	-41.125	2.5625	-1.043179	-0.19518149	0.09325392
1277247817727	-0.27240697	9.888372	-1.9477097	0.2753973	0.0	13.375	-40.875	2.5625	-1.1519935	-0.19440821	0.027541244
1277247817767	-0.19068487	8.771504	-1.3756552	-0.9258795	0.0	13.375	-41.125	2.3125	-1.2512136	-0.15552895	0.021735705
1277247817807	-1.920469	9.234595	0.08172209	-0.37411976	0.0	13.625	-41.125	1.5625	-1.9423895	0.008663964	0.20504199
1277247817837	-1.6480621	9.575105	-0.6537767	-0.068777084	0.0	13.125	-41.625	0.8125	-1.2285283	-0.06718806	0.17044939
1277247817867	-0.53119355	9.534244	-1.1849703	-0.18437767	0.0	13.125	-41.625	-0.1875	-1.1071833	-0.12346211	0.055656742
1277247817907	0.3405087	9.152874	-0.95342433	-0.59795475	0.0	12.875	-41.625	0.0625	-1.2875782	-0.1037211	-0.03718523
1277247817947	0.84446156	9.084772	0.08172209	-0.6823492	0.0	12.375	-41.625	0.0625	-1.5969708	0.008956651	-0.09268718
1277247817979	0.14982383	9.724928	-0.040861044	-0.08048248	0.0	12.375	-41.875	-0.4375	-1.5237755	-0.004201158	-0.015404944
1277247818017	0.08172209	9.615966	-0.38136974	-0.18277836	0.0	12.125	-41.875	-0.6875	-1.385283	-0.039637856	-0.008498378
1277247818057	0.53119355	9.425281	0.040861044	-0.36632442	0.0	11.875	-42.125	-1.4375	-1.4825759	0.0043283645	-0.056298826
1277247818097	0.88532263	9.507003	0.08172209	-0.2581644	0.0	11.625	-41.875	-1.9375	-1.4683076	0.008558748	-0.092855416
1277247818137	1.7570249	9.507003	-0.10896278	-0.13803577	0.0	11.125	-41.375	-1.9375	-1.4429369	-0.01126998	-0.18275169
1277247818167	1.607201	9.534244	-0.19068487	-0.13601112	0.0	10.375	-40.875	-1.9375	-1.4136391	-0.019719196	-0.16700137
1277247818197	1.5390993	9.384419	-0.19068487	-0.29494572	0.0	10.125	-41.125	-1.9375	-1.4089644	-0.020048736	-0.16255862
1277247818237	1.3756552	9.112013	-0.040861044	-0.5912895	0.0	9.375	-41.625	-1.6875	-1.4510027	-0.004434029	-0.14984003
1277247818277	1.3756552	9.043911	0.040861044	-0.6586218	0.0	8.875	-41.875	-1.1875	-1.5039779	0.0044666654	-0.15095134
1277247818317	1.334794	9.343558	-0.23154591	-0.36539173	0.0	8.625	-42.625	-1.1875	-1.4214274	-0.024527358	-0.14189707
1277247818357	1.3075534	9.575105	-0.42223078	-0.13346004	0.0	8.125	-42.125	-1.4375	-1.3414491	-0.043663464	-0.13571815
1277247818397	1.3075534	9.575105	-0.6537767	-0.12059116	0.0	8.375	-42.125	-1.1875	-1.297381	-0.06754802	-0.13571814
1277247818427	1.1168685	9.534244	-0.95342433	-0.15998173	0.0	8.375	-41.625	-1.1875	-1.1963965	-0.098996185	-0.11661139
1277247818457	1.0351465	9.575105	-0.88532263	-0.13514805	0.0	8.875	-41.625	-1.1875	-1.2188419	-0.09166764	-0.10768988
1277247818497	1.1849703	9.275456	-0.61291564	-0.43574238	0.0	8.625	-41.875	-0.1875	-1.3692414	-0.06545294	-0.12706502
1277247818537	1.1441092	8.894087	-0.10896278	-0.8386164	0.0	8.875	-42.125	-0.1875	-1.5227717	-0.012150429	-0.12793449
1277247818567	1.2666923	9.384419	-0.0	-0.33712864	0.0	9.625	-42.125	0.0625	-1.5749154	-0.0	-0.13416736
1277247818607	1.879608	11.34575	-0.6537767	1.7123079	0.0	9.625	-42.375	0.5625	-1.4663237	-0.0567871	-0.16417517
1277247818647	2.5606253	11.876944	-0.9942854	2.3838053	0.0	10.875	-42.125	0.5625	-1.437745	-0.08165332	-0.21234606
1277247818677	0.92618364	10.800936	-0.46309182	1.0438099	0.0	11.125	-41.875	1.5625	-1.5585867	-0.04269243	-0.08554106
1277247818717	0.10896278	9.697687	-0.08172209	-0.10800648	0.0	10.875	-42.375	2.5625	-1.7627916	-0.008426235	-0.011235482
1277247818747	0.10896278	8.812365	0.6946377	-0.96627903	0.0	11.125	-42.125	4.5625	-2.1637769	0.07865672	-0.0123641305
1277247818787	-1.6480621	8.962189	-0.14982383	-0.6929579	0.0	10.875	-41.875	6.3125	-2.63315	-0.016440162	0.18185885
1277247818827	-3.336985	10.228881	-1.56634	1.0662012	0.0	11.125	-41.625	7.5625	2.0744326	-0.1445627	0.3153455
1277247818867	-1.3756552	10.038197	-1.0760075	0.38234425	0.0	12.125	-40.625	9.0625	-2.1856058	-0.105802156	0.1361937
1277247818907	0.53119355	9.888372	-1.607201	0.22555637	0.0	13.875	-40.125	10.3125	-1.8085746	-0.16089746	-0.053667422
1277247818957	-0.3405087	8.19945	-2.1383946	-1.3261051	0.0	16.1875	-39.625	12.3125	-1.6915008	-0.25490448	0.04150439
1277247818997	-1.1849703	7.7363577	-2.8330324	-1.4831018	0.0	18.1875	-38.125	14.625	-1.5697958	-0.34730348	0.15198778
1277247819037	-1.1849703	7.014479	-2.8738933	-2.13421	0.0	20.1875	-37.625	16.625	-1.5897591	-0.3839368	0.167352
1277247819077	-0.9125633	6.851035	-2.6014864	-2.4217205	0.0	20.6875	-36.0625	16.875	-1.7120274	-0.35999507	0.1324213
1277247819117	-1.3075534	7.205164	-2.4516625	-2.0842972	0.0	20.6875	-35.3125	16.625	-1.8190587	-0.32306668	0.17952077
1277247819157	-1.7297841	8.117727	-3.1463003	-0.9303417	0.0	20.4375	-35.5625	15.625	-1.6321009	-0.362337	0.2099472
1277247819188	-1.8387469	9.00305	-3.3642259	-0.0212574	0.0	19.6875	-35.5625	14.375	-1.5843648	-0.35096145	0.20146531
1277247819227	-2.7240696	8.62168	-3.0645783	-0.25963116	0.0	18.9375	-36.5625	13.875	-1.5875665	-0.32678354	0.3060301
1277247819277	-2.8330324	9.043911	-2.3018389	-0.05386257	0.0	18.1875	-37.875	12.875	-1.991216	-0.2382666	0.30357075
1277247819317	-1.8387469	9.00305	-3.5276701	0.03613186	0.0	17.4375	-38.375	12.3125	-1.2398629	-0.36655533	0.20146531
1277247819357	-1.0351465	9.152874	-4.7126403	0.54011726	0.0	16.9375	-39.125	11.8125	-0.9957494	-0.47289988	0.11261672
1277247819397	-1.1849703	9.00305	-4.7126403	0.42408943	0.0	17.4375	-39.375	11.3125	-0.93380195	-0.47871086	0.13086654
1277247819437	-2.1792557	10.378705	-3.3642259	1.3192062	0.0	17.4375	-39.125	10.5625	-1.2909752	-0.30718756	0.20696706
1277247819467	-2.8330324	10.760075	-1.525479	1.4242163	0.0	17.1875	-39.375	9.8125	-2.1109662	-0.1362503	0.25744835
1277247819497	-2.1792557	10.079058	-0.19068487	0.50707436	0.0	16.6875	-39.375	9.3125	-2.3891535	-0.018489514	0.21293835
1277247819537	-1.7570249	10.528529	0.10896278	0.86803627	0.0	15.6875	-39.625	8.8125	-2.371937	0.010207764	0.16535844
1277247819567	-2.6423476	10.501288	-0.23154591	1.0244474	0.0	15.1875	-40.125	8.5625	-2.568427	-0.021379508	0.246504
1277247819597	-0.46309182	8.689782	-0.6946377	-1.0768566	0.0	15.1875	-40.375	8.0625	-1.9216628	-0.079655126	0.05324117
1277247819637	3.636633	7.6954966	-0.88532263	-1.2492228	0.0	14.875	-41.125	7.0625	-1.6938137	-0.10364208	-0.44146085
1277247819667	3.9090397	8.962189	-0.95342433	0.01732254	0.0	14.875	-41.375	5.5625	-1.6512425	-0.09720379	-0.41129375
1277247819697	2.8330324	10.56939	-1.2258313	1.2042875	0.0	14.875	-41.375	4.5625	-1.5912769	-0.11155976	-0.26188526
1277247819737	2.070293	11.727119	-2.9147544	2.4533348	0.0	14.125	-41.625	2.8125	-1.2756193	-0.24004398	-0.17473845
1277247819767	2.6832085	9.697687	-0.6946377	0.2793436	0.0	14.125	-41.625	1.3125	-1.5225134	-0.06892608	-0.26993242
1277247819807	2.3699405	7.9270425	3.718355	-0.735775	0.0	13.625	-41.875	0.5625	-2.1208515	0.422369	-0.29051074
1277247819847	2.0294318	7.1234417	1.8387469	-2.1749396	0.0	12.625	-41.875	-0.9375	-1.8958963	0.24332923	-0.27754188
1277247819877	2.982856	6.2108784	4.1814466	-1.7470636	0.0	12.125	-41.875	-2.4375	-2.041236	0.545466	-0.44773382
1277247819917	1.2666923	9.507003	4.0588636	0.6078577	0.0	10.625	-41.125	-4.1875	-2.1944249	0.4003402	-0.13245767
1277247819957	-4.372132	13.211738	-2.3426998	4.3055363	0.0	9.125	-40.875	-7.1875	0.28995794	-0.16677752	0.31958407
1277247819987	-3.0237172	10.95076	-0.61291564	1.5704184	0.0	8.375	-40.625	-8.6875	0.24615821	-0.053898986	0.2694066
1277247820027	0.3405087	9.724928	1.9885708	0.12534809	0.0	7.375	-40.375	-10.1875	-1.3518926	0.20158103	-0.03499971
1277247820057	3.486809	9.084772	1.4573772	0.03280449	0.0	6.875	-40.125	-10.1875	-1.3397835	0.14866263	-0.36647037
1277247820097	2.6014864	8.19945	1.3075534	-1.1055927	0.0	6.375	-39.125	-9.1875	-1.3633837	0.15084666	-0.3072298
1277247820137	-0.08172209	8.689782	0.7218784	-1.0865526	0.0	6.125	-38.375	-9.6875	-0.7275255	0.08287814	0.009404112
1277247820167	-0.3405087	10.119919	-0.6946377	0.34279442	0.0	5.875	-38.125	-9.1875	-0.37130693	-0.068494506	0.033634685
1277247820197	0.23154591	10.079058	-2.9556155	0.6993809	0.0	5.625	-38.125	-9.6875	-0.3144483	-0.28517523	-0.022968933
1277247820237	0.6537767	10.18802	-0.46309182	0.41282272	0.0	5.375	-38.125	-9.9375	-0.5908704	-0.04533017	-0.06408326
1277247820267	0.3405087	10.269742	-0.53119355	0.4824562	0.0	4.5625	-38.625	-10.1875	-0.44776016	-0.051649757	-0.03314436
1277247820307	0.8036005	9.697687	-1.334794	0.015396118	0.0	4.5625	-38.375	-9.4375	-0.48914066	-0.13631956	-0.08267628
1277247820347	0.38136974	9.234595	-0.10896278	-0.5635414	0.0	4.5625	-38.625	-8.9375	-0.5800459	-0.011788816	-0.04127448
1277247820377	0.50395286	9.043911	0.10896278	-0.74805355	0.0	4.8125	-38.875	-8.1875	-0.7340302	0.01202895	-0.055665325
1277247820417	1.0351465	9.043911	0.040861044	-0.70359993	0.0	5.125	-39.125	-6.6875	-0.9716317	0.004488735	-0.113961905
1277247820447	1.2666923	9.656827	0.040861044	-0.06701565	0.0	5.375	-39.125	-6.6875	-1.0110593	0.0041953484	-0.13042602
1277247820477	0.7218784	10.147159	0.14982383	0.36725712	0.0	5.125	-39.625	-6.1875	-0.9547229	0.014726815	-0.07102129
1277247820517	-0.23154591	9.697687	0.7627395	-0.07625866	0.0	4.8125	-40.125	-5.4375	-1.0389401	0.07846784	0.02387187
1277247820557	-2.5606253	8.921328	-0.10896278	-0.52447605	0.0	4.0625	-39.875	-4.9375	0.9202779	-0.011739199	0.2795091
1277247820597	-2.4108016	9.00305	-1.920469	-0.29060745	0.0	3.3125	-40.375	-4.1875	0.5377903	-0.2032095	0.2616379
1277247820637	0.8036005	9.724928	-2.1111538	0.17718506	0.0	2.5625	-40.125	-2.6875	-0.48792726	-0.21306564	-0.08244574
1277247820667	0.53119355	9.724928	-1.8387469	0.10482693	0.0	2.3125	-40.125	-1.9375	-0.44988525	-0.18659791	-0.054567624
1277247820697	-1.1849703	10.079058	-2.5606253	0.65988445	0.0	2.8125	-40.625	-1.1875	0.17388266	-0.2471575	0.11703033
1277247820737	-1.9885708	10.378705	-4.8216033	1.8088484	0.0	3.3125	-40.875	0.0625	0.2573255	-0.42805365	0.18930677
1277247820777	0.10896278	9.534244	-5.5571017	1.2294292	0.0	4.0625	-41.375	0.8125	-0.22183196	-0.5276907	-0.011428074
1277247820817	-0.29964766	7.8589406	-3.6774938	-1.1246748	0.0	4.5625	-41.875	2.0625	-0.1839466	-0.43739155	0.03810979
1277247820847	-1.7297841	7.7772183	-2.5606253	-1.4380131	0.0	4.8125	-42.125	3.0625	0.41905168	-0.31096634	0.21885437
1277247820877	-2.6423476	7.504812	-2.5333846	-1.456665	0.0	4.8125	-42.625	3.5625	0.8027363	-0.3082587	0.33853295
1277247820917	-2.1383946	6.891896	-2.7513103	-2.0839133	0.0	5.125	-42.625	3.8125	0.59292185	-0.36426333	0.30085808
1277247820957	-1.7978859	6.973618	-1.9885708	-2.335495	0.0	5.375	-42.375	3.3125	0.5865909	-0.26941383	0.25231797
1277247820987	-1.3075534	8.771504	-1.4982382	-0.8125572	0.0	6.375	-41.875	2.8125	-0.030651784	-0.16736042	0.14797865
1277247821027	-1.334794	9.425281	-1.1849703	-0.21385384	0.0	7.625	-41.875	2.0625	-0.4820595	-0.123843424	0.14068297
1277247821067	-1.334794	9.575105	-1.4165162	-0.035733223	0.0	9.375	-41.625	1.3125	-0.6287233	-0.14548537	0.13850993
1277247821107	-1.6480621	9.847511	-2.1383946	0.40424252	0.0	10.875	-41.625	0.3125	-0.4184795	-0.21098472	0.16582148
1277247821147	-1.3075534	9.656827	-1.6480621	0.07667446	0.0	12.125	-41.625	-0.4375	-0.7034528	-0.16753443	0.13458347
1277247821177	-0.95342433	9.112013	-1.56634	-0.5119629	0.0	12.625	-40.625	-0.9375	-0.8083831	-0.16932793	0.10425441
1277247821217	-1.7297841	8.812365	-1.607201	-0.68343735	0.0	13.125	-39.625	-2.9375	-0.47562718	-0.17709029	0.19382627
1277247821257	-1.4165162	8.430995	-1.879608	-1.0533009	0.0	13.875	-37.875	-3.6875	-0.548771	-0.21641554	0.16645828
1277247821297	-0.9942854	7.8589406	-2.2201166	-1.5798359	0.0	13.625	-34.3125	-5.9375	-0.54000664	-0.27325124	0.12584785
1277247821337	-1.3075534	9.888372	-3.0237172	0.6160402	0.0	12.625	-28.3125	-8.1875	-0.49122274	-0.29434082	0.1314687
1277247821377	-2.3699405	11.073342	-2.9556155	1.8968191	0.0	9.125	-19.0625	-7.9375	-0.3660559	-0.25530633	0.21084133
1277247821417	-2.9147544	9.084772	-4.8216033	0.88337994	0.0	5.625	-8.0	-6.1875	-0.2907118	-0.46792737	0.31046435
1277247821457	-3.445948	6.973618	-2.4108016	-1.6630716	0.0	2.3125	2.25	-0.6875	-1.4531635	-0.30054113	0.45894912
1277247821487	-1.2258313	7.4639506	-1.920469	-2.0027137	0.0	1.0625	7.25	6.8125	-2.8804939	-0.2486439	0.16278042
1277247821527	-1.1168685	9.915613	-2.7240696	0.5368185	0.0	1.3125	7.75	14.125	-3.0034087	-0.26650488	0.11216461
1277247821567	-0.10896278	9.615966	-1.1849703	-0.11733532	0.0	1.3125	4.25	19.625	-3.073654	-0.12260353	0.011330959
1277247821597	1.7978859	11.795221	-0.7627395	2.1491604	0.0	0.3125	-0.0	22.875	-3.1280625	-0.063839905	-0.15126067
1277247821637	0.95342433	10.732834	-0.7627395	0.9954109	0.0	-3.4375	-1.5	23.125	2.999093	-0.07066936	-0.08859992
1277247821667	1.56634	10.119919	-0.88532263	0.4719677	0.0	-8.5	-4.5	20.375	2.770262	-0.086239316	-0.15355942
1277247821707	1.2666923	8.539958	-0.27240697	-1.1689653	0.0	-14.25	-8.75	16.375	2.4672465	-0.031542264	-0.14725175
1277247821747	1.4165162	6.2789803	1.7978859	-3.123499	0.0	-16.8125	-16.0625	11.5625	2.4748046	0.272373	-0.22188215
1277247821787	0.50395286	7.8861814	0.8036005	-1.8636284	0.0	-15.5625	-24.8125	6.3125	2.1380062	0.10134402	-0.06381651
1277247821827	-0.6946377	10.419566	-0.42223078	0.644577	0.0	-11.75	-31.8125	2.3125	1.6472222	-0.040411115	0.066568166
1277247821857	1.6889231	10.501288	0.53119355	0.8428421	0.0	-6.5	-35.8125	-1.1875	2.2815046	0.04990041	-0.15946452
1277247821887	3.9090397	9.656827	-0.10896278	0.611928	0.0	-3.1875	-38.125	-3.9375	-1.207176	-0.0104586985	-0.38463354
1277247821927	3.718355	10.228881	-1.1168685	1.1342621	0.0	-1.6875	-39.125	-4.9375	-0.93337506	-0.10225997	-0.34866408
1277247821967	3.255263	11.223166	-2.2201166	2.0881014	0.0	-0.9375	-40.125	-5.1875	-0.6945277	-0.18774778	-0.28230223
1277247822007	2.4516625	10.841797	-1.7570249	1.4468975	0.0	-1.6875	-41.375	-4.9375	-0.58733755	-0.15677215	-0.22239035
1277247822047	2.2201166	10.460427	-1.607201	1.0068855	0.0	-3.6875	-42.875	-3.1875	-0.50845295	-0.14918135	-0.2091362
1277247822087	1.607201	10.95076	-0.7218784	1.2849388	0.0	-6.0	-45.125	1.3125	-0.35688135	-0.065129444	-0.14572579
1277247822127	-0.3405087	10.691973	2.3426998	1.1442614	0.0	-4.9375	-47.375	8.5625	2.8057928	0.21559365	0.031836376
1277247822167	-4.7126403	9.997335	0.6537767	1.2650757	0.0	-1.1875	-48.625	14.625	2.2376833	0.059083585	0.44049847
1277247822197	-3.7864566	12.680544	-1.1168685	3.4741945	0.0	3.8125	-48.375	18.875	2.5392892	-0.084195636	0.29017523
1277247822237	-1.7978859	13.102775	-2.2609777	3.6107683	0.0	9.875	-46.125	21.625	-2.884994	-0.1693185	0.1363626
1277247822267	-0.38136974	10.528529	-0.46309182	0.73895645	0.0	12.375	-42.625	22.125	-2.649964	-0.043927375	0.036206678
1277247822307	2.982856	8.349273	-0.19068487	-0.9384966	0.0	13.125	-39.625	24.375	-2.3151028	-0.021503864	-0.34312725
1277247822347	0.88532263	5.47538	-1.3756552	-4.0921063	0.0	14.375	-36.5625	27.625	-2.3213127	-0.24311665	-0.16030414
1277247822377	0.53119355	5.284695	-2.3018389	-4.017986	0.0	15.1875	-34.3125	30.125	-2.2400758	-0.4089498	-0.10017898
1277247822417	-1.8387469	5.09401	-2.7921712	-3.7135272	0.0	15.6875	-32.5625	32.625	-2.854283	-0.4760249	0.34640744
1277247822457	-2.7240696	4.0588636	-3.9771416	-3.504858	0.0	15.4375	-31.3125	35.125	2.433411	-0.6829869	0.5910938
1277247822489	-1.8387469	4.5219555	-8.349273	-0.13507175	0.0	11.125	-31.3125	36.125	0.14188191	-1.041731	0.3862058
1277247822527	-1.879608	10.61025	-8.430995	3.875163	0.0	4.0625	-31.8125	35.125	2.9485474	-0.663933	0.1753312
1277247822567	-2.4925237	13.484144	-13.021052	9.103205	0.0	-3.9375	-30.8125	29.875	1.7064818	-0.7595366	0.18278526
1277247822607	-3.759216	9.425281	-3.9771416	1.0922155	0.0	-10.75	-26.8125	19.375	2.0521586	-0.37353975	0.37950936
1277247822647	-2.8738933	6.851035	1.9885708	-2.1157231	0.0	-7.25	-21.5625	12.0625	2.389686	0.26153183	0.39718848
1277247822687	-1.1168685	8.076866	-2.7240696	-1.2099228	0.0	-0.6875	-19.0625	10.3125	2.431244	-0.3224306	0.13740854
1277247822727	1.920469	9.615966	2.6832085	0.3596964	0.0	5.875	-20.3125	13.625	-2.6478357	0.26709488	-0.19712315
1277247822787	3.7864566	10.038197	-2.2201166	1.1492414	0.0	10.375	-25.5625	21.875	-2.317023	-0.20405447	-0.3607023
1277247822827	1.334794	8.662541	-2.7240696	-0.628314	0.0	7.375	-32.0625	26.125	-2.4875097	-0.30133298	-0.15288562
1277247822857	-0.53119355	6.932757	-1.2258313	-2.7463422	0.0	3.8125	-36.3125	25.625	-3.087294	-0.17450728	0.07647141
1277247822897	1.1168685	9.043911	-0.84446156	-0.6549921	0.0	1.0625	-38.875	23.875	-2.861441	-0.09240561	-0.12287186
1277247822937	0.84446156	8.730643	-0.27240697	-1.0310335	0.0	-0.1875	-40.625	20.625	-2.9515254	-0.031046335	-0.09642392
1277247822967	0.08172209	9.425281	-1.3075534	-0.29075336	0.0	-0.9375	-41.875	18.625	3.096372	-0.13784339	-0.008670303
1277247823007	0.9942854	10.760075	-2.5333846	1.2922621	0.0	-1.6875	-42.875	16.625	-2.8017638	-0.23028521	-0.092143394
1277247823047	3.0237172	11.686258	-1.7978859	2.3976068	0.0	-1.1875	-43.625	14.875	-2.2832942	-0.1478544	-0.25318864
1277247823087	1.920469	12.489859	-0.6537767	2.8468943	0.0	-0.4375	-43.875	14.375	-2.6661499	-0.05169049	-0.1525674
1277247823127	1.7297841	11.495573	-3.9499009	2.471056	0.0	0.5625	-44.625	14.125	-1.460684	-0.32753837	-0.14935343
1277247823167	1.9885708	10.691973	-0.46309182	1.0785303	0.0	1.3125	-43.875	14.625	-2.5121083	-0.042556174	-0.18388619
1277247823197	4.399372	10.419566	0.5720546	1.5180607	0.0	2.3125	-43.125	16.125	-2.3335054	0.050535347	-0.39951545
1277247823237	2.152015	10.079058	0.53119355	0.5132694	0.0	3.3125	-41.875	18.625	-2.6162565	0.051495403	-0.21035491
1277247823277	-2.3018389	16.467001	-3.718355	7.2311535	0.0	3.8125	-39.625	22.375	3.0123487	-0.22001211	0.13888502
1277247823317	0.14982383	12.598822	-1.3756552	2.867937	0.0	5.125	-37.625	26.625	-2.8976943	-0.10875072	-0.011891332
1277247823357	1.7570249	7.3549876	-0.23154591	-2.2411633	0.0	6.375	-34.8125	31.125	-2.6986184	-0.030610332	-0.23449413
1277247823397	1.4982382	6.66035	0.61291564	-2.9524078	0.0	7.625	-32.3125	34.875	-2.7710657	0.08954096	-0.22126578
1277247823438	0.46309182	5.706926	0.5720546	-4.0524597	0.0	9.375	-29.5625	37.125	-2.8548274	0.0995798	-0.08096818
1277247823477	-2.5606253	0.6946377	-0.14982383	-7.149251	0.0	10.625	-28.0625	38.4375	2.5651748	-0.056409784	1.305895
1277247823517	0.27240697	5.6660647	-2.2609777	-3.7000537	0.0	11.375	-27.8125	36.625	-2.6539078	-0.37927994	-0.048039936
1277247823557	-4.0588636	11.645397	-6.8237944	4.2878113	0.0	10.875	-29.0625	34.375	-3.0948699	-0.50538826	0.3353718
1277247823597	0.95342433	15.050485	-11.114203	8.927053	0.0	10.875	-30.8125	31.875	-2.1193829	-0.63511884	-0.06326388
1277247823627	5.175732	9.193735	-9.112013	4.134001	0.0	11.625	-32.0625	29.125	-1.8533654	-0.71236956	-0.512741
1277247823657	1.7297841	10.337844	-4.2495484	1.503603	0.0	11.375	-32.5625	28.125	-2.2958753	-0.3851793	-0.16578957
1277247823687	-1.0351465	9.302697	3.5276701	0.19615746	0.0	11.375	-32.5625	26.875	-2.936335	0.3604208	0.110817924
1277247823717	-2.6832085	7.3549876	1.9477097	-1.7388735	0.0	11.125	-32.5625	25.875	3.12039	0.24382721	0.3498114
1277247823747	-2.3426998	8.580819	-4.8216033	0.31098557	0.0	10.625	-33.0625	24.875	-2.8602486	-0.49673122	0.26652065
1277247823787	3.3778462	9.343558	3.3778462	0.68724155	0.0	10.875	-33.8125	23.125	-2.5294561	0.32772177	-0.34689707
1277247823827	5.407278	11.223166	2.3699405	2.8746252	0.0	11.875	-34.3125	20.875	-2.3508842	0.18799035	-0.44897872
1277247823867	-0.08172209	9.00305	-1.4573772	-0.6860399	0.0	12.125	-35.5625	17.625	-2.3518102	-0.16047734	0.009076907
1277247823907	-5.175732	9.466142	-1.1849703	1.0469294	0.0	11.875	-36.8125	13.625	2.4849634	-0.10939591	0.5003543
1277247823947	2.152015	9.302697	-0.5720546	-0.2411604	0.0	11.125	-38.375	9.5625	-1.9363652	-0.059839714	-0.22733346
1277247823977	0.42223078	6.851035	2.982856	-2.3225074	0.0	10.125	-39.375	6.0625	-2.6031852	0.40994272	-0.061552368
1277247824007	-2.3018389	11.604536	-3.9499009	2.6659374	0.0	9.625	-39.875	3.3125	-0.16941194	-0.3222342	0.19581509
1277247824037	0.9942854	13.402422	-4.0588636	4.232149	0.0	9.375	-40.125	2.3125	-0.9316556	-0.29330492	-0.07405134
1277247824068	4.099725	11.536434	-1.0351465	2.480277	0.0	10.125	-39.625	2.3125	-1.5464389	-0.08434777	-0.34145245
1277247824107	5.366417	10.760075	-3.1463003	2.622221	0.0	10.875	-39.875	2.5625	-1.379707	-0.25592926	-0.46263444
1277247824147	5.134871	11.304889	-0.23154591	2.6119251	0.0	11.375	-39.625	3.8125	-1.6908746	-0.018646207	-0.42635512
1277247824177	3.6774938	10.882658	1.4982382	1.7778625	0.0	11.875	-38.875	5.0625	-1.9444919	0.12969442	-0.325875
1277247824207	1.2666923	11.536434	1.5390993	1.9007254	0.0	12.125	-38.625	5.5625	-2.1390643	0.13184573	-0.10936122
1277247824247	-2.6423476	15.595298	-0.8036005	6.031313	0.0	12.125	-38.375	7.5625	-2.3549504	-0.050760675	0.16783838
1277247824287	0.53119355	14.410328	-1.2258313	4.665474	0.0	13.125	-37.875	9.3125	-1.9695542	-0.08480454	-0.03684532
1277247824327	0.84446156	8.580819	0.92618364	-1.1347771	0.0	14.125	-37.3125	11.3125	-2.2756586	0.10700728	-0.09809682
1277247824357	0.84446156	6.2789803	0.08172209	-3.470611	0.0	15.1875	-36.0625	14.375	-2.2115397	0.012898334	-0.13368805
1277247824397	1.2258313	5.5571017	0.313268	-4.1073365	0.0	16.4375	-34.0625	15.875	-2.2127345	0.054993637	-0.21711132
1277247824427	-1.6480621	3.5957718	1.0760075	-5.707446	0.0	17.1875	-32.8125	16.875	-3.0665948	0.26560366	0.4297623
1277247824457	-3.6774938	4.372132	-0.3405087	-4.0834126	0.0	17.9375	-32.0625	17.125	2.7085116	-0.059530973	0.699317
1277247824490	-3.255263	5.9793324	-2.7240696	-2.473867	0.0	17.9375	-32.5625	16.125	-2.9840968	-0.38061538	0.4985484
1277247824527	-5.7477865	9.724928	-4.3312707	2.2917461	0.0	17.6875	-32.8125	14.625	1.7860153	-0.366129	0.53380257
1277247824567	0.14982383	13.443283	-14.982383	10.32333	0.0	16.9375	-33.0625	13.625	-0.8446704	-0.83945924	-0.011144423
1277247824607	6.3607025	9.234595	-12.789507	7.2024	0.0	16.4375	-33.0625	12.625	-1.412958	-0.85097516	-0.6031632
1277247824637	-0.61291564	10.882658	-1.1168685	1.1503248	0.0	15.1875	-33.0625	12.0625	-2.14187	-0.10210954	0.056260962
1277247824667	-2.2609777	12.680544	5.47538	4.189349	0.0	13.875	-33.5625	12.3125	-2.8426871	0.40194643	0.17644861
1277247824707	-7.1234417	6.6331096	-2.3018389	0.19535065	0.0	12.875	-34.3125	12.3125	1.8357112	-0.23221932	0.8210266
1277247824748	-2.7921712	7.014479	1.8387469	-2.0361853	0.0	12.625	-34.5625	12.3125	3.0907056	0.23889877	0.37883133
1277247824787	4.7535014	7.205164	5.434519	0.39355373	0.0	13.625	-34.5625	11.3125	-2.1740243	0.5618885	-0.58318865
1277247824817	7.6273947	13.525005	-1.525479	5.7955933	0.0	13.875	-34.5625	9.0625	-1.7987401	-0.0979295	-0.5134885
1277247824847	1.0351465	7.6954966	-6.1700177	0.11107731	0.0	13.875	-34.5625	6.0625	-0.8724072	-0.6714477	-0.13371068
1277247824887	-3.1463003	8.158588	-2.9147544	-0.58940697	0.0	12.625	-35.0625	2.8125	0.09153567	-0.32175124	0.36806852
1277247824927	0.92618364	8.349273	1.9477097	-1.1833248	0.0	10.875	-35.8125	0.0625	-2.058592	0.22783117	-0.11047817
1277247824957	-1.9477097	9.425281	-3.255263	0.35338116	0.0	9.875	-36.3125	-2.4375	-0.16050154	-0.3261506	0.20377904
1277247824990	0.3405087	10.991621	-3.8273177	1.8372345	0.0	9.875	-36.3125	-4.1875	-0.608407	-0.3349243	-0.030969031
1277247825027	1.7297841	10.038197	1.334794	0.46657753	0.0	10.125	-36.3125	-5.9375	-1.4805443	0.13029775	-0.17064433
1277247825057	3.759216	13.184497	-2.1792557	4.0754185	0.0	10.875	-35.5625	-6.9375	-1.0440751	-0.15763552	-0.27775383
1277247825097	7.3549876	11.795221	-0.61291564	4.1073265	0.0	11.875	-35.0625	-7.1875	-1.2913761	-0.044064615	-0.5575606
1277247825137	2.4925237	10.079058	-2.9556155	0.9885225	0.0	12.125	-34.8125	-7.4375	-0.9111762	-0.2773319	-0.24243332
1277247825177	4.440233	12.4489975	0.50395286	3.4201097	0.0	11.875	-34.5625	-6.9375	-1.3198341	0.03811023	-0.34260803
1277247825207	1.5390993	12.299174	3.7864566	3.1538963	0.0	11.375	-34.8125	-6.4375	-1.7927444	0.29647678	-0.12449129
1277247825247	-3.8273177	15.050485	-0.29964766	5.7257433	0.0	10.875	-35.8125	-5.1875	-0.28227788	-0.019292986	0.24902032
1277247825287	-3.405087	15.241169	-3.0645783	6.1081066	0.0	10.125	-36.3125	-2.9375	-0.1914582	-0.19377239	0.21980414
1277247825347	3.255263	7.43671	2.152015	-1.4082832	0.0	9.625	-37.0625	0.0625	-1.8879168	0.25913244	-0.41260257
1277247825387	3.759216	5.325556	0.040861044	-3.2878375	0.0	9.875	-37.625	3.8125	-1.703371	0.0062682135	-0.614663
1277247825427	-0.10896278	2.3699405	1.6889231	-6.8944426	0.0	10.125	-37.3125	7.5625	-2.8505764	0.6186625	0.045944653
1277247825467	-2.4925237	1.920469	2.0294318	-6.062392	0.0	10.625	-37.3125	10.3125	2.4075358	0.5728292	0.9143089
1277247825507	-3.1054392	3.1463003	-0.6537767	-5.3378267	0.0	10.625	-37.0625	11.3125	1.8965397	-0.14682423	0.7788623
1277247825547	-3.7864566	10.841797	-6.701211	3.4895153	0.0	9.375	-37.625	9.8125	0.31296608	-0.52821887	0.33600312
1277247825587	-2.5333846	18.727978	-15.241169	14.471909	0.0	7.875	-38.375	8.0625	-0.144641	-0.6786754	0.13445656
1277247825627	0.88532263	5.012288	-9.997335	1.4117966	0.0	6.625	-38.875	6.8125	-0.41693085	-1.0998769	-0.17482722
1277247825667	-1.9885708	7.246025	-3.405087	-1.5571709	0.0	5.375	-40.125	5.8125	0.44959545	-0.42548642	0.26784188
1277247825697	0.38136974	16.276316	2.070293	6.605236	0.0	5.625	-40.875	6.5625	-2.6273277	0.12648292	-0.023426676
1277247825737	-5.243834	5.134871	1.3756552	-2.339581	0.0	5.875	-41.375	7.0625	2.0445185	0.185288	0.7958965
1277247825777	-0.29964766	8.158588	-0.42223078	-1.63165	0.0	6.125	-42.125	6.8125	-2.3608499	-0.051672015	0.03671138
1277247825817	2.6014864	6.782933	3.445948	-1.766099	0.0	6.875	-42.375	5.3125	-2.3350976	0.44291067	-0.3662316
1277247825857	4.903325	10.419566	0.08172209	1.70928	0.0	6.625	-42.375	2.0625	-1.666788	0.007096498	-0.43984258
1277247825897	0.84446156	7.246025	-2.1792557	-2.1930342	0.0	6.375	-42.125	-1.6875	-0.697233	-0.2902913	-0.11601799
1277247825937	-1.6480621	7.504812	-0.6537767	-2.0952473	0.0	5.625	-42.125	-5.9375	0.35658288	-0.08488241	0.21616943
1277247825967	1.3756552	8.008764	0.10896278	-1.6798668	0.0	5.125	-41.875	-9.4375	-0.9384628	0.013408262	-0.17010869
1277247825997	1.4982382	9.00305	-3.9499009	0.13826561	0.0	5.125	-41.125	-12.1875	-0.41272283	-0.40843976	-0.16490334
1277247826037	2.2201166	11.985906	-3.0237172	2.7525587	0.0	5.875	-40.875	-14.5	-0.5126124	-0.24314569	-0.18315151
1277247826067	1.9477097	11.454713	-0.040861044	1.8125448	0.0	7.125	-40.625	-16.0	-0.7087268	-0.0035166917	-0.16842481
1277247826107	6.2789803	12.14935	-1.607201	3.963441	0.0	8.375	-40.375	-16.5	-0.9116682	-0.116983436	-0.47700983
1277247826147	3.2961242	10.800936	-1.1168685	1.5411263	0.0	9.125	-40.875	-16.25	-0.80770123	-0.098581396	-0.29619336
1277247826187	1.334794	11.495573	-1.0760075	1.8160715	0.0	8.875	-40.625	-16.5	-0.5921731	-0.09271068	-0.11559609
1277247826227	1.0760075	12.217452	1.9477097	2.611784	0.0	8.125	-41.375	-15.5	-0.91845345	0.15749045	-0.08784469
1277247826267	-3.336985	13.293459	1.5390993	3.9853888	0.0	6.125	-42.625	-13.5	0.47464615	0.11182623	0.24594274
1277247826307	-4.7535014	16.43976	-2.7240696	7.5219975	0.0	4.3125	-44.125	-10.4375	0.441685	-0.15785512	0.2814701
1277247826347	-0.84446156	12.871228	-2.0294318	3.2509232	0.0	3.5625	-46.125	-4.9375	-0.044319183	-0.15605445	0.06551457
1277247826377	4.0588636	7.504812	0.84446156	-1.232871	0.0	3.5625	-46.625	1.3125	-1.7725852	0.09865346	-0.4957794
1277247826417	3.9090397	6.0201936	-0.08172209	-2.62821	0.0	4.5625	-46.875	6.5625	-1.7770844	-0.011384626	-0.57589793
1277247826447	0.7218784	3.1054392	0.84446156	-6.5084724	0.0	6.125	-46.125	11.5625	-2.507744	0.25892222	-0.22839987
1277247826477	-1.4982382	1.6480621	1.1849703	-7.2837586	0.0	7.375	-45.125	15.125	2.4706593	0.48893663	0.737815
1277247826507	-2.3426998	0.92618364	1.1849703	-7.02273	0.0	7.625	-44.875	16.375	2.139091	0.43967795	1.194306
1277247826547	-2.2609777	1.6480621	-2.3699405	-6.139942	0.0	7.375	-44.625	16.625	1.3191049	-0.7027783	0.9409263
1277247826587	-0.50395286	11.372991	-8.812365	4.589761	0.0	6.375	-45.625	15.125	-0.2636235	-0.65874165	0.044282407
1277247826627	-3.3642259	15.935807	-15.132206	12.425121	0.0	4.3125	-47.125	13.375	0.24356043	-0.7486588	0.20805612
1277247826667	-3.214402	2.7921712	-6.1291566	-2.3437314	0.0	3.0625	-47.875	12.875	1.0334622	-0.96365345	0.85557747
1277247826697	-1.6480621	16.930092	-0.7627395	7.22056	0.0	2.0625	-48.375	13.125	2.9054382	-0.04481032	0.09703939
1277247826737	-0.7627395	10.528529	2.6014864	1.0653057	0.0	1.8125	-48.375	14.625	3.0762155	0.2416285	0.07231868
1277247826767	-0.7218784	5.366417	0.14982383	-4.389826	0.0	2.8125	-47.875	16.125	2.9383137	0.027662506	0.1337151
1277247826807	2.4108016	8.430995	2.2609777	-0.7509527	0.0	3.0625	-48.125	16.125	-2.6011374	0.2523442	-0.27851304
1277247826837	1.4165162	9.697687	0.27240697	-0.0022706985	0.0	3.5625	-48.875	14.625	-2.5554726	0.02778779	-0.1450417
1277247826867	3.255263	9.697687	-0.50395286	0.4352169	0.0	2.8125	-49.375	11.8125	-2.0495503	-0.049225055	-0.32385582
1277247826907	2.1792557	8.008764	-0.88532263	-1.4595995	0.0	1.8125	-50.125	8.0625	-1.7653266	-0.106264	-0.26567635
1277247826947	-1.920469	5.325556	-1.920469	-3.828528	0.0	0.8125	-50.625	3.8125	0.9482847	-0.3270487	0.34609887
1277247826977	1.2666923	7.6273947	0.7218784	-2.0411644	0.0	-0.4375	-50.375	0.0625	-2.110815	0.09309426	-0.16456947
1277247827007	1.3756552	9.084772	-0.5720546	-0.60052395	0.0	-0.9375	-50.375	-3.1875	-0.81098014	-0.06217853	-0.1502826
1277247827047	1.2258313	11.795221	-6.428804	3.6825829	0.0	-1.1875	-49.625	-6.6875	-0.13323008	-0.4967693	-0.103554346
1277247827087	4.099725	11.876944	-0.9942854	2.797243	0.0	-0.6875	-49.125	-9.1875	-0.87514526	-0.07896922	-0.3323775
1277247827127	5.243834	11.836082	-0.7627395	3.16148	0.0	0.3125	-48.875	-10.4375	-0.9949063	-0.05885042	-0.41704923
1277247827167	2.5606253	11.032481	-2.8738933	1.8780279	0.0	1.3125	-48.375	-10.9375	-0.5045911	-0.24850379	-0.22806078
1277247827197	1.334794	10.882658	-0.88532263	1.1932459	0.0	1.8125	-48.375	-10.1875	-0.5021626	-0.080571786	-0.122043744
1277247827237	3.0645783	10.882658	1.7978859	1.6413307	0.0	1.8125	-48.625	-8.1875	-1.5164125	0.15770115	-0.2744936
1277247827277	-2.4516625	11.686258	0.6946377	2.1541948	0.0	1.3125	-49.125	-5.6875	1.2555933	0.05810867	0.20679125
1277247827317	-3.5957718	17.774553	-3.2961242	8.625082	0.0	0.3125	-49.625	-1.9375	0.73174644	-0.1797959	0.19960503
1277247827357	-0.5720546	14.669114	-3.0237172	5.181779	0.0	0.0625	-50.375	3.8125	0.28776592	-0.20313083	0.038977467
1277247827387	3.5957718	6.932757	-0.0	-1.9968686	0.0	0.3125	-49.625	9.3125	-1.95362	-0.0	-0.47846714
1277247827427	3.486809	4.3312707	-0.88532263	-4.176238	0.0	1.0625	-48.125	15.125	-1.8576717	-0.15789466	-0.6778014
1277247827467	1.2666923	2.4108016	0.7218784	-6.989279	0.0	2.0625	-46.375	19.625	-2.4668136	0.25911382	-0.48377907
1277247827507	-1.3075534	0.3405087	2.2201166	-7.2076964	0.0	3.3125	-44.375	21.875	2.0827897	1.024077	1.316038
1277247827547	-2.1383946	1.7570249	-2.0294318	-6.374674	0.0	4.0625	-43.375	22.375	1.5677146	-0.63270754	0.8829893
1277247827587	-0.8036005	12.598822	-10.460427	6.5883675	0.0	3.5625	-43.625	21.375	-0.067797184	-0.6919303	0.063697495
1277247827627	-0.50395286	16.548723	-15.322891	12.752277	0.0	2.5625	-44.125	19.625	-0.07789573	-0.7467245	0.030443266
1277247827667	1.8387469	1.0760075	-5.202973	-4.184399	0.0	1.8125	-45.125	18.875	-1.2671239	-1.1821562	-1.0413413
1277247827707	-2.7240696	11.372991	-3.9499009	2.5370607	0.0	0.5625	-45.625	18.375	1.8753673	-0.32572207	0.23509198
1277247827747	-1.7978859	11.372991	4.3312707	2.4952688	0.0	0.3125	-45.625	19.125	2.9425302	0.35979342	0.15678635
1277247827777	-1.0351465	6.510526	-0.42223078	-3.2008376	0.0	0.8125	-45.375	19.625	2.7799208	-0.06396167	0.157676
1277247827817	2.152015	7.43671	3.0237172	-1.4952908	0.0	0.0625	-45.375	18.375	-2.7745886	0.37234995	-0.28168294
1277247827857	1.3075534	6.6331096	0.10896278	-3.0450149	0.0	0.3125	-45.875	15.875	-2.6364174	0.016115554	-0.19462985
1277247827887	2.5606253	10.147159	-0.3405087	0.6641464	0.0	0.3125	-46.375	12.0625	-2.3088677	-0.03252558	-0.24718826
1277247827927	0.8036005	9.615966	-1.4982382	-0.04154396	0.0	0.3125	-47.125	8.0625	-1.7496656	-0.15403616	-0.08337566
1277247827967	-0.27240697	5.8976107	0.040861044	-3.9026103	0.0	-0.1875	-47.375	3.5625	2.5937846	0.0069209174	0.04615657
1277247827997	0.95342433	8.008764	1.920469	-1.5158405	0.0	-0.9375	-47.625	0.0625	-2.739217	0.23376144	-0.118489966
1277247828037	0.040861044	9.997335	-5.325556	1.5207472	0.0	-1.1875	-47.375	-3.9375	0.03857656	-0.48945874	-0.0040871706
1277247828077	2.9147544	12.14935	-2.6832085	2.9723206	0.0	-0.9375	-47.125	-7.1875	-0.5432845	-0.21154493	-0.23546018
1277247828117	4.630918	11.645397	-0.7218784	2.7465086	0.0	0.0625	-46.875	-9.1875	-0.9792301	-0.057537463	-0.3784882
1277247828157	5.6660647	11.264028	-1.7297841	2.9202805	0.0	1.3125	-45.625	-10.4375	-0.94089985	-0.13633724	-0.46606308
1277247828187	0.92618364	11.032481	-1.0760075	1.3168049	0.0	2.0625	-45.125	-10.1875	-0.38295418	-0.09688471	-0.083754234
1277247828217	2.070293	11.727119	1.607201	2.2097778	0.0	2.3125	-44.625	-9.6875	-1.2108687	0.13415234	-0.17473845
1277247828257	-0.8036005	12.53072	3.214402	3.1547184	0.0	1.5625	-44.125	-8.1875	2.7442598	0.25061384	0.06404273
1277247828297	-4.4810944	12.9529505	-0.84446156	3.9255114	0.0	0.8125	-44.625	-5.4375	1.0441148	-0.061533995	0.3330637
1277247828337	-3.214402	16.698545	-2.9556155	7.4534035	0.0	0.0625	-44.625	-1.9375	0.72695315	-0.17208835	0.1901698
1277247828377	0.95342433	12.571581	-1.1441092	2.8528385	0.0	0.3125	-44.375	3.5625	-1.4490039	-0.0904991	-0.07569475
1277247828417	3.5276701	6.1291566	-0.8036005	-2.6892915	0.0	1.5625	-43.625	8.5625	-1.755833	-0.1131484	-0.5222517
1277247828457	3.214402	3.445948	0.14982383	-5.0918455	0.0	3.0625	-42.375	13.375	-2.0008829	0.031782664	-0.75064737
1277247828487	0.6946377	1.6889231	1.1168685	-7.6660013	0.0	4.8125	-40.625	16.875	-2.5994544	0.54889274	-0.39020136
1277247828517	-2.1383946	0.6946377	1.6889231	-6.994584	0.0	5.875	-39.125	18.125	2.1877606	0.64424974	1.2567085
1277247828557	-2.4516625	2.2609777	-1.9477097	-5.944495	0.0	6.125	-38.375	18.125	1.5816314	-0.5285786	0.82583857
1277247828597	0.27240697	10.841797	-8.049625	3.6994677	0.0	5.375	-38.125	15.875	-0.56952643	-0.6385085	-0.025120342
1277247828637	-2.1383946	17.270601	-16.126492	13.919077	0.0	4.0625	-38.625	13.625	0.043537583	-0.74736017	0.12319005
1277247828667	-2.3699405	4.0588636	-6.2789803	-1.9633989	0.0	3.5625	-39.125	12.3125	0.667914	-0.9282265	0.5284917
1277247828697	-1.7297841	13.484144	-0.19068487	3.7893295	0.0	2.5625	-38.875	11.3125	2.9218318	-0.014025552	0.12758599
1277247828727	-0.23154591	13.211738	-0.040861044	3.4071798	0.0	2.3125	-38.875	12.0625	-3.0058625	-0.0030922987	0.017523978
1277247828757	-4.0588636	3.9090397	1.9885708	-3.8309174	0.0	2.8125	-38.625	12.625	2.2641141	0.33924413	0.80419934
1277247828787	0.5720546	7.0553403	-1.1441092	-2.63629	0.0	2.8125	-38.625	12.3125	-2.3664944	-0.16024585	-0.080904104
1277247828827	3.173541	8.771504	3.759216	0.25030613	0.0	3.5625	-38.875	11.3125	-2.531339	0.3830947	-0.34714922
1277247828867	2.5606253	9.765789	-0.5720546	0.3054552	0.0	3.8125	-38.875	8.5625	-2.0167131	-0.05660149	-0.25643107
1277247828907	1.5390993	9.615966	-0.7627395	-0.038467407	0.0	3.5625	-39.125	5.3125	-1.8058835	-0.07816364	-0.15871051
1277247828947	-3.3642259	5.8976107	0.040861044	-3.016842	0.0	2.3125	-38.875	1.3125	1.658816	0.006018033	0.51839966
1277247828977	0.6946377	7.43671	1.920469	-2.0946221	0.0	2.0625	-39.125	-1.9375	-2.5097265	0.2516709	-0.093136355
1277247829017	1.7297841	8.349273	-1.7570249	-1.1009254	0.0	1.8125	-38.625	-4.4375	-0.67915	-0.20321997	-0.2042877
1277247829047	3.405087	9.915613	-5.09401	1.8493757	0.0	2.0625	-37.875	-7.1875	-0.5784487	-0.4522918	-0.3307889
1277247829077	3.2961242	12.871228	-2.1792557	3.6574545	0.0	2.8125	-37.625	-9.4375	-0.67388725	-0.16257188	-0.25069717
1277247829117	4.903325	12.639683	-1.1441092	3.7989798	0.0	3.8125	-37.0625	-10.6875	-0.9006646	-0.084190294	-0.37005895
1277247829167	1.1168685	11.34575	-2.4108016	1.8460493	0.0	5.125	-36.5625	-12.1875	-0.4218077	-0.20839289	-0.09812324
1277247829197	0.10896278	11.264028	-2.070293	1.6465721	0.0	6.125	-36.3125	-12.4375	-0.33197463	-0.18175988	-0.009673217
1277247829237	3.759216	11.645397	0.040861044	2.4305325	0.0	6.625	-36.5625	-11.6875	-0.9872681	0.0033390953	-0.31224716
1277247829277	0.7627395	10.923519	3.405087	1.6606798	0.0	5.875	-36.5625	-10.4375	-1.6588436	0.3014845	-0.06971228
1277247829317	-4.5900574	15.173067	-2.2201166	6.2002087	0.0	5.375	-37.625	-7.6875	0.42148677	-0.13914642	0.29376113
1277247829357	-1.3756552	17.474907	-3.405087	8.049984	0.0	4.5625	-38.875	-3.9375	-0.13148639	-0.19186531	0.078559734
1277247829387	3.9090397	9.656827	-0.19068487	0.61310387	0.0	4.8125	-38.875	0.3125	-1.5543152	-0.018301344	-0.38463354
1277247829417	3.3778462	5.5162406	-0.50395286	-3.3187594	0.0	5.875	-39.625	4.3125	-1.6450824	-0.077754244	-0.5494478
1277247829447	2.6832085	4.8216033	0.50395286	-4.265763	0.0	7.375	-39.625	8.0625	-1.9701647	0.091077514	-0.50781775
1277247829477	0.5720546	3.0645783	0.53119355	-6.644206	0.0	8.625	-39.125	10.5625	-2.3855968	0.16876936	-0.18454279
1277247829517	-1.607201	1.3075534	1.3075534	-7.356653	0.0	9.375	-38.875	11.5625	2.405445	0.5629649	0.887842
1277247829557	-3.0237172	1.2258313	-0.50395286	-6.505212	0.0	10.125	-38.375	11.3125	1.8040922	-0.15324554	1.1856388
1277247829597	-1.7297841	5.6252036	-6.932757	-0.71279526	0.0	9.375	-38.625	10.3125	0.1011244	-0.8669462	0.29832876
1277247829637	-1.4573772	17.856276	-12.53072	12.05632	0.0	8.875	-38.875	8.5625	-0.34927285	-0.6103424	0.08143658
1277247829667	0.14982383	9.80665	-12.258313	5.8923645	0.0	8.625	-39.625	7.3125	-0.33790675	-0.8959985	-0.01527659
1277247829697	-2.4516625	3.214402	-2.4925237	-5.057366	0.0	7.875	-39.875	6.5625	0.9230366	-0.5525047	0.6515872
1277247829737	-4.099725	17.052675	1.2258313	7.774708	0.0	7.375	-40.125	6.8125	2.9162745	0.06977998	0.23593765
1277247829767	-1.879608	9.152874	0.88532263	-0.42092514	0.0	7.625	-40.625	7.5625	3.080153	0.09446695	0.20254132
1277247829797	2.2609777	7.43671	1.5390993	-1.8829198	0.0	7.875	-40.625	8.5625	-2.2462604	0.19548185	-0.2951493
1277247829837	4.0180025	7.014479	3.8273177	-0.8626232	0.0	8.375	-40.875	8.0625	-2.2141876	0.4421889	-0.520191
1277247829867	0.53119355	8.049625	0.23154591	-1.7361946	0.0	9.125	-40.625	5.8125	-2.1041808	0.028694501	-0.06589431
1277247829907	2.2609777	9.697687	0.23154591	0.1538105	0.0	9.625	-40.375	3.5625	-1.8050635	0.0232486	-0.22905433
1277247829947	-1.2666923	7.8589406	-2.2609777	-1.5314178	0.0	9.125	-40.375	-0.1875	-0.22162935	-0.27674118	0.15980414
1277247829977	-0.88532263	6.782933	-0.8036005	-2.9191432	0.0	8.125	-40.625	-3.1875	-0.3369906	-0.116941445	0.12978838
1277247830017	1.5390993	8.008764	0.42223078	-1.6404142	0.0	7.875	-40.375	-5.4375	-1.3493241	0.05172752	-0.18986215
1277247830057	1.3075534	9.043911	-4.099725	0.20882607	0.0	7.125	-40.375	-7.9375	-0.50545675	-0.42172945	-0.14358339
1277247830087	2.3018389	11.686258	-2.1111538	2.2897987	0.0	7.875	-40.125	-9.6875	-0.764433	-0.17542513	-0.19448012
1277247830127	2.3426998	10.841797	0.19068487	1.2870035	0.0	9.125	-39.375	-10.4375	-1.053456	0.01718949	-0.21280858
1277247830167	7.5456724	12.4489975	-1.2666923	4.805646	0.0	10.375	-38.625	-11.4375	-1.125451	-0.08679567	-0.5449124
1277247830197	3.7864566	11.372991	-2.1792557	2.3765888	0.0	11.375	-37.875	-12.1875	-0.90766394	-0.17984112	-0.32139122
1277247830227	1.879608	10.651112	-1.920469	1.1782169	0.0	12.125	-37.3125	-12.75	-0.7804187	-0.1757317	-0.1746722
1277247830267	3.0645783	10.732834	0.84446156	1.3870296	0.0	12.125	-37.0625	-13.25	-1.1123887	0.07551267	-0.27813205
1277247830307	-1.1168685	13.184497	1.7570249	3.541215	0.0	11.125	-37.875	-12.75	-0.80746675	0.13201654	0.084508985
1277247830347	-4.2495484	13.143636	0.9942854	4.0426245	0.0	9.875	-38.875	-11.1875	0.30004895	0.071855135	0.31270808
1277247830377	-3.405087	16.017529	-1.9885708	6.6891136	0.0	9.125	-40.125	-7.9375	-0.04529857	-0.1208443	0.20946676
1277247830417	0.23154591	12.912089	-1.8387469	3.2377605	0.0	8.875	-41.625	-3.9375	-0.77907664	-0.14143156	-0.017930567
1277247830457	2.7649305	7.9270425	0.46309182	-1.3984814	0.0	9.375	-42.125	0.8125	-1.6947702	0.055104304	-0.3356029
1277247830487	3.336985	6.851035	0.3405087	-2.1785378	0.0	10.625	-42.125	5.3125	-1.8087178	0.044653498	-0.45325625
1277247830517	1.6480621	4.6036777	0.7218784	-4.863871	0.0	10.875	-41.375	8.0625	-2.0681875	0.14657131	-0.34377342
1277247830557	-0.95342433	1.5390993	1.3756552	-7.532827	0.0	11.625	-40.875	10.5625	2.8037045	0.64976156	0.5546121
1277247830597	-3.0645783	0.5720546	-0.10896278	-6.687234	0.0	11.625	-40.625	10.8125	1.833023	-0.03493761	1.3862535
1277247830637	-0.29964766	4.2495484	-4.372132	-3.7022266	0.0	11.375	-41.125	10.3125	-0.35568222	-0.7983758	0.070396304
1277247830677	0.23154591	16.507862	-11.304889	10.202438	0.0	10.625	-42.375	8.5625	-0.5890329	-0.60041827	-0.014025482
1277247830717	-2.2609777	12.571581	-14.137921	9.246893	0.0	9.375	-43.375	6.3125	-0.05397267	-0.83606386	0.17794602
1277247830757	-2.4108016	1.9477097	-0.95342433	-6.5640345	0.0	8.375	-44.375	5.8125	1.4161826	-0.2984399	0.8912511
1277247830797	-1.4573772	17.352324	-0.8036005	7.6252995	0.0	8.375	-44.875	5.0625	-2.14409	-0.046115633	0.08379079
1277247830827	-0.7218784	11.917805	2.0294318	2.304244	0.0	8.875	-44.875	6.3125	-2.7231414	0.16836508	0.06049751
1277247830857	1.3075534	6.5922484	0.53119355	-3.0650182	0.0	9.375	-44.875	7.3125	-2.105386	0.078874774	-0.19580573
1277247830887	1.3075534	6.0882955	2.5606253	-3.0736094	0.0	10.375	-44.625	7.0625	-2.4226415	0.39012864	-0.21155164
1277247830927	0.7218784	8.430995	1.334794	-1.2401772	0.0	10.125	-44.625	6.5625	-2.333404	0.15645353	-0.08541364
1277247830967	3.486809	12.367276	-0.040861044	3.0428257	0.0	10.125	-44.875	3.8125	-1.7372826	-0.0031799828	-0.27480522
1277247831007	-2.4516625	6.3198414	-1.4165162	-2.8815103	0.0	9.625	-45.125	0.3125	0.683991	-0.20600085	0.370059
1277247831047	-1.9477097	7.0553403	-0.29964766	-2.4812703	0.0	8.625	-45.875	-3.1875	0.65324056	-0.040916827	0.26935303
1277247831087	2.0294318	7.9679036	-0.3405087	-1.5773106	0.0	8.625	-46.125	-6.1875	-1.1882613	-0.04138922	-0.24939807
1277247831127	2.0294318	7.7363577	-1.0760075	-1.7364817	0.0	8.375	-45.875	-8.1875	-0.9625006	-0.13372971	-0.2565436
1277247831167	1.9477097	10.310603	-2.2201166	0.918602	0.0	9.125	-45.375	-10.4375	-0.7387967	-0.20850652	-0.1867035
1277247831197	1.334794	12.14935	-1.0760075	2.4630756	0.0	10.125	-44.875	-12.75	-0.7361836	-0.08780893	-0.1094266
1277247831227	3.336985	12.830367	-1.0351465	3.4909182	0.0	10.875	-43.875	-14.5	-0.8878142	-0.07792363	-0.2544476
1277247831267	5.407278	11.495573	0.14982383	2.8980455	0.0	12.125	-43.625	-15.5	-1.098412	0.011793066	-0.43967143
1277247831307	-0.53119355	11.141444	-0.88532263	1.3825293	0.0	12.375	-43.375	-15.75	-0.49273294	-0.0792059	0.047641184
1277247831347	4.3312707	10.337844	-1.1168685	1.4573774	0.0	12.625	-43.125	-15.25	-0.9886286	-0.09931675	-0.39675412
1277247831387	2.4925237	10.95076	0.6946377	1.4456539	0.0	11.375	-44.375	-14.5	-1.0519543	0.061772212	-0.22379914
1277247831427	-3.336985	15.050485	0.27240697	5.61174	0.0	9.375	-45.625	-12.75	0.06058579	0.017668586	0.21818978
1277247831467	0.61291564	14.015338	0.040861044	4.222143	0.0	8.375	-46.625	-9.4375	-0.8412189	0.00291266	-0.04370393
1277247831501	0.42223078	11.372991	-0.9125633	1.6107035	0.0	7.375	-47.875	-5.4375	-0.7812581	-0.08001309	-0.037108704
1277247831556	-0.10896278	9.275456	-0.50395286	-0.5168743	0.0	7.875	-48.625	-0.9375	-1.1151625	-0.05427476	0.01174689
1277247831615	-0.14982383	7.246025	1.3075534	-2.4420714	0.0	8.875	-48.625	4.0625	-2.585596	0.17849252	0.020673746
1277247831657	-0.95342433	6.3607025	1.0760075	-3.2855039	0.0	9.125	-47.875	9.0625	-3.0285282	0.16576086	0.14878523
1277247831697	-1.4573772	5.829509	0.08172209	-3.7971745	0.0	9.625	-47.375	13.375	2.9893637	0.013599291	0.24497867
1277247831737	-0.19068487	6.4015636	-1.56634	-3.2134867	0.0	9.875	-45.875	17.125	-2.1589074	-0.23986378	0.029778427
1277247831777	0.6537767	6.932757	-5.175732	-1.1303177	0.0	9.875	-44.875	18.875	-0.9086081	-0.6391763	-0.094024494
1277247831817	-0.29964766	7.014479	-9.343558	1.8807268	0.0	10.625	-45.375	19.125	-0.3327012	-0.9263912	0.04269249
1277247831857	-0.61291564	9.997335	-9.043911	3.6883383	0.0	11.125	-45.125	18.625	-0.46051237	-0.73443526	0.06123126
1277247831887	-3.8273177	11.114203	-8.267551	4.564373	0.0	10.875	-45.625	17.625	0.35231826	-0.61296254	0.33164397
1277247831917	-4.7126403	11.727119	-8.390134	5.3633423	0.0	10.875	-46.125	16.875	0.54014623	-0.58604985	0.38210732
1277247831957	-3.8681788	8.962189	-1.2258313	0.031352043	0.0	10.375	-46.125	17.125	2.478355	-0.124926336	0.40745685
1277247831987	-5.7886477	2.2609777	3.8273177	-2.508101	0.0	9.625	-46.625	17.375	2.1889064	0.55200356	1.1984297
1277247832017	-5.6252036	9.466142	-2.1111538	1.4052954	0.0	9.625	-46.875	17.125	2.058105	-0.18942586	0.53617686
1277247832057	3.1054392	15.5135765	2.8330324	6.2663364	0.0	9.625	-46.875	16.875	-2.488863	0.17718616	-0.1975644
1277247832097	4.671779	9.656827	-1.525479	1.0287971	0.0	9.375	-47.375	15.125	-1.8880459	-0.14125526	-0.45058757
1277247832137	3.1054392	7.1234417	-1.2666923	-1.9331703	0.0	8.875	-47.875	12.875	-1.7949806	-0.1615831	-0.41110575
1277247832177	2.7240696	8.689782	-2.5333846	-0.35408974	0.0	7.875	-48.625	10.0625	-1.4754534	-0.2713273	-0.30377707
1277247832207	2.5606253	8.19945	-1.920469	-1.0046062	0.0	6.375	-49.875	6.5625	-1.4021163	-0.2199537	-0.30269566
1277247832247	2.3018389	7.668256	-1.2258313	-1.7070656	0.0	5.125	-50.375	3.5625	-1.389351	-0.15192875	-0.29161975
1277247832277	2.2609777	7.1234417	-0.38136974	-2.323276	0.0	4.5625	-50.875	1.0625	-1.5030295	-0.050984353	-0.30734235
1277247832317	0.9942854	8.62168	-0.14982383	-1.1265335	0.0	4.3125	-50.375	-0.6875	-1.418567	-0.017261434	-0.11481664
1277247832357	1.9477097	10.991621	-3.9499009	2.0344238	0.0	4.3125	-49.375	-2.6875	-0.6074969	-0.34009457	-0.175379
1277247832387	4.671779	12.340035	-0.46309182	3.396245	0.0	5.125	-48.875	-4.4375	-1.3067492	-0.035082217	-0.36191186
1277247832417	3.336985	12.340035	-0.08172209	2.9768791	0.0	5.625	-48.375	-5.4375	-1.2637081	-0.0063928077	-0.26410273
1277247832447	1.8387469	11.985906	-3.0645783	2.7007303	0.0	6.625	-48.625	-6.6875	-0.65795153	-0.24754195	-0.15222235
1277247832477	1.6889231	10.691973	-1.6480621	1.1426353	0.0	7.625	-48.875	-6.4375	-0.8449557	-0.151092	-0.15666729
1277247832507	1.3756552	10.651112	-1.2666923	1.0073738	0.0	7.375	-49.625	-6.1875	-0.85875136	-0.117403746	-0.12844495
1277247832547	2.6014864	10.460427	0.5720546	0.98758507	0.0	6.875	-49.875	-4.9375	-1.4404029	0.053021148	-0.24375279
1277247832587	-0.53119355	10.991621	2.5606253	1.4917879	0.0	6.125	-50.125	-1.9375	-2.7713006	0.22862174	0.048289564
1277247832627	-3.173541	14.9006605	-1.525479	5.5043955	0.0	5.625	-50.375	1.5625	0.96322626	-0.09979815	0.20984451
1277247832670	-1.7297841	14.2877445	-3.9090397	5.106847	0.0	5.875	-49.875	7.3125	0.026534162	-0.2652124	0.12048132
1277247832707	2.4516625	8.240311	-0.9942854	-1.1520576	0.0	6.875	-48.625	13.625	-1.9606805	-0.11513954	-0.2891806
1277247832747	4.2904096	7.1234417	-0.3405087	-1.4839716	0.0	8.375	-46.625	18.625	-2.0730405	-0.040924776	-0.5421049
1277247832787	1.4573772	4.9850473	-0.7218784	-4.5630107	0.0	9.625	-44.375	23.375	-2.2541528	-0.13810603	-0.2844235
1277247832827	-1.3756552	1.7978859	-1.334794	-7.178629	0.0	11.125	-41.375	26.125	1.7157879	-0.53275496	0.6531278
1277247832857	-1.6480621	1.8387469	-0.7218784	-7.234062	0.0	12.125	-40.125	26.375	2.2610917	-0.28442335	0.73076504
1277247832888	-1.0351465	2.8738933	-2.4925237	-5.86413	0.0	12.375	-39.625	26.375	0.29930708	-0.68440974	0.3457234
1277247832927	-1.9885708	8.539958	-6.0474343	0.8449583	0.0	12.125	-40.375	24.625	-0.63296777	-0.6037681	0.22877812
1277247832967	-1.2258313	17.965239	-14.437569	13.273554	0.0	10.875	-42.375	22.625	-0.7105255	-0.67582226	0.068127915
1277247832997	-1.9885708	8.240311	-9.697687	3.0736551	0.0	9.625	-43.125	21.625	0.039923962	-0.85246986	0.2367949
1277247833037	-3.486809	15.132206	-0.29964766	5.724972	0.0	8.875	-43.375	20.625	3.0864558	-0.019293943	0.22647014
1277247833077	-2.1792557	10.841797	2.6423476	1.5632973	0.0	7.625	-43.625	20.875	3.104952	0.23454197	0.19836174
1277247833117	-3.0645783	4.9850473	-3.255263	-3.1104517	0.0	7.125	-42.875	20.875	1.4899288	-0.50766265	0.5511975
1277247833157	2.152015	6.742072	6.782933	-0.0038499832	0.0	6.375	-43.125	19.625	-2.7062674	0.76417047	-0.30896974
1277247833197	3.568531	9.80665	0.8036005	0.65999126	0.0	5.875	-43.875	17.125	-2.3454027	0.07685293	-0.34899402
1277247833227	6.0882955	10.528529	-2.3426998	2.5790472	0.0	6.375	-44.125	13.625	-1.8108525	-0.19029194	-0.5242857
1277247833267	-0.42223078	7.3549876	-0.9125633	-2.3832483	0.0	5.875	-45.125	9.8125	-2.473893	-0.12324236	0.05734447
1277247833307	0.3405087	8.117727	1.2666923	-1.5836363	0.0	5.375	-45.125	5.8125	-2.6206086	0.15465814	-0.041921735
1277247833347	0.46309182	9.00305	-3.405087	-0.17005444	0.0	4.8125	-45.125	3.3125	-0.5099554	-0.36114922	-0.051391926
1277247833377	2.7649305	10.378705	-3.2961242	1.4284201	0.0	4.3125	-44.875	1.0625	-0.94416285	-0.2977586	-0.26035732
1277247833417	3.9499009	10.800936	-0.95342433	1.7333212	0.0	4.3125	-44.375	-1.1875	-1.341414	-0.082713574	-0.35059232
1277247833447	4.6036777	12.14935	-1.0351465	3.2268486	0.0	5.125	-44.625	-1.9375	-1.3280939	-0.079505734	-0.36220625
1277247833477	5.175732	11.304889	-0.9125633	2.6601658	0.0	5.875	-44.625	-2.9375	-1.3360307	-0.07326492	-0.42934734
1277247833507	0.9942854	10.991621	-1.6889231	1.3583307	0.0	6.375	-44.375	-3.6875	-0.7904182	-0.15185262	-0.090212956
1277247833547	-0.0	11.304889	-0.6537767	1.517127	0.0	6.875	-44.125	-3.9375	-0.8150833	-0.057766985	0.0
1277247833577	-0.50395286	11.604536	1.4573772	1.8998938	0.0	6.625	-43.875	-3.1875	-2.0297594	0.124816366	0.043399964
1277247833617	-3.1463003	12.108489	3.3778462	3.1519203	0.0	5.875	-44.125	-1.1875	2.6607065	0.263711	0.25422055
1277247833647	-4.8216033	15.595298	-1.7570249	6.6112766	0.0	5.625	-44.375	2.3125	1.2680286	-0.10722402	0.29984856
1277247833677	-3.0237172	15.826844	-3.0237172	6.5877	0.0	6.125	-43.875	6.8125	0.98698485	-0.18549852	0.18877508
1277247833711	-0.19068487	10.882658	-1.525479	1.1840591	0.0	7.625	-42.625	11.5625	-2.2468717	-0.13924669	0.01752011
1277247833747	5.407278	6.742072	0.46309182	-1.1516724	0.0	9.375	-40.875	15.625	-2.0477655	0.053531397	-0.67597157
1277247833777	3.214402	4.944186	-0.84446156	-3.8492618	0.0	10.875	-39.125	18.625	-2.018708	-0.14222935	-0.57647204
1277247833807	1.2258313	3.636633	-0.7218784	-5.90167	0.0	12.875	-37.875	20.875	-2.113075	-0.1859304	-0.32511753
1277247833837	-0.9125633	2.9556155	-0.29964766	-6.698882	0.0	14.125	-36.5625	22.125	-2.9941962	-0.09656894	0.29947013
1277247833877	-2.2201166	2.0294318	-0.3405087	-6.7795296	0.0	15.4375	-36.0625	22.375	2.4146044	-0.112724595	0.8302399
1277247833917	-1.525479	2.6423476	-5.09401	-3.8688035	0.0	16.6875	-36.3125	21.625	0.15948336	-1.031146	0.5235758
1277247833957	1.4165162	12.9529505	-10.269742	6.7841015	0.0	15.9375	-37.3125	19.875	-1.265207	-0.6674739	-0.10892573
1277247833997	-2.1792557	16.126492	-14.859799	12.230286	0.0	14.875	-38.625	18.125	-0.60728925	-0.74003446	0.13432144
1277247834027	-4.9850473	3.0237172	-2.6423476	-3.4054346	0.0	13.625	-39.125	17.375	1.670557	-0.42551336	1.0255692
1277247834058	-3.0237172	13.102775	2.4516625	3.862155	0.0	12.625	-39.375	16.875	-2.998862	0.18033777	0.22679885
1277247834097	-0.9125633	14.669114	-2.7240696	5.1411343	0.0	12.625	-39.125	17.875	-2.3632762	-0.18326312	0.06212978
1277247834137	-0.19068487	6.1700177	1.3075534	-3.4967232	0.0	12.875	-39.125	18.125	-2.7188246	0.20873408	0.030895244
1277247834177	3.7864566	6.742072	1.9477097	-1.8325443	0.0	13.375	-39.875	17.625	-2.2263522	0.24675064	-0.5117178
1277247834217	2.3426998	8.471856	1.0760075	-0.9512348	0.0	12.875	-40.375	16.375	-2.2967005	0.12180942	-0.2697856
1277247834247	3.336985	10.269742	-1.920469	1.161087	0.0	12.875	-41.125	13.625	-1.8540165	-0.17600903	-0.3141719
1277247834287	-1.3075534	7.9270425	-0.84446156	-1.7282333	0.0	12.125	-42.125	10.3125	-2.4113936	-0.10472436	0.16347645
1277247834347	1.7570249	8.240311	0.88532263	-1.3347168	0.0	11.125	-42.625	7.3125	-2.0933573	0.1046918	-0.21007718
1277247834387	0.040861044	9.193735	-3.255263	-0.053539276	0.0	10.875	-43.125	4.5625	-0.83218825	-0.34029654	-0.004444415
1277247834417	3.5276701	11.454713	-3.486809	2.675847	0.0	9.875	-43.375	2.0625	-1.1939585	-0.28310236	-0.29874957
1277247834447	3.8681788	11.985906	-1.9477097	2.9376955	0.0	10.125	-43.125	0.5625	-1.3456188	-0.1534306	-0.31217495
1277247834487	5.7477865	12.026767	-0.7627395	3.5448265	0.0	10.375	-43.125	-0.9375	-1.4673195	-0.05715884	-0.44582498
1277247834527	3.9090397	11.413852	-2.4925237	2.5128174	0.0	11.125	-42.625	-1.1875	-1.2313784	-0.20373039	-0.3299617
1277247834557	0.88532263	10.651112	-1.879608	1.0452118	0.0	11.875	-42.375	-0.6875	-1.0994124	-0.174084	-0.082929574
1277247834587	3.718355	10.56939	-0.0	1.3977318	0.0	12.625	-42.375	-0.4375	-1.553953	-0.0	-0.33828115
1277247834627	3.636633	10.460427	3.255263	1.7364159	0.0	12.875	-42.125	0.8125	-1.964844	0.28588876	-0.33458534
1277247834667	-3.8273177	12.871228	1.5390993	3.7094774	0.0	12.375	-42.625	2.3125	3.102532	0.11411886	0.289028
1277247834707	-4.5219555	17.62473	-2.070293	8.5063305	0.0	11.625	-42.625	4.8125	-1.2623545	-0.113292776	0.25115144
1277247834737	1.4165162	14.47843	-1.3075534	4.799552	0.0	11.125	-42.125	8.3125	-1.8665282	-0.08964043	-0.09752593
1277247834777	4.2904096	7.164303	-0.46309182	-1.44308	0.0	11.625	-41.125	11.8125	-1.8868657	-0.055398446	-0.53958035
1277247834817	2.4925237	5.09401	0.27240697	-4.1289907	0.0	12.875	-39.625	15.375	-2.0959883	0.047997165	-0.45505494
1277247834847	0.38136974	4.5628166	1.1441092	-5.0871453	0.0	15.1875	-38.125	17.625	-2.528078	0.24486098	-0.08338826
1277247834877	-1.334794	2.6014864	1.3075534	-6.603667	0.0	16.6875	-36.8125	19.125	3.0839682	0.4205141	0.47406387
1277247834917	-2.7513103	0.88532263	1.1849703	-6.6829247	0.0	18.1875	-35.8125	19.625	2.3625922	0.38908848	1.2594776
1277247834957	-1.607201	3.486809	-4.7126403	-3.7280064	0.0	18.6875	-36.0625	18.875	-0.095709465	-0.88715553	0.43191224
1277247834997	-0.29964766	13.6748295	-10.56939	7.4792614	0.0	17.9375	-36.8125	17.125	-1.0781764	-0.6578859	0.021908846
1277247835027	-0.8036005	15.5135765	-12.367276	10.049492	0.0	17.4375	-37.875	15.375	-0.9068793	-0.6723725	0.051753566
1277247835057	-0.6946377	3.405087	-9.302697	0.1239748	0.0	16.6875	-39.125	14.125	-0.24517329	-1.213279	0.20123874
1277247835097	-1.8387469	10.501288	-3.0645783	1.2861261	0.0	15.9375	-39.125	13.375	-1.731188	-0.27990872	0.17334004
1277247835137	-0.5720546	12.980191	0.313268	3.1899166	0.0	16.4375	-38.875	14.625	-2.384729	0.024106238	0.044042856
1277247835177	0.46309182	5.243834	0.10896278	-4.54128	0.0	17.1875	-38.875	14.875	-2.2216222	0.020695705	-0.08808317
1277247835217	4.099725	6.238119	1.8387469	-2.1188116	0.0	17.6875	-38.375	15.125	-2.0802813	0.2415172	-0.58142376
1277247835247	4.6036777	10.760075	2.7921712	2.22536	0.0	18.4375	-38.125	14.375	-2.1398208	0.2341969	-0.40428054
1277247835287	3.9090397	13.6748295	-0.42223078	4.422188	0.0	18.1875	-38.875	11.3125	-1.9227744	-0.029678654	-0.2784312
1277247835327	-3.7864566	7.205164	-3.9771416	-0.7474394	0.0	16.9375	-39.625	8.0625	0.28796554	-0.45450357	0.48385444
1277247835367	-0.6537767	7.1234417	0.313268	-2.6464138	0.0	15.1875	-40.875	4.5625	-2.0827744	0.043765042	0.091521814
1277247835397	-0.040861044	7.8861814	2.1792557	-1.6247997	0.0	13.375	-42.375	1.8125	-2.3522549	0.26960674	0.005181301
1277247835427	-2.070293	8.894087	-0.3405087	-0.6684427	0.0	12.375	-42.875	-0.4375	-0.83834696	-0.037270717	0.22869937
1277247835467	0.9942854	12.026767	-4.5219555	3.0805454	0.0	11.875	-42.875	-2.4375	-0.73697734	-0.35851866	-0.08248513
1277247835497	3.1054392	12.176591	-2.982856	3.1088657	0.0	12.625	-42.375	-4.1875	-1.0562333	-0.23305537	-0.24971049
1277247835527	4.862464	12.367276	-0.7627395	3.504054	0.0	13.875	-41.875	-5.1875	-1.323738	-0.05733412	-0.37460616
1277247835567	6.1291566	11.34575	-1.2258313	3.1469307	0.0	14.375	-41.125	-5.1875	-1.3289418	-0.09477443	-0.49530056
1277247835597	1.7978859	8.921328	-2.4108016	-0.39206314	0.0	15.4375	-40.375	-4.1875	-1.0452613	-0.25895536	-0.19886312
1277247835637	1.879608	10.228881	0.5720546	0.6092119	0.0	15.1875	-40.375	-3.4375	-1.5078187	0.054949135	-0.1817277
1277247835677	2.4516625	10.61025	5.284695	2.2977324	0.0	14.875	-39.875	-2.4375	-2.0865831	0.45180878	-0.22708009
1277247835717	-6.238119	16.970953	-3.568531	8.623264	0.0	14.625	-39.625	-0.4375	-0.006519707	-0.1948579	0.35224634
1277247835747	-1.9885708	16.657684	-3.0237172	7.2396317	0.0	14.625	-39.625	2.8125	-1.1397069	-0.17832643	0.118816294
1277247835787	4.7535014	11.727119	-0.6537767	2.8641253	0.0	14.875	-39.125	6.8125	-1.7520809	-0.051620133	-0.3851036
1277247835827	3.9090397	4.8216033	-1.525479	-3.4148164	0.0	15.4375	-38.625	10.8125	-1.7253973	-0.24098638	-0.68125206
1277247835857	1.6480621	3.255263	-0.0	-6.157973	0.0	16.6875	-37.0625	13.875	-1.9841981	-0.0	-0.4686559
1277247835888	-0.10896278	2.4925237	0.61291564	-7.237562	0.0	17.1875	-35.5625	15.375	-2.5567153	0.2408964	0.04368803
1277247835927	-3.1463003	2.2201166	0.53119355	-5.9194546	0.0	18.1875	-34.0625	16.125	2.443857	0.13708104	0.95630336
1277247835967	-2.5606253	4.630918	-2.7240696	-3.854948	0.0	18.1875	-33.5625	15.875	0.096317746	-0.475402	0.5050985
1277247835997	-2.6014864	11.141444	-5.134871	2.733941	0.0	17.1875	-34.5625	15.125	-1.3944067	-0.4218621	0.22938652
1277247836027	0.7218784	15.023244	-13.593107	10.466276	0.0	15.9375	-35.8125	13.875	-0.9291296	-0.73488986	-0.048013836
1277247836067	6.3198414	9.656827	-13.1708765	7.7052517	0.0	15.4375	-37.875	12.625	-1.3051566	-0.8512579	-0.57949215
1277247836107	0.27240697	4.7126403	-2.3018389	-4.554827	0.0	14.375	-38.625	12.3125	-1.252102	-0.453699	-0.05773922
1277247836147	-0.7218784	17.66559	0.9942854	7.901619	0.0	13.625	-39.375	11.5625	-2.4250453	0.05617763	0.040840812
1277247836187	-5.366417	6.891896	-3.8273177	-0.27014065	0.0	13.375	-40.125	11.8125	1.2184246	-0.41297194	0.6615902
1277247836227	-1.56634	2.4516625	1.56634	-6.502487	0.0	12.625	-39.625	12.0625	2.7956645	0.49388537	0.56852454
1277247836267	4.3312707	8.117727	6.5513873	1.4883966	0.0	13.375	-39.875	10.8125	-2.267182	0.618757	-0.49013153
1277247836307	10.147159	15.28203	-5.8567495	9.449694	0.0	14.125	-40.375	9.5625	-1.6076047	-0.30904236	-0.5861492
1277247836347	-1.879608	7.014479	-1.2258313	-2.4419703	0.0	13.875	-41.125	6.8125	-1.3941903	-0.16722563	0.26181057
1277247836377	-2.4108016	6.742072	1.920469	-2.3934388	0.0	13.125	-42.625	3.0625	3.0049992	0.26204923	0.34340784
1277247836407	1.2666923	8.158588	1.4165162	-1.4296827	0.0	11.125	-43.875	-0.4375	-1.9278212	0.16991292	-0.15402897
1277247836437	-1.3756552	9.80665	-2.9147544	0.5160732	0.0	10.125	-44.125	-3.6875	-0.23505408	-0.2862564	0.13936837
1277247836477	2.152015	11.686258	-5.6660647	3.357851	0.0	9.625	-44.125	-5.9375	-0.6432817	-0.4449412	-0.18210898
1277247836511	4.372132	10.841797	-0.6946377	1.9041405	0.0	9.875	-44.375	-7.6875	-1.2039474	-0.059350874	-0.38331902
1277247836547	7.273266	11.536434	-2.2609777	4.0173044	0.0	11.125	-44.125	-8.1875	-1.1893914	-0.16429317	-0.56251633
1277247836577	4.862464	10.119919	-0.84446156	1.4525423	0.0	11.375	-44.875	-7.4375	-1.2434512	-0.07507246	-0.44791368
1277247836607	3.0237172	10.841797	0.38136974	1.4553595	0.0	11.625	-45.375	-7.4375	-1.3173008	0.033869855	-0.27198324
1277247836647	1.4573772	11.141444	2.6014864	1.7269297	0.0	10.375	-45.375	-5.9375	-1.8167678	0.22751534	-0.13006836
1277247836687	-3.759216	15.213928	0.313268	5.867961	0.0	9.125	-46.125	-4.4375	0.5625974	0.019987026	0.24223837
1277247836717	-4.7535014	16.017529	-3.5276701	7.2696915	0.0	8.375	-46.375	-1.9375	0.41979387	-0.20808063	0.2884897
1277247836757	0.040861044	12.789507	-2.070293	3.1494017	0.0	8.375	-45.875	3.0625	-1.103185	-0.16048147	-0.0031948774
1277247836787	4.4810944	8.539958	0.9942854	-0.11130619	0.0	9.625	-44.875	7.3125	-1.9258403	0.10273349	-0.48322818
1277247836817	5.012288	5.134871	-0.84446156	-2.581483	0.0	10.875	-43.375	12.0625	-1.8088393	-0.11714554	-0.77331823
1277247836847	2.7921712	3.9090397	-0.040861044	-5.002643	0.0	12.375	-40.875	15.375	-1.9919302	-0.00850572	-0.6202495
1277247836877	0.27240697	2.5333846	0.27240697	-7.244142	0.0	13.625	-39.375	16.875	-2.4346414	0.106506065	-0.10711533
1277247836917	-1.879608	1.7297841	1.1441092	-7.0077105	0.0	13.875	-38.625	17.875	2.593696	0.42110065	0.82688385
1277247836957	-3.445948	3.2961242	-2.5606253	-4.3940916	0.0	14.125	-38.625	17.375	1.4527637	-0.4927944	0.8076167
1277247836997	-1.0351465	8.812365	-7.8180795	2.0192394	0.0	13.125	-39.875	15.875	-0.5017381	-0.7222821	0.1169294
1277247837037	1.2258313	18.918663	-13.565866	13.505388	0.0	11.375	-41.625	13.875	-0.845035	-0.6210942	-0.06470436
1277247837077	-0.50395286	4.2086873	-9.084772	0.21832371	0.0	10.625	-42.875	12.625	-0.15725279	-1.1342423	0.11917369
1277247837117	-1.1849703	13.593107	0.6537767	3.8536634	0.0	9.875	-43.625	11.3125	-2.71813	0.04787786	0.086954534
1277247837157	-1.6480621	10.651112	1.6889231	1.1027374	0.0	9.375	-43.625	11.5625	-3.0009305	0.15543891	0.15351406
1277247837197	-1.1168685	6.1700177	-1.9885708	-3.2285862	0.0	9.875	-42.625	11.5625	-0.7702977	-0.30710813	0.17907634
1277247837227	2.6014864	6.2108784	3.759216	-2.0946827	0.0	9.875	-42.125	10.8125	-2.378118	0.5091695	-0.39665827
1277247837257	1.607201	8.19945	2.7921712	-0.99698067	0.0	10.125	-41.625	9.5625	-2.4438174	0.32250553	-0.19355924
1277247837297	6.1291566	12.408136	-2.5333846	4.2626934	0.0	10.875	-41.875	6.5625	-1.5906582	-0.18105167	-0.45880613
1277247837337	-1.6889231	6.782933	-2.0294318	-2.527966	0.0	10.625	-43.125	3.3125	0.011909882	-0.2825636	0.24403349
1277247837377	-1.1849703	6.4424243	0.14982383	-3.2544422	0.0	10.625	-44.125	0.0625	-1.9897139	0.022868153	0.18189925
1277247837417	2.152015	7.9679036	0.08172209	-1.5528431	0.0	9.625	-45.125	-2.9375	-1.4511847	0.009901301	-0.2637915
1277247837457	0.61291564	10.501288	-4.4810944	1.6272001	0.0	9.125	-45.375	-5.9375	-0.47229645	-0.4027119	-0.058299612
1277247837497	3.3778462	11.563675	-3.759216	2.813181	0.0	10.125	-44.875	-7.9375	-0.85072327	-0.3024728	-0.28420115
1277247837527	5.47538	11.454713	0.10896278	2.8898888	0.0	11.125	-44.625	-9.6875	-1.2607095	0.008582191	-0.44589514
1277247837567	6.469665	11.141444	-1.3075534	3.143178	0.0	12.125	-44.375	-10.4375	-1.1762547	-0.10114308	-0.5260959
1277247837597	0.23154591	11.223166	-2.6014864	1.7164049	0.0	12.875	-44.125	-10.6875	-0.5961902	-0.22772679	-0.020628141
1277247837637	2.3699405	11.114203	0.6537767	1.5762129	0.0	12.625	-44.625	-10.1875	-1.2244297	0.057466798	-0.21008882
1277247837677	1.1849703	11.727119	2.8330324	2.3158731	0.0	11.625	-44.875	-9.1875	-1.6470244	0.23588121	-0.100703485
1277247837717	-3.7864566	14.410328	-0.5720546	5.103817	0.0	10.625	-45.375	-7.1875	0.13902974	-0.038375396	0.25695148
1277247837757	-3.1463003	17.079916	-3.8273177	7.9773636	0.0	9.875	-45.625	-2.9375	-0.1115444	-0.21690802	0.18216832
1277247837797	2.4925237	11.032481	-0.84446156	1.5353708	0.0	9.875	-45.125	2.3125	-1.5294925	-0.0745232	-0.22219558
1277247837827	4.862464	5.6660647	0.10896278	-2.339407	0.0	10.625	-44.375	7.3125	-1.7762371	0.014592621	-0.7092198
1277247837857	3.405087	4.140586	0.10896278	-4.4446597	0.0	12.375	-42.625	11.3125	-1.8829023	0.02032273	-0.6882322
1277247837887	1.3756552	3.0237172	0.08172209	-6.483704	0.0	13.625	-41.125	14.375	-2.0462353	0.024595743	-0.42696682
1277247837927	-0.9125633	2.8330324	0.7218784	-6.7439795	0.0	14.375	-39.625	15.375	-3.080008	0.23794112	0.31162065
1277247837967	-2.982856	1.879608	0.19068487	-6.2758265	0.0	14.875	-38.625	15.125	2.169793	0.054032058	1.0085115
1277247838009	-1.879608	3.9499009	-4.7126403	-3.3767495	0.0	14.625	-39.125	13.375	0.16691992	-0.82261276	0.4441515
1277247838047	2.4108016	17.079916	-13.525005	12.112776	0.0	13.875	-40.625	10.8125	-0.90931237	-0.6649666	-0.14022203
1277247838087	-2.3426998	8.471856	-12.14935	5.1889257	0.0	12.875	-42.125	9.0625	-0.038906883	-0.9444858	0.26978558
1277247838127	-3.405087	2.982856	1.6889231	-4.9750347	0.0	12.125	-43.375	8.8125	2.2868092	0.3570978	0.8514003
1277247838167	-0.53119355	18.768839	-2.9147544	9.194593	0.0	11.625	-44.125	9.5625	-1.819391	-0.15400614	0.028294334
1277247838207	-1.2258313	8.117727	1.334794	-1.489088	0.0	12.375	-43.875	10.5625	-2.8305473	0.16117594	0.14987436
1277247838247	1.6889231	5.134871	-0.38136974	-4.38772	0.0	13.125	-43.375	10.5625	-1.8664455	-0.07043554	-0.31776652
1277247838287	1.920469	7.3141265	3.255263	-1.5737047	0.0	13.125	-43.375	8.8125	-2.3488476	0.40649754	-0.25677368
1277247838327	3.8273177	10.991621	-0.6946377	1.8529654	0.0	13.375	-43.375	7.0625	-1.7499896	-0.059611686	-0.3350732
1277247838367	0.53119355	7.8589406	-1.7570249	-1.7361946	0.0	12.375	-44.125	3.8125	-1.2156957	-0.21946834	-0.067488335
1277247838397	-1.1168685	6.3198414	0.27240697	-3.3831	0.0	11.625	-45.125	1.0625	-2.271458	0.042420264	0.17491807
1277247838427	1.6889231	7.7363577	1.0760075	-1.8153119	0.0	11.125	-45.375	-0.6875	-1.8080446	0.13505693	-0.21493761
1277247838467	0.92618364	8.349273	-1.7570249	-1.2243834	0.0	10.375	-45.625	-2.9375	-0.9100733	-0.20618516	-0.11047818
1277247838497	3.568531	11.182305	-4.630918	2.81174	0.0	10.625	-45.375	-4.4375	-0.90444356	-0.37577927	-0.3089072
1277247838527	5.243834	11.958665	-2.2201166	3.438589	0.0	11.125	-45.125	-5.4375	-1.1837693	-0.16841117	-0.41324663
1277247838567	5.9793324	12.408136	-1.1168685	4.0122375	0.0	11.875	-44.875	-6.6875	-1.2653325	-0.08091013	-0.44905332
1277247838597	5.5162406	11.917805	-2.4925237	3.5603113	0.0	12.375	-44.375	-7.1875	-1.1434987	-0.18756685	-0.4334943
1277247838627	1.0351465	11.032481	-2.2201166	1.494504	0.0	12.625	-44.375	-7.4375	-0.8154279	-0.19773649	-0.09355328
1277247838667	2.9147544	10.501288	-0.46309182	1.1014805	0.0	12.375	-43.625	-7.6875	-1.1943911	-0.042466585	-0.27074614
1277247838707	2.4516625	10.691973	3.0237172	1.5719175	0.0	11.375	-43.875	-6.4375	-1.7821442	0.26896933	-0.22540285
1277247838747	-2.6423476	13.184497	1.2666923	3.6995506	0.0	10.625	-44.375	-4.9375	-1.210683	0.093924016	0.19779286
1277247838777	-3.9771416	17.924377	-3.1463003	8.821289	0.0	9.875	-44.375	-1.1875	-0.0031857323	-0.16971578	0.2183471
1277247838807	0.14982383	14.628253	-2.5606253	5.0447817	0.0	9.375	-45.125	3.3125	-1.1417105	-0.17328192	-0.010241728
1277247838837	4.7126403	8.390134	0.10896278	-0.182971	0.0	9.625	-45.375	7.5625	-1.8250784	0.0113226045	-0.5117727
1277247838867	5.434519	5.2165933	-0.46309182	-2.2593794	0.0	10.375	-44.625	12.3125	-1.8397155	-0.06139742	-0.8058557
1277247838897	2.9147544	3.8273177	0.5720546	-4.961921	0.0	11.375	-43.875	15.375	-2.0513418	0.11835386	-0.6508622
1277247838937	-0.08172209	2.5606253	0.42223078	-7.2101603	0.0	12.375	-42.875	17.125	-2.7106845	0.16334136	0.031904064
1277247838977	-2.3018389	1.3075534	1.3756552	-6.823265	0.0	13.875	-41.625	17.875	2.3821542	0.47924066	1.0542029
1277247839007	-2.8738933	1.5390993	-1.1849703	-6.337898	0.0	14.625	-41.875	17.375	1.7414618	-0.34863243	1.0791186
1277247839047	-0.9125633	7.3958488	-7.1234417	0.5023155	0.0	14.875	-42.125	15.625	-0.4711667	-0.76286435	0.12276805
1277247839077	1.1849703	18.305748	-13.1708765	12.7760105	0.0	14.125	-42.875	12.875	-0.87925494	-0.6226989	-0.06464195
1277247839117	0.6946377	12.067628	-12.9529505	7.910265	0.0	13.125	-43.875	11.3125	-0.58180386	-0.81994224	-0.057498626
1277247839157	-2.6832085	1.0760075	-2.6014864	-5.9175463	0.0	12.125	-43.875	10.5625	1.2860125	-0.7327504	1.1894151
1277247839197	0.7218784	18.115063	-0.6946377	8.336092	0.0	11.375	-44.125	10.5625	-2.1659067	-0.038296722	-0.03982855
1277247839227	-1.9885708	8.499097	2.070293	-0.83585453	0.0	11.625	-43.875	11.5625	-3.0807297	0.23288071	0.22983977
1277247839257	0.27240697	6.8237944	-0.6537767	-2.946198	0.0	11.625	-43.625	11.8125	-2.0909014	-0.095441274	-0.039898977
1277247839297	2.6014864	6.851035	3.173541	-1.8206763	0.0	12.375	-43.875	11.3125	-2.313801	0.40867016	-0.36290377
1277247839337	1.1441092	7.8589406	2.152015	-1.5784607	0.0	12.625	-44.125	9.5625	-2.390111	0.26461917	-0.14456502
1277247839377	4.2086873	11.032481	0.19068487	2.002882	0.0	12.625	-44.125	6.8125	-1.8336064	0.016147394	-0.36444092
1277247839417	-1.4165162	7.1234417	-1.6889231	-2.349948	0.0	12.125	-44.625	3.3125	-0.41576335	-0.22848006	0.1962922
1277247839457	0.6537767	7.7363577	1.0351465	-1.9740143	0.0	11.125	-45.125	0.0625	-1.9470371	0.13254589	-0.08430673
1277247839487	1.3075534	8.076866	-1.1441092	-1.5450258	0.0	10.375	-45.125	-2.1875	-1.1360109	-0.1389313	-0.16049628
1277247839517	1.334794	9.765789	-5.325556	1.3966465	0.0	10.125	-45.375	-3.9375	-0.5895608	-0.49536878	-0.1358389
1277247839557	3.173541	11.604536	-2.3018389	2.4422302	0.0	10.375	-45.375	-5.4375	-1.0349011	-0.18904641	-0.26694715
1277247839597	5.243834	11.454713	-0.3405087	2.7958975	0.0	10.875	-44.625	-6.4375	-1.3161402	-0.027022326	-0.4293118
1277247839627	6.0882955	11.958665	-3.0645783	3.9581099	0.0	11.875	-43.875	-7.6875	-1.1135744	-0.22452101	-0.4709103
1277247839667	4.9850473	11.495573	-1.525479	2.8157892	0.0	12.125	-43.875	-8.1875	-1.1611618	-0.12115067	-0.40917382
1277247839707	3.718355	10.310603	0.040861044	1.1540241	0.0	12.375	-43.625	-8.1875	-1.2752548	0.0037279767	-0.3461168
1277247839737	3.8681788	11.223166	3.1463003	2.474289	0.0	12.125	-43.875	-7.9375	-1.6460512	0.2590825	-0.33190987
1277247839767	-1.920469	11.917805	2.982856	2.627967	0.0	11.625	-44.875	-5.9375	-2.4563684	0.24224557	0.15976939
1277247839797	-4.8216033	14.519291	-0.9942854	5.5245686	0.0	10.375	-45.125	-3.4375	0.5982288	-0.064899184	0.32062444
1277247839827	-4.372132	16.358038	-2.5606253	7.318119	0.0	10.375	-45.375	-0.4375	0.22530392	-0.15009047	0.26117238
1277247839867	0.19068487	13.143636	-2.070293	3.5004025	0.0	10.375	-45.375	4.0625	-1.3034118	-0.1562132	-0.0145067535
1277247839897	5.2165933	7.504812	-0.08172209	-0.66653347	0.0	10.375	-44.625	8.0625	-1.7960258	-0.008941152	-0.6074297
1277247839937	5.597963	6.0474343	-1.3075534	-1.4628897	0.0	11.375	-44.125	11.8125	-1.7716668	-0.15735894	-0.7468208
1277247839977	1.9477097	2.9147544	0.6537767	-6.240589	0.0	11.375	-42.875	15.375	-2.1227117	0.18437588	-0.58908015
1277247840007	-2.3426998	0.6946377	2.5333846	-6.286877	0.0	11.875	-42.125	16.875	2.2274866	0.8034536	1.282543
1277247840047	-4.140586	1.607201	-0.3405087	-5.3520465	0.0	12.375	-42.125	17.125	1.9785215	-0.07651437	1.2005402
1277247840117	-1.4982382	7.0553403	-4.399372	-1.3581581	0.0	12.375	-42.375	15.875	-0.3388784	-0.5477043	0.20924684
1277247840147	1.9477097	14.1787815	-15.213928	11.081026	0.0	11.875	-43.375	13.875	-0.7085536	-0.815938	-0.13651353
1277247840187	0.84446156	4.6036777	-6.469665	-1.8214431	0.0	10.875	-44.375	12.0625	-0.61099654	-0.94450396	-0.18141519
1277247840217	1.1849703	17.079916	-1.1441092	7.3525066	0.0	10.125	-44.875	10.8125	-2.1071014	-0.06672581	-0.069267
1277247840248	-0.42223078	11.114203	3.636633	1.8950119	0.0	9.375	-45.125	10.5625	-2.834793	0.3160127	0.037971936
1277247840287	-4.7126403	5.938472	-1.9477097	-1.9792624	0.0	9.125	-45.375	10.5625	1.5695882	-0.2514748	0.6708127
1277247840327	2.4925237	6.510526	6.851035	-0.032382965	0.0	9.125	-45.375	10.0625	-2.5206478	0.7766946	-0.36563087
1277247840367	3.405087	8.771504	0.7218784	-0.36975288	0.0	8.875	-45.375	7.8125	-1.9823897	0.07657011	-0.37029168
1277247840397	5.7477865	10.923519	-1.9477097	2.6895056	0.0	9.625	-45.375	5.0625	-1.5519232	-0.1565028	-0.48437512
1277247840427	-0.8036005	6.3607025	-1.4165162	-3.240766	0.0	9.375	-45.375	1.5625	-0.40455493	-0.21744841	0.1256725
1277247840467	-1.1168685	6.510526	-0.19068487	-3.1982684	0.0	9.125	-45.875	-2.1875	-0.33658347	-0.028859008	0.16989441
1277247840497	2.5606253	8.689782	-0.29964766	-0.74249554	0.0	8.875	-45.375	-4.4375	-1.3057921	-0.03306456	-0.2865605
1277247840537	0.42223078	9.466142	-5.134871	0.9707804	0.0	7.625	-45.125	-7.1875	-0.33524615	-0.4966087	-0.044574775
1277247840577	2.4925237	11.536434	-1.7297841	2.1220608	0.0	8.125	-44.875	-9.1875	-0.853241	-0.14552322	-0.21278593
