#timestamp	accel_x	accel_y	accel_z	accel_mag	temperature	mag_x	mag_y	mag_z	azimuth	pitch	roll
1276877452817	3.568531	0.19068487	9.724928	0.55409336	0.0	-28.5625	1.25	-23.75	2.9929812	1.2186431	-1.517412
1276877452848	3.636633	0.10896278	9.697687	0.55105686	0.0	-27.8125	1.25	-24.25	3.02299	1.2118782	-1.5408428
1276877452887	3.5957718	0.313268	9.724928	0.5664854	0.0	-28.5625	1.0	-24.75	2.9506981	1.2154067	-1.4838946
1276877452928	3.445948	0.3405087	9.765789	0.55487156	0.0	-28.5625	1.5	-24.75	2.9116971	1.2300491	-1.4723018
1276877452967	3.445948	0.27240697	9.765789	0.5528574	0.0	-28.5625	1.0	-25.5	2.9655597	1.2305981	-1.491909
1276877452997	3.5276701	0.46309182	9.656827	0.48476505	0.0	-29.0625	2.0	-25.5	2.8312538	1.2177914	-1.4402685
1276877453027	3.636633	0.50395286	9.425281	0.3084364	0.0	-28.5625	2.0	-24.75	2.8096898	1.1993524	-1.4330965
1276877453057	3.636633	0.61291564	9.697687	0.5686035	0.0	-28.8125	1.5	-24.5	2.7997434	1.2073972	-1.4038261
1276877453087	3.405087	0.6537767	9.956474	0.73628235	0.0	-29.3125	1.25	-24.25	2.799816	1.2356869	-1.3811048
1276877453117	3.6774938	0.6946377	9.997335	0.86823654	0.0	-29.5625	0.5	-24.5	2.8294857	1.2125938	-1.384107
1276877453157	3.9499009	0.5720546	9.847511	0.81890583	0.0	-29.8125	0.5	-24.5	2.8836854	1.1857369	-1.4269688
1276877453187	3.8273177	0.84446156	9.384419	0.36334515	0.0	-30.0625	-0.0	-24.5	2.789813	1.1751704	-1.3536351
1276877453229	3.3778462	1.0351465	8.771504	-0.35039997	0.0	-30.0625	0.5	-24.25	2.6529179	1.1879044	-1.2734312
1276877453267	3.8681788	0.7627395	8.730643	-0.22705173	0.0	-30.3125	0.75	-24.0	2.773132	1.146622	-1.3761108
1276877453307	4.8216033	0.27240697	9.384419	0.74746704	0.0	-30.8125	1.0	-24.0	2.9754834	1.0955313	-1.5143591
1276877453337	4.903325	-0.19068487	9.656827	1.0253983	0.0	-31.5625	2.25	-23.75	3.0830562	1.1006569	-1.6096656
1276877453367	5.325556	-0.50395286	9.575105	1.1614008	0.0	-32.3125	2.5	-23.5	-3.1086097	1.0613192	-1.6651446
1276877453397	5.284695	-0.61291564	9.275456	0.8862343	0.0	-32.8125	2.75	-22.75	-3.080809	1.0500376	-1.6862599
1276877453437	4.9850473	-0.3405087	8.771504	0.28819656	0.0	-33.5625	3.0	-22.0	3.103216	1.0529941	-1.6389964
1276877453477	5.09401	-0.27240697	9.043911	0.5767727	0.0	-33.8125	2.75	-21.75	3.0917423	1.0572242	-1.6242213
1276877453507	4.862464	0.0	9.507003	0.87167645	0.0	-34.5625	2.75	-21.75	3.0105622	1.0980216	-1.5707964
1276877453547	4.671779	0.19068487	9.507003	0.78792286	0.0	-34.8125	2.25	-22.25	2.9711514	1.1137197	-1.5300026
1276877453580	4.7535014	0.38136974	9.193735	0.55027866	0.0	-34.3125	2.0	-22.25	2.908711	1.0923023	-1.4907386
1276877453617	4.7535014	0.42223078	9.084772	0.4552765	0.0	-33.8125	1.75	-22.75	2.8985941	1.0871154	-1.4822036
1276877453657	4.630918	0.313268	9.466142	0.7361851	0.0	-33.0625	2.25	-22.5	2.9167953	1.1149173	-1.5032521
1276877453687	4.5219555	0.19068487	9.615966	0.8212023	0.0	-32.8125	2.75	-22.5	2.9377112	1.1308843	-1.5286527
1276877453727	4.7943625	0.19068487	9.615966	0.9399338	0.0	-32.8125	2.25	-22.75	2.95771	1.1079669	-1.5310446
1276877453767	4.5628166	0.27240697	9.00305	0.29030037	0.0	-32.5625	1.5	-22.75	2.9588633	1.1009995	-1.5111656
1276877453807	4.5628166	0.46309182	9.302697	0.565135	0.0	-32.0625	0.5	-22.75	2.942442	1.112762	-1.4696501
1276877453847	4.140586	0.6537767	9.956474	0.9962778	0.0	-32.0625	-0.25	-23.0	2.911568	1.1723009	-1.4141945
1276877453887	4.0588636	0.92618364	9.507003	0.57194805	0.0	-31.5625	-0.5	-22.5	2.8145733	1.1580431	-1.3464496
1276877453928	4.0180025	0.92618364	8.689782	-0.18820572	0.0	-31.3125	-0.75	-22.25	2.807887	1.1277498	-1.3442451
1276877453967	3.759216	1.1441092	9.234595	0.22920704	0.0	-30.5625	-1.75	-22.25	2.77222	1.1684892	-1.2753555
1276877453997	3.8273177	1.3075534	9.765789	0.7635288	0.0	-29.5625	-2.25	-22.0	2.7521627	1.1781508	-1.2415912
1276877454027	3.8681788	1.2666923	9.343558	0.38498402	0.0	-29.3125	-2.75	-22.75	2.7805557	1.1599598	-1.2543367
1276877454067	3.2961242	1.56634	9.302697	0.18624878	0.0	-28.8125	-3.0	-22.75	2.6279237	1.1969532	-1.1271795
1276877454107	3.214402	1.8387469	9.888372	0.752388	0.0	-28.5625	-3.5	-22.75	2.55772	1.2124674	-1.051194
1276877454149	3.255263	2.070293	9.466142	0.41541862	0.0	-27.5625	-4.25	-22.5	2.505026	1.1838069	-1.0043379
1276877454187	3.1054392	2.152015	9.425281	0.34770012	0.0	-26.5625	-4.75	-22.5	2.4796033	1.1895489	-0.96479565
1276877454217	3.173541	1.9885708	9.888372	0.76716995	0.0	-26.0625	-5.75	-22.75	2.6157799	1.2087529	-1.0110406
1276877454247	3.5276701	1.7978859	9.888372	0.8449583	0.0	-25.8125	-6.25	-22.75	2.764354	1.1899368	-1.0994565
1276877454277	3.486809	1.7978859	9.384419	0.3647585	0.0	-26.3125	-6.5	-22.5	2.7598457	1.174838	-1.094727
1276877454307	3.568531	1.7978859	8.921328	-0.031329155	0.0	-26.5625	-7.25	-22.25	2.8025796	1.1496913	-1.1041
1276877454348	3.445948	1.4982382	9.043911	-0.013202667	0.0	-26.3125	-7.25	-22.0	2.9129412	1.1770167	-1.160669
1276877454388	3.445948	1.2258313	9.765789	0.62157345	0.0	-26.5625	-6.25	-22.5	2.9710968	1.2124461	-1.2290249
1276877454427	3.405087	1.5390993	9.343558	0.2564268	0.0	-26.8125	-5.75	-23.25	2.7985713	1.1903504	-1.1462804
1276877454459	3.336985	1.7570249	9.724928	0.6239214	0.0	-27.0625	-5.0	-23.5	2.6688132	1.2008548	-1.0861502
1276877454497	3.255263	1.607201	9.80665	0.6504154	0.0	-28.0625	-4.25	-23.75	2.6754143	1.216242	-1.1121823
1276877454537	3.8273177	1.3075534	9.343558	0.374712	0.0	-28.3125	-4.25	-24.0	2.8368583	1.162282	-1.2415912
1276877454578	3.718355	0.84446156	9.534244	0.46180058	0.0	-27.8125	-4.25	-24.0	3.0245943	1.1903493	-1.347478
1276877454617	3.2961242	0.6537767	9.534244	0.30243778	0.0	-27.3125	-4.0	-24.0	3.0646079	1.2319412	-1.3749906
1276877454657	2.7649305	1.1441092	9.697687	0.34219074	0.0	-26.3125	-4.25	-24.25	2.8068779	1.2715071	-1.1784562
1276877454687	3.0237172	1.4982382	9.724928	0.4871254	0.0	-25.0625	-4.75	-24.25	2.7184782	1.2367966	-1.1107589
1276877454731	2.4925237	1.4982382	10.079058	0.6835737	0.0	-23.75	-5.25	-24.0	2.6787493	1.2898909	-1.0295737
1276877454830	1.9885708	2.6014864	9.234595	-0.008696556	0.0	-22.75	-6.25	-24.0	2.1665947	1.2300408	-0.65265226
1276877454868	1.8387469	2.9556155	9.234595	0.062210083	0.0	-20.75	-7.75	-23.75	2.1069732	1.2103249	-0.55652547
1276877454918	1.5390993	3.255263	9.112013	-0.008979797	0.0	-19.0	-10.0	-23.0	2.0977983	1.1944627	-0.44165453
1276877454947	1.2666923	3.6774938	9.152874	0.13837719	0.0	-17.25	-11.75	-23.0	2.0445142	1.1689663	-0.331717
1276877454987	1.2666923	3.3778462	9.765789	0.60416126	0.0	-14.9375	-13.0625	-23.0	2.3014414	1.216939	-0.35877067
1276877455027	0.313268	3.405087	9.302697	0.10460281	0.0	-13.4375	-13.3125	-23.25	2.0007355	1.2185484	-0.09174175
1276877455057	-0.38136974	3.568531	8.771504	-0.32935333	0.0	-11.6875	-12.8125	-24.25	1.6826862	1.1824276	0.10646614
1276877455107	-0.08172209	3.1054392	8.281172	-0.96197796	0.0	-9.9375	-13.0625	-24.5	1.8881837	1.2119119	0.026309717
1276877455155	-1.7570249	3.214402	8.894087	-0.18769455	0.0	-7.9375	-13.3125	-24.25	1.4254249	1.1800936	0.5002369
1276877455212	-1.525479	4.0180025	9.043911	0.20652866	0.0	-5.1875	-14.0625	-23.5	1.5834581	1.1271693	0.36285076
1276877455249	-1.56634	4.3312707	10.310603	1.4859076	0.0	-1.875	-14.8125	-22.25	1.9937655	1.1506864	0.34700242
1276877455287	-3.0237172	4.671779	9.275456	1.0101185	0.0	1.625	-15.0625	-21.5	1.6496925	1.0304046	0.5744257
1276877455337	-4.7535014	3.9499009	9.193735	1.2713575	0.0	4.875	-14.5625	-21.75	1.4115198	0.97894406	0.8774689
1276877455376	-5.284695	2.2201166	9.193735	1.0276327	0.0	8.4375	-13.5625	-22.0	1.507975	1.013292	1.1730807
1276877455407	-5.134871	1.1849703	8.662541	0.33291054	0.0	11.6875	-11.25	-22.5	1.5943778	1.0242624	1.3439975
1276877455437	-5.053149	0.5720546	9.384419	0.86709785	0.0	15.25	-8.75	-22.5	2.0320005	1.0741924	1.4580687
1276877455467	-4.7535014	0.7218784	9.043911	0.43586922	0.0	18.25	-7.0	-22.75	2.5468688	1.0821671	1.4200854
1276877455497	-4.5628166	0.27240697	8.349273	-0.28804398	0.0	20.5	-5.0	-23.0	2.657363	1.0699008	1.5111656
1276877455527	-4.440233	-0.08172209	8.349273	-0.34976292	0.0	22.0	-4.0	-22.25	2.6823575	1.0819548	1.5891992
1276877455557	-5.09401	-0.19068487	8.812365	0.3738737	0.0	22.75	-3.0	-22.25	2.713766	1.0463675	1.608212
1276877455587	-5.706926	-0.08172209	8.390134	0.340765	0.0	23.5	-1.5	-21.75	2.8911083	0.9734387	1.5851152
1276877455628	-5.9793324	-0.040861044	8.471856	0.56284523	0.0	24.0	-0.25	-21.5	3.084222	0.9561855	1.5776299
1276877455658	-5.9793324	0.14982383	8.240311	0.3755684	0.0	24.5	0.25	-21.75	-3.0195262	0.94293284	1.5457447
1276877455709	-5.7477865	0.53119355	8.049625	0.09868622	0.0	24.75	0.25	-21.5	-2.8158572	0.94869447	1.478641
1276877455747	-5.202973	0.7627395	8.117727	-0.13451481	0.0	25.0625	-0.25	-21.5	-2.787109	0.99597615	1.4252362
1276877455787	-5.5162406	0.92618364	8.19945	0.11895847	0.0	24.5	-0.75	-21.25	-2.7523494	0.97213435	1.4044467
1276877455832	-5.434519	0.9942854	8.281172	0.1482687	0.0	24.0	-1.25	-21.0	-2.780102	0.98246396	1.3898402
1276877455867	-5.6660647	1.2258313	8.430995	0.42509556	0.0	23.25	-1.75	-21.25	-2.7115717	0.9684413	1.3577338
1276877455907	-5.5571017	1.1441092	8.499097	0.4122057	0.0	22.25	-2.25	-21.0	-2.8195875	0.98217565	1.3677511
1276877455947	-5.47538	0.92618364	8.308413	0.18671322	0.0	21.5	-3.0	-21.5	-3.038909	0.9816098	1.4032283
1276877455987	-5.325556	0.84446156	8.471856	0.23561096	0.0	20.5	-3.25	-21.75	-3.1414843	1.0039907	1.4135379
1276877456027	-4.944186	0.7218784	8.471856	0.02891922	0.0	19.25	-3.5	-21.75	3.0243814	1.0379188	1.4258152
1276877456057	-4.9850473	0.88532263	8.499097	0.08623314	0.0	18.75	-3.75	-22.0	3.0616715	1.0335324	1.3950332
1276877456087	-5.134871	1.1168685	8.812365	0.4535675	0.0	18.5	-4.25	-21.75	3.0988183	1.0330919	1.3566256
1276877456127	-5.175732	1.1849703	8.921328	0.57518196	0.0	18.5	-4.25	-22.25	3.138732	1.0339408	1.3457279
1276877456167	-5.053149	1.1441092	8.853226	0.45117188	0.0	19.0	-3.75	-22.5	-3.041206	1.0413179	1.3481354
1276877456207	-5.053149	1.1441092	8.689782	0.3104458	0.0	19.0	-4.0	-22.5	-3.0845149	1.0331582	1.3481354
1276877456237	-5.434519	1.3075534	8.771504	0.59445477	0.0	18.75	-4.0	-22.75	-3.0159876	1.0034394	1.3346827
1276877456277	-5.434519	1.4165162	8.812365	0.64314747	0.0	18.5	-4.25	-22.5	-3.0008957	1.003403	1.315818
1276877456317	-4.862464	1.3075534	8.430995	0.013478279	0.0	18.5	-5.0	-22.75	3.136508	1.0324197	1.308103
1276877456357	-4.399372	1.3756552	8.117727	-0.47153378	0.0	18.5	-5.0	-23.0	-3.0010614	1.0543721	1.2677351
1276877456397	-4.140586	1.3075534	8.049625	-0.6605787	0.0	19.25	-4.5	-22.75	-2.9155748	1.0761114	1.2649175
1276877456437	-4.862464	0.84446156	7.9679036	-0.43412876	0.0	20.0	-3.75	-22.75	3.0903912	1.0162406	1.398842
1276877456477	-5.8567495	0.3405087	8.117727	0.20908546	0.0	20.75	-3.0	-22.5	2.6962607	0.9450007	1.5127221
1276877456517	-6.2789803	0.313268	8.390134	0.6775322	0.0	21.25	-2.25	-22.25	2.8333387	0.92773855	1.5209461
1276877456557	-6.0474343	-0.08172209	8.281172	0.44790745	0.0	21.75	-1.75	-22.75	2.6816995	0.94000345	1.584309
1276877456597	-5.7477865	-0.10896278	8.281172	0.2743578	0.0	22.0	-1.0	-22.75	2.8695998	0.96397114	1.5897514
1276877456637	-5.706926	0.040861044	8.430995	0.37432957	0.0	21.5	-0.75	-23.0	3.0209227	0.97573185	1.5636365
1276877456667	-5.8158884	0.27240697	8.430995	0.4393463	0.0	21.75	-0.5	-23.5	-3.0280244	0.9664215	1.5239922
1276877456707	-5.5571017	0.6537767	8.580819	0.43733597	0.0	21.25	-0.5	-23.0	-2.774394	0.9929566	1.4536875
1276877456747	-5.434519	0.84446156	8.471856	0.29381752	0.0	21.0	-1.0	-23.0	-2.7217808	0.99499977	1.4166406
1276877456787	-5.47538	1.0351465	8.499097	0.35632038	0.0	21.25	-1.0	-23.0	-2.606884	0.9904645	1.3839469
1276877456827	-6.1700177	0.88532263	8.580819	0.79916763	0.0	21.25	-1.5	-22.75	-2.759884	0.9425632	1.4282812
1276877456867	-6.6331096	0.61291564	8.390134	0.90633965	0.0	21.5	-1.5	-22.75	-2.9658475	0.8997538	1.4786555
1276877456907	-6.2789803	0.3405087	8.308413	0.6131029	0.0	22.0	-1.25	-22.75	3.126791	0.9229268	1.5166194
1276877456937	-6.2108784	0.14982383	8.076866	0.38320827	0.0	22.75	-0.75	-22.25	3.096683	0.9151232	1.5466782
1276877456977	-6.3607025	0.0	7.9270425	0.35684013	0.0	23.25	-0.0	-22.0	-3.1415927	0.89459044	1.5707964
1276877457017	-6.1700177	-0.040861044	7.9679036	0.27096272	0.0	23.75	-0.0	-21.75	3.1127992	0.91187626	1.5774188
1276877457057	-6.2789803	-0.08172209	7.8861814	0.27422905	0.0	23.75	0.5	-21.75	-3.1036983	0.8983352	1.5838108
1276877457097	-6.4015636	0.040861044	8.049625	0.4782009	0.0	24.25	0.75	-21.25	-2.9854875	0.898941	1.5644134
1276877457137	-6.238119	0.08172209	7.8589406	0.22747993	0.0	24.0	1.25	-21.0	-2.8749228	0.89982957	1.5576966
1276877457177	-5.9793324	0.19068487	7.9679036	0.15709686	0.0	24.25	1.75	-21.0	-2.7830079	0.92677784	1.5389165
1276877457207	-5.6660647	0.14982383	8.008764	0.0049266815	0.0	24.75	1.0	-21.0	-2.9387724	0.95490104	1.5443602
1276877457237	-5.243834	-0.14982383	8.008764	-0.23269844	0.0	23.75	0.75	-22.25	-3.1323025	0.9908937	1.59936
1276877457277	-4.944186	-0.5720546	7.8180795	-0.5387163	0.0	23.25	0.5	-22.5	2.8574026	1.0038824	1.6859866
1276877457317	-4.8216033	-0.7218784	8.049625	-0.39572906	0.0	22.25	0.25	-23.0	2.7277582	1.0262249	1.71941
1276877457357	-4.944186	-0.19068487	8.308413	-0.1365385	0.0	21.0	-0.5	-23.5	2.9264107	1.0336742	1.6093447
1276877457397	-4.440233	0.53119355	8.049625	-0.59826756	0.0	20.0	-2.0	-23.25	-3.0795553	1.0637091	1.4517303
1276877457437	-4.0588636	0.9942854	8.008764	-0.7731962	0.0	18.75	-4.0	-23.5	-3.0477133	1.0898709	1.3305607
1276877457477	-3.759216	1.334794	8.499097	-0.41793156	0.0	16.75	-6.0	-23.5	3.133505	1.1319577	1.2296098
1276877457517	-3.6774938	2.2609777	8.62168	-0.16458797	0.0	14.6875	-7.75	-22.5	-2.9156346	1.1065825	1.0195547
1276877457557	-3.8273177	2.6832085	8.471856	-0.13089085	0.0	12.6875	-9.5	-21.75	2.9953363	1.0666256	0.95935416
1276877457597	-3.8681788	2.8738933	8.771504	0.20141506	0.0	11.1875	-10.75	-21.25	2.6006	1.0684259	0.93181753
1276877457637	-4.630918	4.140586	9.575105	1.6070471	0.0	10.9375	-11.75	-21.25	2.4690988	0.99528384	0.8412406
1276877457677	-4.0180025	3.759216	9.656827	1.3077717	0.0	11.1875	-11.25	-21.75	2.9537644	1.0528859	0.81866086
1276877457727	-4.862464	1.9477097	8.62168	0.2814865	0.0	11.6875	-10.75	-22.5	1.7474992	1.0248485	1.189807
1276877457767	-4.7126403	1.879608	9.384419	0.8614912	0.0	12.1875	-10.25	-23.5	1.9717726	1.0751631	1.1912869
1276877457797	-4.7126403	0.88532263	7.4639506	-0.9351597	0.0	12.1875	-9.5	-23.5	1.4101135	0.99975985	1.3850994
1276877457827	-2.8330324	1.7297841	8.308413	-0.8596983	0.0	12.1875	-9.5	-23.75	2.8294833	1.1907042	1.0226359
1276877457867	-3.1054392	3.9090397	8.921328	0.4165802	0.0	12.6875	-9.5	-23.5	-2.0122705	1.0606078	0.67133236
1276877457917	-4.2086873	2.1111538	8.812365	0.1847353	0.0	14.4375	-9.25	-22.25	2.766229	1.0800816	1.1058551
1276877457958	-5.284695	2.1792557	9.00305	0.8578739	0.0	16.75	-8.75	-21.0	2.7891703	1.0050812	1.1796709
1276877457997	-6.973618	2.4108016	9.084772	1.8970413	0.0	18.5	-7.75	-20.0	2.7295163	0.8886658	1.2379546
1276877458037	-6.5513873	1.0351465	9.384419	1.6850662	0.0	20.75	-5.75	-20.0	2.7508857	0.9555386	1.4140877
1276877458077	-6.1700177	-0.5720546	8.921328	1.0555067	0.0	21.25	-3.0	-20.5	2.4049358	0.9637245	1.6632472
1276877458117	-4.5219555	-1.56634	8.62168	0.054124832	0.0	21.0	-0.5	-22.75	2.2690825	1.0640764	1.9042475
1276877458157	-3.405087	-2.2201166	8.771504	-0.13903236	0.0	20.5	1.75	-24.25	2.141858	1.1368362	2.1485763
1276877458197	-3.173541	-1.6889231	8.853226	-0.25136662	0.0	18.75	3.5	-25.25	2.4809756	1.1850735	2.0598621
1276877458227	-4.0180025	-0.61291564	9.193735	0.24545288	0.0	18.0	3.75	-26.75	-2.976966	1.1545377	1.7221718
1276877458257	-4.140586	-0.3405087	9.384419	0.45627975	0.0	17.25	4.0	-26.5	-2.689125	1.1540223	1.6528485
1276877458297	-2.982856	-0.95342433	9.193735	-0.094223976	0.0	17.0	4.5	-27.5	3.027446	1.2425063	1.8801678
1276877458337	-3.1463003	-1.56634	8.921328	-0.21797371	0.0	16.75	4.5	-28.5	2.5723727	1.1955092	2.0327108
1276877458377	-4.2495484	-0.88532263	9.043911	0.22503948	0.0	16.0	4.25	-28.5	-2.805723	1.123302	1.7761917
1276877458417	-4.671779	0.19068487	10.337844	1.539402	0.0	15.25	3.25	-28.75	-2.0303361	1.1460423	1.5300026
1276877458457	-3.2961242	-0.42223078	10.079058	0.8060837	0.0	14.4375	0.75	-27.75	2.9269257	1.2523199	1.6982017
1276877458497	-3.0645783	-0.29964766	8.921328	-0.36887932	0.0	14.4375	-1.25	-26.25	2.6462626	1.2384491	1.6682643
1276877458537	-4.5628166	1.6889231	9.724928	1.0674467	0.0	13.1875	-3.25	-25.25	-2.0380669	1.1069102	1.2162851
1276877458577	-3.1054392	2.0294318	9.112013	0.03159809	0.0	12.1875	-5.0	-24.5	-2.406355	1.1841594	0.9919584
1276877458617	-2.1792557	2.6423476	9.384419	0.18326855	0.0	10.4375	-7.0	-24.5	-2.2510812	1.2208437	0.6896467
1276877458657	-2.3018389	3.6774938	10.119919	1.2040348	0.0	8.1875	-9.25	-24.75	-2.1894627	1.16579	0.5592649
1276877458697	-2.070293	3.1054392	8.471856	-0.5491018	0.0	5.9375	-10.75	-24.25	2.5183482	1.1558293	0.5880026
1276877458737	-2.9556155	2.4925237	8.662541	-0.32045174	0.0	3.125	-12.25	-24.0	1.5179714	1.1510028	0.8701944
1276877458777	-2.4925237	3.445948	9.724928	0.80755997	0.0	0.125	-13.3125	-22.75	1.6787347	1.1585367	0.6262063
1276877458817	-1.3075534	5.7886477	10.038197	1.8545475	0.0	-3.125	-14.5625	-22.25	1.6205741	1.0368794	0.22215413
1276877458857	-0.5720546	6.851035	10.528529	2.767683	0.0	-5.6875	-15.5625	-22.25	1.6316377	0.99233186	0.083305754
1276877458897	0.3405087	5.325556	8.894087	0.56553745	0.0	-7.9375	-15.0625	-22.75	1.7993727	1.0303786	-0.06385171
1276877458937	-0.10896278	3.1054392	8.390134	-0.8595848	0.0	-9.4375	-13.8125	-23.75	1.9872345	1.2161018	0.035073332
1276877458977	-0.53119355	2.7921712	9.656827	0.25976372	0.0	-10.4375	-12.25	-24.5	1.7870545	1.2845538	0.18799733
1276877459017	0.6537767	2.7649305	9.507003	0.11581802	0.0	-11.4375	-10.75	-25.5	2.115401	1.2803942	-0.23218867
1276877459057	0.7218784	1.879608	8.771504	-0.80702114	0.0	-12.4375	-10.25	-25.75	2.3546433	1.3451594	-0.36668816
1276877459097	-0.10896278	1.9885708	9.575105	-0.026623726	0.0	-13.1875	-10.25	-26.0	1.855606	1.3657273	0.05473978
1276877459137	-0.0	2.152015	9.80665	0.2333479	0.0	-14.6875	-10.25	-25.5	1.870959	1.3547759	0.0
1276877459177	1.5390993	1.607201	9.534244	-0.016159058	0.0	-15.5	-10.5	-25.0	2.828389	1.3415014	-0.7637566
1276877459217	0.3405087	1.6480621	9.507003	-0.1518507	0.0	-15.5	-11.25	-24.25	2.2159166	1.3955976	-0.20374468
1276877459247	0.50395286	2.152015	9.956474	0.39219856	0.0	-15.25	-11.75	-23.75	2.229337	1.3523489	-0.23003209
1276877459277	1.2666923	3.336985	10.18802	0.9885206	0.0	-13.6875	-12.25	-23.5	2.3048162	1.2338153	-0.3627903
1276877459317	-0.53119355	3.255263	9.80665	0.53981304	0.0	-11.9375	-12.8125	-23.25	1.7669728	1.2463467	0.16175425
1276877459357	-1.1168685	1.879608	8.049625	-1.4653797	0.0	-10.4375	-13.3125	-23.25	1.5584232	1.3055804	0.53614604
1276877459397	-0.6537767	8.281172	10.419566	3.5189867	0.0	-9.4375	-13.8125	-22.75	1.2070079	0.897738	0.07878396
1276877459437	-1.0760075	5.5162406	8.158588	0.1003809	0.0	-9.4375	-15.0625	-21.75	1.4356313	0.9675795	0.19264276
1276877459477	-0.7218784	5.938472	9.084772	1.0708323	0.0	-10.4375	-16.3125	-20.0	1.6897286	0.9884794	0.12096614
1276877459517	-1.334794	7.8861814	7.014479	0.8317919	0.0	-11.1875	-17.5625	-18.75	1.2977074	0.71995664	0.16766827
1276877459557	-2.0294318	5.6252036	8.076866	0.24308968	0.0	-11.6875	-18.5625	-18.5	1.5613729	0.93346924	0.34624133
1276877459597	-0.42223078	4.671779	7.5865335	-0.8870487	0.0	-12.6875	-18.5625	-18.5	1.9084841	1.0170231	0.09013413
1276877459637	1.1849703	5.5162406	9.425281	1.1782932	0.0	-14.4375	-18.5625	-18.75	2.267205	1.0313985	-0.21159917
1276877459667	1.7297841	4.7943625	10.228881	1.6217384	0.0	-17.25	-18.0625	-18.0	2.459015	1.1085241	-0.34625956
1276877459697	1.7297841	4.440233	7.3549876	-1.04288	0.0	-21.0	-17.5625	-17.0	2.260779	0.99590105	-0.37148327
1276877459737	1.9885708	3.9090397	8.499097	-0.24267292	0.0	-24.25	-16.8125	-16.25	2.4116533	1.0944085	-0.47059196
1276877459777	3.6774938	6.2789803	8.158588	1.1255093	0.0	-26.3125	-15.5625	-16.25	2.122324	0.8424745	-0.529826
1276877459817	3.990762	11.495573	7.9270425	4.716172	0.0	-28.0625	-14.3125	-16.25	1.5152924	0.5773835	-0.33413932
1276877459850	5.284695	10.528529	7.9679036	4.4153547	0.0	-30.3125	-13.8125	-14.75	1.6812232	0.5946897	-0.46519879
1276877459887	2.9147544	9.302697	8.471856	3.108779	0.0	-32.0625	-13.8125	-13.0	1.7619475	0.7154386	-0.303635
1276877459927	1.1849703	6.851035	10.528529	2.8104324	0.0	-34.3125	-13.8125	-10.9375	1.8846487	0.9871633	-0.17126776
1276877459967	0.040861044	4.1814466	8.853226	-0.015543938	0.0	-36.375	-13.5625	-10.4375	1.7913829	1.1295286	-0.009771677
1276877460045	1.2258313	0.9942854	8.19945	-1.456666	0.0	-36.875	-12.25	-11.4375	2.7533972	1.380625	-0.8893169
1276877460077	1.1849703	-0.7218784	9.043911	-0.6569185	0.0	-37.625	-11.5	-11.9375	-2.2562256	1.418561	-2.1179497
1276877460107	0.3405087	0.46309182	12.14935	2.3562899	0.0	-37.625	-11.5	-11.6875	2.4924204	1.5235194	-0.6340228
1276877460137	2.9556155	0.88532263	12.217452	2.794365	0.0	-37.625	-12.25	-10.6875	-3.1153336	1.3234314	-1.2797624
1276877460178	4.7943625	1.5390993	10.419566	1.7658215	0.0	-37.375	-13.3125	-9.4375	-3.1020107	1.1206309	-1.2601659
1276877460217	5.325556	2.3426998	9.043911	0.947052	0.0	-36.125	-14.3125	-9.4375	3.0891855	0.9991371	-1.1563752
1276877460247	3.1463003	2.9556155	9.302697	0.44883823	0.0	-35.125	-15.3125	-10.1875	2.716144	1.1363294	-0.816638
1276877460287	2.8330324	3.990762	8.894087	0.3450508	0.0	-33.3125	-16.0625	-11.4375	2.4781277	1.0677497	-0.61733776
1276877460327	2.5606253	4.8216033	8.390134	0.20329475	0.0	-31.5625	-16.5625	-13.0	2.2892084	0.99393725	-0.4881962
1276877460367	0.7627395	6.2789803	8.921328	1.1294117	0.0	-29.8125	-16.5625	-13.5	1.8708074	0.95406187	-0.12088279
1276877460407	0.19068487	8.049625	8.076866	1.5981121	0.0	-27.8125	-17.3125	-14.25	1.6677042	0.78694713	-0.023684235
1276877460447	-0.29964766	8.730643	7.4639506	1.6835403	0.0	-25.8125	-18.0625	-13.5	1.6043766	0.70704937	0.034307905
1276877460487	-0.23154591	9.112013	6.851035	1.5959406	0.0	-23.75	-19.0625	-13.25	1.5912434	0.64454085	0.025405593
1276877460527	-0.7218784	8.62168	6.4424243	0.98034763	0.0	-22.75	-20.3125	-13.5	1.576034	0.6400553	0.083533436
1276877460567	-0.3405087	8.580819	6.4015636	0.9043913	0.0	-21.25	-20.8125	-13.0	1.6388143	0.6405796	0.03966173
1276877460597	-0.29964766	7.5456724	7.1234417	0.5746012	0.0	-20.75	-21.5625	-13.0	1.7879206	0.75622916	0.039690338
1276877460637	-0.23154591	6.510526	7.6954966	0.27606964	0.0	-20.0	-22.5625	-11.9375	1.9774888	0.868307	0.03554987
1276877460677	0.27240697	6.0882955	7.43671	-0.1917553	0.0	-19.25	-23.0625	-10.9375	2.1363928	0.8842775	-0.04471291
1276877460707	1.0351465	6.5922484	7.6273947	0.32776737	0.0	-19.0	-23.5625	-10.4375	2.2759433	0.8520365	-0.15575297
1276877460737	1.1168685	6.6331096	8.281172	0.8621521	0.0	-18.5	-23.5625	-10.1875	2.3443992	0.8886232	-0.16681312
1276877460767	0.6537767	6.510526	9.193735	1.4778147	0.0	-18.75	-23.0625	-10.1875	2.2898624	0.9522548	-0.100082904
1276877460807	0.50395286	6.0201936	9.234595	1.2284956	0.0	-18.5	-23.0625	-10.1875	2.3064806	0.99147594	-0.083515696
1276877460850	0.50395286	5.434519	8.308413	0.134058	0.0	-19.25	-22.0625	-10.6875	2.2552233	0.9895826	-0.09246739
1276877460887	0.61291564	4.440233	7.5456724	-1.0300617	0.0	-20.0	-21.3125	-11.4375	2.2854424	1.03478	-0.13716997
1276877460917	0.08172209	3.9090397	8.049625	-0.85769844	0.0	-20.25	-20.5625	-13.0	2.1581829	1.1186348	-0.02090288
1276877460947	0.313268	4.140586	8.076866	-0.7248907	0.0	-20.75	-18.8125	-14.75	2.1023319	1.0959224	-0.075514026
1276877460987	0.3405087	4.440233	8.662541	-0.06646252	0.0	-21.5	-17.8125	-15.75	2.0351968	1.0959454	-0.07653732
1276877461027	0.10896278	4.5219555	9.152874	0.40290642	0.0	-22.25	-16.5625	-17.0	1.9134607	1.1118069	-0.024091722
1276877461067	0.3405087	4.7126403	8.962189	0.3247738	0.0	-23.0	-15.3125	-17.5	1.873307	1.085621	-0.072128996
1276877461107	0.46309182	5.366417	9.507003	1.1201973	0.0	-24.25	-14.5625	-17.75	1.8141488	1.0553222	-0.08608116
1276877461147	1.1441092	5.134871	9.466142	1.0231113	0.0	-24.75	-13.8125	-19.0	1.901383	1.0635508	-0.21923059
1276877461187	1.1168685	4.399372	9.043911	0.31235123	0.0	-25.3125	-12.8125	-19.25	1.9301063	1.1056485	-0.24861766
1276877461217	1.1849703	4.9850473	10.460427	1.8413277	0.0	-26.5625	-11.5	-20.0	1.854768	1.1153086	-0.23337378
1276877461247	3.445948	5.175732	8.771504	0.9451895	0.0	-26.8125	-10.5	-21.0	1.9775809	0.9541359	-0.587395
1276877461287	2.9556155	4.630918	8.689782	0.47407818	0.0	-26.8125	-9.25	-21.0	1.976073	1.0070322	-0.56806034
1276877461327	2.2609777	3.8681788	9.193735	0.42074394	0.0	-27.3125	-9.0	-21.25	2.0571184	1.1173261	-0.52894974
1276877461367	1.334794	3.8273177	9.956474	0.9432993	0.0	-27.3125	-9.0	-21.0	1.9188907	1.1841743	-0.33556476
1276877461407	2.152015	3.718355	9.534244	0.6508417	0.0	-27.8125	-9.25	-20.75	2.1041167	1.1474373	-0.52465135
1276877461447	2.1111538	3.486809	8.662541	-0.23301792	0.0	-28.5625	-9.75	-20.0	2.1405365	1.1309881	-0.544431
1276877461487	2.1111538	2.7921712	8.390134	-0.71558094	0.0	-28.3125	-10.0	-20.0	2.3207734	1.1755415	-0.6473921
1276877461527	2.2201166	2.3426998	8.539958	-0.67713547	0.0	-28.3125	-10.5	-20.25	2.5091922	1.2094536	-0.7585389
1276877461567	1.6480621	1.6889231	8.390134	-1.0909796	0.0	-28.0625	-10.5	-20.5	2.5862408	1.2966228	-0.7731539
1276877461607	1.4165162	1.9477097	9.302697	-0.19726562	0.0	-27.3125	-10.25	-21.25	2.4199688	1.3174719	-0.6287963
1276877461647	1.4982382	2.152015	10.61025	1.122819	0.0	-26.8125	-9.5	-22.0	2.3735664	1.3285136	-0.6081727
1276877461677	0.88532263	1.920469	10.147159	0.55852413	0.0	-26.5625	-8.25	-23.25	2.1486294	1.3653328	-0.43195796
1276877461717	0.6946377	2.3018389	10.228881	0.70101357	0.0	-26.3125	-6.75	-23.75	1.9121505	1.3399305	-0.29308453
1276877461747	1.1168685	2.6014864	10.460427	1.0301237	0.0	-26.0625	-5.5	-24.5	1.939004	1.3064798	-0.40552348
1276877461787	0.6537767	2.6014864	10.56939	1.097806	0.0	-26.0625	-4.25	-25.5	1.7294909	1.3222561	-0.2462102
1276877461827	0.23154591	2.7649305	11.264028	1.7940722	0.0	-25.5625	-3.5	-25.75	1.5429698	1.3292797	-0.083548896
1276877461867	-0.14982383	3.445948	11.454713	2.1561022	0.0	-25.3125	-2.5	-26.5	1.3275732	1.2783157	0.0434509
1276877461907	-0.29964766	4.2904096	10.460427	1.5034313	0.0	-24.75	-2.25	-27.0	1.1955922	1.1807104	0.06972805
1276877461937	-0.040861044	4.372132	9.507003	0.65758896	0.0	-25.3125	-2.5	-26.75	1.2252312	1.1397358	0.009345522
1276877461977	0.50395286	4.099725	8.962189	0.06160927	0.0	-25.0625	-2.5	-26.5	1.3289187	1.1389233	-0.12231
1276877462017	1.2666923	3.7864566	8.390134	-0.5149269	0.0	-25.5625	-3.5	-26.25	1.5293255	1.1266284	-0.3228293
1276877462057	1.6889231	2.9556155	7.7363577	-1.3544693	0.0	-26.3125	-3.75	-25.75	1.7846913	1.1562746	-0.51914614
1276877462087	1.334794	2.0294318	7.3549876	-2.0609345	0.0	-26.0625	-3.75	-25.5	1.9811852	1.2518159	-0.5817818
1276877462117	0.84446156	2.152015	9.112013	-0.4059553	0.0	-27.0625	-4.25	-25.0	1.8691082	1.3223327	-0.3739419
1276877462157	1.56634	1.9885708	10.119919	0.62506104	0.0	-27.0625	-4.75	-24.5	2.220538	1.3256881	-0.66717803
1276877462197	2.1792557	1.8387469	10.419566	0.99601173	0.0	-27.5625	-5.0	-24.75	2.4513147	1.3036833	-0.86994195
1276877462227	2.0294318	1.6889231	10.800936	1.3123093	0.0	-27.8125	-5.5	-24.25	2.5070367	1.3310492	-0.8767186
1276877462257	2.3699405	1.9885708	11.032481	1.6513901	0.0	-27.0625	-6.0	-24.25	2.4998302	1.2973999	-0.87267584
1276877462297	2.4108016	2.0294318	10.732834	1.3792467	0.0	-27.5625	-5.5	-24.25	2.4631	1.2852112	-0.8710775
1276877462327	2.4108016	1.6480621	10.760075	1.3426676	0.0	-27.5625	-5.0	-23.75	2.5873492	1.3057798	-0.9711513
1276877462367	2.070293	1.3756552	11.073342	1.5422468	0.0	-27.5625	-4.75	-24.25	2.6198575	1.3499832	-0.9843135
1276877462407	1.8387469	1.1849703	10.651112	1.0667725	0.0	-28.0625	-3.75	-24.75	2.601934	1.3682355	-0.9983365
1276877462437	1.879608	1.0351465	10.460427	0.87159824	0.0	-28.0625	-3.25	-24.75	2.6637237	1.3684682	-1.067397
1276877462477	1.8387469	1.56634	10.419566	0.88922596	0.0	-28.3125	-3.25	-25.5	2.3985088	1.3430012	-0.8652282
1276877462517	1.8387469	2.070293	10.269742	0.82983017	0.0	-28.8125	-3.0	-25.25	2.1944718	1.3074361	-0.72623384
1276877462557	2.3018389	2.2609777	9.425281	0.15559864	0.0	-29.3125	-2.75	-24.75	2.202408	1.2409734	-0.7943531
1276877462597	1.9885708	2.3426998	9.80665	0.47017097	0.0	-29.3125	-3.75	-24.75	2.163944	1.2671393	-0.7038186
1276877462637	1.9885708	2.5606253	10.18802	0.8847933	0.0	-29.3125	-5.0	-23.75	2.169205	1.2627027	-0.6603062
1276877462677	2.0294318	2.7649305	9.80665	0.58246994	0.0	-29.3125	-5.5	-23.0	2.1374454	1.2343525	-0.63317585
1276877462707	2.2201166	3.0237172	9.343558	0.2618084	0.0	-29.5625	-6.75	-22.25	2.1508362	1.1890161	-0.6333344
1276877462737	2.070293	3.5276701	9.425281	0.46790504	0.0	-29.5625	-7.5	-21.25	2.0472717	1.1613514	-0.5307111
1276877462767	2.4108016	3.5957718	9.466142	0.6024504	0.0	-29.8125	-7.75	-20.5	2.1168833	1.1418637	-0.5906204
1276877462807	2.3699405	3.5276701	9.043911	0.18601704	0.0	-30.0625	-8.5	-20.25	2.1404371	1.1315085	-0.59155816
1276877462857	1.6889231	4.140586	8.730643	0.00258255	0.0	-30.0625	-9.25	-20.0	1.9108144	1.0974405	-0.38729358
1276877462897	2.3699405	4.1814466	8.894087	0.30304337	0.0	-30.5625	-9.5	-19.75	2.041253	1.0753536	-0.5156312
1276877462927	1.9885708	3.8681788	9.275456	0.43792439	0.0	-30.8125	-9.75	-19.5	2.0637841	1.1323252	-0.47485164
1276877462967	1.920469	3.405087	9.00305	0.008528709	0.0	-31.3125	-10.0	-19.75	2.1376188	1.1611403	-0.5135282
1276877463007	2.1111538	3.173541	8.689782	-0.31767464	0.0	-31.8125	-9.75	-19.0	2.218023	1.1574371	-0.5870115
1276877463047	2.3018389	3.214402	8.62168	-0.32170296	0.0	-31.8125	-9.5	-19.25	2.2323868	1.140844	-0.62145096
1276877463077	2.3699405	3.5276701	9.112013	0.24769497	0.0	-32.0625	-9.5	-19.25	2.1906698	1.134389	-0.5915581
1276877463117	2.4925237	3.5276701	9.193735	0.35119915	0.0	-31.5625	-9.75	-18.75	2.2332513	1.1315837	-0.6151176
1276877463157	2.4925237	3.3778462	9.275456	0.37453938	0.0	-31.3125	-9.75	-19.25	2.2648065	1.145796	-0.6357141
1276877463197	2.4925237	3.486809	8.962189	0.1277008	0.0	-31.3125	-10.0	-19.25	2.2372632	1.1247072	-0.6206189
1276877463227	2.6423476	3.6774938	9.152874	0.40515995	0.0	-30.8125	-10.0	-19.75	2.2224221	1.1113605	-0.62304676
1276877463267	2.6423476	3.8681788	9.575105	0.85296726	0.0	-30.8125	-9.5	-19.25	2.186165	1.1157933	-0.59929246
1276877463297	2.5606253	3.718355	9.234595	0.47248936	0.0	-30.8125	-9.75	-19.0	2.2040153	1.1160719	-0.6030642
1276877463327	2.7921712	3.636633	9.112013	0.3938446	0.0	-30.5625	-9.5	-18.75	2.250959	1.1046152	-0.65479
1276877463357	3.0645783	3.5276701	9.00305	0.3368702	0.0	-30.5625	-9.75	-18.0	2.336403	1.0920359	-0.71526545
1276877463397	3.336985	3.486809	8.853226	0.27664852	0.0	-30.8125	-10.25	-18.5	2.393558	1.0716863	-0.7634456
1276877463427	3.1463003	3.445948	8.894087	0.23718071	0.0	-30.8125	-10.0	-18.75	2.36284	1.0876279	-0.73997486
1276877463467	2.9556155	3.3778462	9.112013	0.35082436	0.0	-31.0625	-10.25	-18.75	2.3668144	1.1131041	-0.71883005
1276877463507	2.9556155	3.255263	9.112013	0.3107195	0.0	-30.8125	-10.0	-19.25	2.382399	1.1212183	-0.73718995
1276877463547	2.7240696	3.1054392	8.812365	-0.07412338	0.0	-30.3125	-9.5	-19.25	2.3523142	1.1324503	-0.72007066
1276877463587	2.2609777	3.214402	9.234595	0.22939205	0.0	-30.3125	-9.25	-19.25	2.242181	1.1684457	-0.6129974
1276877463627	2.5333846	3.6774938	9.656827	0.8327246	0.0	-30.3125	-9.0	-19.5	2.1899548	1.1376504	-0.6032298
1276877463667	2.7240696	4.440233	9.697687	1.2015905	0.0	-31.0625	-9.0	-19.5	2.0689127	1.0778618	-0.5502847
1276877463697	2.5333846	4.671779	9.765789	1.3115416	0.0	-31.5625	-9.25	-19.75	2.0083807	1.072423	-0.4968922
1276877463737	3.0237172	4.5628166	9.615966	1.258112	0.0	-31.3125	-9.25	-19.25	2.0976264	1.0533035	-0.58524203
1276877463767	3.6774938	3.6774938	8.894087	0.4963932	0.0	-30.8125	-9.75	-19.25	2.3611808	1.0416701	-0.7853982
1276877463807	3.759216	2.7921712	8.580819	-0.031253815	0.0	-30.3125	-9.75	-19.5	2.6023047	1.071245	-0.9319491
1276877463847	3.214402	2.3699405	9.302697	0.3170433	0.0	-30.0625	-9.5	-19.5	2.6645546	1.1652919	-0.93548054
1276877463877	2.3426998	2.4925237	10.147159	0.9015589	0.0	-30.3125	-10.25	-20.25	2.50262	1.2456551	-0.7544221
1276877463917	2.2609777	2.4516625	10.269742	0.9910469	0.0	-30.8125	-10.5	-20.0	2.5054755	1.2567936	-0.7449578
1276877463947	2.2201166	2.4108016	9.80665	0.5331402	0.0	-30.5625	-11.25	-19.75	2.5307572	1.248271	-0.7442449
1276877463987	2.1111538	2.4108016	9.275456	0.006760597	0.0	-30.8125	-11.5	-19.5	2.5024612	1.2381505	-0.7192298
1276877464027	1.920469	2.7921712	8.390134	-0.7579613	0.0	-30.5625	-11.0	-19.25	2.309431	1.1869229	-0.60249436
1276877464057	2.1792557	3.214402	8.076866	-0.8446579	0.0	-30.3125	-10.5	-19.0	2.23177	1.1226125	-0.59578454
1276877464087	2.3426998	3.405087	8.390134	-0.45372486	0.0	-30.3125	-9.75	-18.75	2.2059414	1.1130706	-0.6026268
1276877464127	2.2201166	3.486809	8.62168	-0.2452631	0.0	-29.8125	-10.0	-18.5	2.188372	1.1237285	-0.5669819
1276877464167	2.3426998	3.8273177	8.921328	0.1796751	0.0	-29.5625	-10.0	-18.5	2.1506212	1.1047556	-0.5492688
1276877464207	2.8330324	4.140586	8.812365	0.33377838	0.0	-29.3125	-10.25	-18.75	2.1659172	1.0532439	-0.6000502
1276877464237	2.8738933	4.0588636	8.689782	0.20563984	0.0	-29.3125	-10.5	-18.75	2.193692	1.0509824	-0.6161107
1276877464267	2.6832085	3.9499009	8.730643	0.1445036	0.0	-29.0625	-10.5	-18.75	2.1908133	1.0703112	-0.59670496
1276877464297	2.5606253	3.990762	8.962189	0.33257103	0.0	-28.8125	-11.0	-18.75	2.1942937	1.0841644	-0.5704745
1276877464327	2.7240696	4.0588636	9.302697	0.70216084	0.0	-28.8125	-10.75	-18.75	2.2122772	1.0869846	-0.59109384
1276877464357	2.9556155	3.990762	9.275456	0.71456337	0.0	-28.5625	-10.75	-19.5	2.2511952	1.0792323	-0.63746715
1276877464397	2.9556155	3.9090397	9.302697	0.7079315	0.0	-28.5625	-10.5	-19.75	2.2560277	1.0859412	-0.64739215
1276877464427	3.0237172	3.718355	9.466142	0.80357456	0.0	-28.3125	-10.25	-20.25	2.3012981	1.1021304	-0.68273014
1276877464467	3.1463003	3.3778462	9.425281	0.68834686	0.0	-28.0625	-9.75	-20.75	2.376257	1.1153702	-0.74992245
1276877464507	2.6832085	3.0237172	9.724928	0.72505	0.0	-27.8125	-9.25	-21.0	2.3798487	1.1768352	-0.72580296
1276877464547	2.2201166	2.7921712	10.079058	0.88505363	0.0	-27.8125	-9.0	-21.5	2.3442037	1.2306291	-0.6717594
1276877464587	2.2609777	2.7649305	9.997335	0.8095436	0.0	-28.0625	-8.5	-22.0	2.3304858	1.2276661	-0.6854612
1276877464627	2.5333846	2.6832085	9.956474	0.8116846	0.0	-28.5625	-8.5	-22.25	2.4044697	1.2158586	-0.7566854
1276877464667	2.4108016	2.4925237	9.847511	0.63356686	0.0	-28.8125	-8.25	-21.75	2.4270678	1.2322203	-0.7687331
1276877464707	2.3018389	2.4108016	9.275456	0.049542427	0.0	-28.8125	-7.75	-22.25	2.3870986	1.2258071	-0.7622809
1276877464737	2.5333846	2.5333846	9.112013	-0.015590668	0.0	-28.8125	-7.5	-22.0	2.3812757	1.196175	-0.7853982
1276877464767	2.6014864	2.5606253	9.112013	0.009322166	0.0	-28.5625	-7.5	-22.0	2.3861518	1.1897722	-0.7933136
1276877464807	2.5606253	2.5606253	9.234595	0.11259079	0.0	-28.5625	-7.25	-22.25	2.3687174	1.1970826	-0.7853982
1276877464837	2.4108016	2.6014864	9.507003	0.34040833	0.0	-28.8125	-7.0	-21.75	2.3305721	1.213718	-0.74737304
1276877464877	2.4516625	2.6423476	9.507003	0.36073685	0.0	-28.5625	-6.75	-22.0	2.313006	1.2083966	-0.74798244
1276877464917	2.2609777	2.4516625	9.847511	0.5902796	0.0	-27.8125	-7.0	-22.25	2.3528605	1.2442496	-0.7449578
1276877464947	2.3699405	2.3426998	9.997335	0.73145103	0.0	-27.5625	-7.0	-22.75	2.41102	1.2490501	-0.79117846
1276877464987	2.3018389	2.1792557	9.847511	0.53845024	0.0	-27.3125	-7.25	-23.25	2.4554164	1.2593813	-0.812747
1276877465027	1.9477097	2.152015	10.038197	0.64275837	0.0	-27.3125	-8.0	-23.0	2.4200687	1.2893234	-0.7356055
1276877465057	1.9477097	2.1792557	9.888372	0.50463676	0.0	-27.8125	-7.5	-23.0	2.3833115	1.2834007	-0.7293513
1276877465088	2.1111538	2.1792557	9.847511	0.49769878	0.0	-28.3125	-7.75	-22.75	2.4333587	1.271912	-0.7695265
1276877465127	1.920469	2.070293	9.915613	0.50323296	0.0	-28.0625	-8.0	-22.5	2.4379137	1.2933502	-0.7478731
1276877465157	1.879608	2.070293	9.80665	0.3908701	0.0	-28.0625	-7.25	-23.0	2.389371	1.2930292	-0.7371597
1276877465197	1.9885708	2.3699405	9.575105	0.25583744	0.0	-27.8125	-7.25	-23.25	2.3091254	1.2582847	-0.6981204
1276877465237	2.3018389	2.9147544	9.425281	0.32400513	0.0	-28.0625	-7.0	-23.5	2.1927166	1.1954268	-0.66844094
1276877465267	2.3018389	3.0237172	9.466142	0.39379978	0.0	-28.8125	-6.5	-24.0	2.1364326	1.189041	-0.65066946
1276877465297	2.152015	2.8738933	9.697687	0.5343151	0.0	-28.5625	-6.5	-23.5	2.163557	1.2162186	-0.6427424
1276877465327	2.070293	2.7649305	9.80665	0.59052944	0.0	-28.3125	-6.5	-23.0	2.1863382	1.2321432	-0.64271253
1276877465367	2.4516625	2.6423476	9.697687	0.53925705	0.0	-28.0625	-7.0	-23.25	2.3164365	1.2149305	-0.74798244
1276877465407	2.6423476	1.920469	9.724928	0.45222092	0.0	-27.3125	-7.0	-23.0	2.606124	1.2467443	-0.9423066
1276877465437	2.6832085	0.7627395	9.997335	0.5725641	0.0	-27.5625	-7.0	-23.0	3.1037216	1.2986916	-1.293838
1276877465477	2.6832085	-0.8036005	10.038197	0.6149988	0.0	-28.0625	-6.5	-23.75	-2.4631958	1.2986871	-1.8617873
1276877465517	2.5606253	-2.4925237	10.651112	1.4279242	0.0	-27.8125	-4.75	-24.5	-1.9066693	1.2470977	-2.3427181
1276877465557	1.607201	-3.214402	12.026767	2.7455845	0.0	-28.0625	-3.5	-25.5	-1.6353695	1.2804246	-2.6779451
1276877465597	1.879608	-0.19068487	12.830367	3.1620665	0.0	-27.8125	-2.75	-26.75	-2.9070995	1.4245979	-1.6718997
1276877465637	2.8330324	5.706926	13.797412	5.3908386	0.0	-27.3125	-1.5	-26.5	1.6184748	1.138186	-0.46077955
1276877465677	2.3426998	8.281172	11.604536	4.6408854	0.0	-27.5625	-0.75	-26.5	1.2351915	0.93267983	-0.27569094
1276877465707	2.7649305	8.689782	10.923519	4.4229116	0.0	-28.5625	-0.0	-26.0	1.2182478	0.87518764	-0.30805278
1276877465737	2.982856	6.973618	11.495573	3.9656763	0.0	-31.3125	2.0	-25.0	1.4025192	0.987563	-0.4041844
1276877465767	2.4108016	3.9499009	10.691973	1.8437557	0.0	-34.8125	3.25	-24.5	1.708957	1.1623373	-0.54799134
1276877465807	2.5333846	-0.38136974	8.049625	-1.359168	0.0	-37.875	5.0	-22.25	-3.1181977	1.2626662	-1.7202121
1276877465847	3.636633	-3.3642259	5.5162406	-2.3923383	0.0	-40.875	6.75	-20.5	-2.0564747	0.8390355	-2.3173037
1276877465877	5.012288	-4.862464	4.2904096	-1.6106634	0.0	-42.875	7.25	-19.25	-1.6658483	0.55092645	-2.3410232
1276877465917	5.6252036	-4.4810944	4.7126403	-1.2082729	0.0	-43.625	7.25	-18.0	-1.8480577	0.5800728	-2.2434669
1276877465947	5.284695	-2.9147544	6.701211	-0.7883339	0.0	-43.375	5.75	-18.0	-2.424214	0.83764136	-2.074826
1276877465987	4.440233	-1.1168685	7.273266	-1.2122641	0.0	-41.875	2.75	-18.25	-2.8507168	1.0089653	-1.817218
1276877466027	4.5219555	1.1849703	8.281172	-0.29717922	0.0	-39.375	-0.75	-18.0	2.7802014	1.0568966	-1.3145107
1276877466067	4.5219555	2.5333846	9.275456	0.8188009	0.0	-36.625	-4.5	-18.0	2.5551126	1.0612113	-1.0601246
1276877466097	3.718355	2.9556155	8.539958	-0.034612656	0.0	-34.5625	-7.5	-17.5	2.4586117	1.063205	-0.8991902
1276877466137	3.3778462	3.255263	7.5865335	-0.8868923	0.0	-32.5625	-9.0	-17.25	2.358251	1.0169947	-0.8038766
1276877466177	3.445948	3.8681788	8.008764	-0.2684288	0.0	-31.5625	-9.75	-17.75	2.2608774	0.9966379	-0.727734
1276877466217	3.3778462	4.5219555	9.302697	1.074439	0.0	-31.0625	-9.75	-18.5	2.168692	1.0254385	-0.6415706
1276877466247	3.214402	5.2165933	10.228881	2.117075	0.0	-30.0625	-10.0	-19.75	2.0542634	1.0310898	-0.55223745
1276877466287	2.5333846	4.2495484	8.430995	-0.031253815	0.0	-29.3125	-10.0	-20.25	2.03749	1.0401318	-0.5375866
1276877466317	2.0294318	4.5628166	10.528529	1.8461523	0.0	-29.8125	-9.75	-20.25	1.9880196	1.1279112	-0.41850126
1276877466357	1.334794	5.053149	10.56939	1.9843636	0.0	-30.0625	-9.5	-19.25	1.813053	1.1115654	-0.2582522
1276877466397	2.8738933	4.440233	8.19945	-0.04929924	0.0	-31.5625	-8.75	-18.25	2.027815	0.99790204	-0.574432
1276877466427	4.440233	3.5957718	7.1234417	-0.67491055	0.0	-33.8125	-9.0	-16.25	2.3721628	0.8947856	-0.89009863
1276877466457	4.0180025	4.2086873	6.701211	-0.93176365	0.0	-35.125	-9.5	-14.25	2.2151597	0.8557696	-0.7622235
1276877466497	3.718355	6.4424243	7.164303	0.5208969	0.0	-36.625	-10.5	-11.6875	1.9513776	0.7666247	-0.52346134
1276877466537	3.7864566	6.66035	8.076866	1.325882	0.0	-38.375	-12.0	-8.1875	2.0904844	0.81178856	-0.5169411
1276877466577	4.372132	7.082581	8.539958	2.1185074	0.0	-39.875	-13.5625	-4.9375	2.2074182	0.7982412	-0.5530487
1276877466617	5.09401	6.973618	7.43671	1.5900574	0.0	-40.625	-14.8125	-1.1875	2.3234692	0.71092033	-0.63088346
1276877466657	5.284695	7.205164	6.5922484	1.297409	0.0	-41.375	-15.5625	1.3125	2.3323586	0.6356232	-0.6328308
1276877466697	4.7535014	6.932757	6.66035	0.9180479	0.0	-41.125	-16.5625	3.8125	2.3831818	0.67005503	-0.6010356
1276877466727	5.053149	6.8237944	6.2789803	0.75384617	0.0	-40.375	-16.5625	4.8125	2.4275706	0.63673383	-0.63740563
1276877466757	5.6660647	6.3607025	5.243834	0.19638062	0.0	-39.625	-16.8125	3.8125	2.4801579	0.55180424	-0.7277046
1276877466797	5.434519	6.0474343	4.630918	-0.44978905	0.0	-39.125	-16.8125	2.5625	2.4450765	0.51774526	-0.732068
1276877466837	4.7535014	5.9793324	5.325556	-0.49484444	0.0	-39.375	-16.5625	0.3125	2.3839052	0.6088377	-0.67167777
1276877466877	4.4810944	5.7477865	6.742072	0.12173271	0.0	-39.625	-15.3125	-1.6875	2.3930285	0.7464957	-0.66219056
1276877466917	4.440233	5.6252036	7.3958488	0.4917555	0.0	-40.375	-13.8125	-3.1875	2.364755	0.801147	-0.66821086
1276877466948	4.5219555	5.366417	7.6954966	0.60810757	0.0	-40.625	-12.5625	-5.1875	2.3556376	0.831441	-0.70020545
1276877466987	4.440233	4.903325	7.8589406	0.46570206	0.0	-40.125	-10.5	-6.9375	2.3427582	0.8711307	-0.735876
1276877467027	4.3312707	4.7126403	8.117727	0.5309696	0.0	-40.125	-10.25	-8.6875	2.3395996	0.90311724	-0.7432545
1276877467067	4.3312707	4.630918	8.430995	0.7426138	0.0	-39.375	-9.0	-10.1875	2.3103411	0.92596674	-0.751976
1276877467097	4.3312707	4.7535014	8.430995	0.796998	0.0	-39.625	-8.0	-10.9375	2.2497811	0.9191777	-0.73895484
1276877467127	4.1814466	4.7126403	8.689782	0.9267454	0.0	-39.625	-7.0	-11.6875	2.2123737	0.9434744	-0.72574466
1276877467167	3.9499009	4.630918	8.580819	0.71369076	0.0	-39.625	-6.5	-12.1875	2.1764674	0.9538359	-0.70619917
1276877467207	3.8273177	4.3312707	8.539958	0.50543785	0.0	-40.375	-6.5	-12.75	2.203471	0.9757994	-0.7237069
1276877467247	4.0588636	4.2495484	8.008764	0.12679577	0.0	-40.625	-6.25	-12.4375	2.2171817	0.9377725	-0.76245135
1276877467287	4.2904096	4.4810944	7.205164	-0.2986431	0.0	-41.375	-7.0	-11.6875	2.1910508	0.8599342	-0.76366246
1276877467317	4.630918	4.630918	7.164303	-0.10005283	0.0	-41.625	-7.5	-10.9375	2.218567	0.83022904	-0.7853982
1276877467358	4.5219555	4.6036777	7.504812	0.09103298	0.0	-41.375	-8.5	-9.1875	2.289048	0.8606083	-0.7764432
1276877467397	4.5628166	4.7126403	7.4639506	0.13009167	0.0	-41.625	-9.75	-8.1875	2.3222852	0.84979737	-0.7692469
1276877467427	4.7126403	4.7535014	7.205164	0.027938843	0.0	-41.375	-10.5	-7.9375	2.3426473	0.8221854	-0.7810816
1276877467467	4.5628166	4.6036777	6.782933	-0.42468166	0.0	-41.375	-10.75	-7.1875	2.3514156	0.8080995	-0.78094053
1276877467507	4.2495484	4.5219555	6.3607025	-0.9204092	0.0	-41.375	-11.0	-6.6875	2.3273532	0.79775804	-0.7543522
1276877467547	4.099725	4.7126403	5.9793324	-1.1597357	0.0	-41.125	-11.25	-5.9375	2.2789154	0.763562	-0.71595824
1276877467587	4.2904096	5.434519	6.469665	-0.33046055	0.0	-41.125	-11.75	-4.4375	2.256512	0.7514904	-0.6682894
1276877467627	4.140586	5.938472	7.0553403	0.30214405	0.0	-40.875	-12.5625	-3.4375	2.2448804	0.77251816	-0.6088764
1276877467667	4.099725	6.3607025	7.5456724	0.8799515	0.0	-40.875	-13.8125	-2.1875	2.2631044	0.78395724	-0.57252705
1276877467707	4.0588636	6.3198414	7.1234417	0.54507446	0.0	-40.875	-14.3125	-1.1875	2.2745445	0.75892323	-0.5709017
1276877467737	4.4810944	6.701211	6.4424243	0.5128107	0.0	-40.875	-15.0625	-0.6875	2.268449	0.67423326	-0.58940846
1276877467767	4.440233	6.851035	5.7477865	0.17780781	0.0	-41.375	-15.3125	-0.1875	2.2240183	0.6134274	-0.57504636
1276877467807	4.372132	7.1234417	5.243834	0.060302734	0.0	-41.375	-15.5625	0.0625	2.1720257	0.5603164	-0.55048066
1276877467837	4.2086873	7.164303	5.2165933	0.0042181015	0.0	-40.875	-16.3125	0.5625	2.1834333	0.56062514	-0.53114223
1276877467877	3.8273177	7.082581	4.903325	-0.38041496	0.0	-40.625	-16.5625	0.5625	2.1470027	0.54706	-0.49543095
1276877467917	3.8273177	7.3549876	4.372132	-0.43329716	0.0	-39.625	-17.3125	0.3125	2.1024072	0.48526487	-0.47981077
1276877467957	5.243834	9.112013	5.6252036	2.1168346	0.0	-38.375	-17.8125	0.0625	2.1621501	0.49130297	-0.5221993
1276877467997	4.440233	10.119919	7.082581	3.3193312	0.0	-37.625	-18.3125	-0.4375	2.1267846	0.56994396	-0.413469
1276877468037	3.486809	8.62168	6.973618	1.8175726	0.0	-37.375	-18.3125	-1.1875	2.1365287	0.64340264	-0.3843138
1276877468077	3.9090397	6.851035	5.284695	-0.31216335	0.0	-37.625	-17.0625	-2.6875	2.1657836	0.59029573	-0.51850355
1276877468117	4.5628166	5.7886477	4.7943625	-1.0138321	0.0	-38.625	-15.0625	-4.6875	2.2081985	0.576698	-0.66752607
1276877468157	4.140586	4.671779	5.366417	-1.5744934	0.0	-39.125	-12.5625	-7.1875	2.2694337	0.71006715	-0.72519284
1276877468197	4.5628166	5.366417	6.6331096	-0.13112068	0.0	-39.125	-10.75	-9.4375	2.1852655	0.7553661	-0.7046414
1276877468237	6.701211	6.1291566	8.539958	2.6594505	0.0	-39.125	-9.25	-10.4375	2.26956	0.7546785	-0.8299547
1276877468277	5.597963	4.862464	8.281172	1.3090391	0.0	-39.625	-8.25	-11.9375	2.31942	0.84053254	-0.8555951
1276877468307	3.9090397	4.2086873	7.082581	-0.68762684	0.0	-40.625	-6.0	-13.5	2.1386366	0.88938093	-0.7485022
1276877468337	2.6014864	3.1463003	7.7363577	-1.0591841	0.0	-41.375	-2.5	-15.25	2.104592	1.0852311	-0.6908938
1276877468367	1.607201	2.2201166	8.689782	-0.69488144	0.0	-42.125	1.0	-17.5	2.03829	1.2652665	-0.62660414
1276877468407	1.7978859	1.6480621	8.62168	-0.84663486	0.0	-41.625	5.5	-19.75	2.139605	1.2951133	-0.8288491
1276877468437	1.9885708	1.4573772	8.471856	-0.98334503	0.0	-40.375	8.5	-21.25	2.1593547	1.287603	-0.93834454
1276877468477	1.879608	1.6889231	8.430995	-1.0051126	0.0	-38.875	11.0	-23.0	1.9610335	1.2795969	-0.8387825
1276877468517	2.5333846	1.3756552	8.689782	-0.65117264	0.0	-36.875	12.8125	-24.75	2.1073203	1.2504765	-1.0733349
1276877468557	3.5276701	1.1441092	10.651112	1.4716301	0.0	-35.625	13.8125	-25.5	2.2528288	1.2357389	-1.2571757
1276877468597	3.0645783	1.5390993	10.923519	1.6425304	0.0	-34.8125	14.5625	-26.25	2.069136	1.266598	-1.1053725
1276877468637	2.070293	1.334794	11.34575	1.8034248	0.0	-34.0625	14.5625	-27.0	2.0130596	1.357003	-0.99812996
1276877468677	3.5276701	1.607201	13.102775	3.8575468	0.0	-33.0625	14.8125	-27.5	2.0794752	1.2831451	-1.1432965
1276877468717	2.4108016	2.6014864	12.367276	3.059166	0.0	-31.5625	15.5625	-28.5	1.6239066	1.291504	-0.74737304
1276877468747	0.46309182	2.982856	10.337844	0.96288586	0.0	-29.8125	17.3125	-29.75	1.0055544	1.2867002	-0.15402153
1276877468777	0.3405087	2.3426998	9.575105	0.056757927	0.0	-28.0625	19.5625	-30.5	0.9430317	1.3284202	-0.14433806
1276877468817	0.46309182	1.334794	9.384419	-0.316473	0.0	-27.0625	21.8125	-31.0	1.1105053	1.4213662	-0.3339451
1276877468847	1.1849703	1.6480621	9.275456	-0.31168556	0.0	-25.8125	23.8125	-31.75	1.2663265	1.3553525	-0.6233696
1276877468877	1.3756552	1.920469	9.534244	0.015896797	0.0	-25.5625	24.8125	-31.75	1.2231426	1.3279141	-0.62158996
1276877468917	0.42223078	1.920469	10.310603	0.6897783	0.0	-25.3125	25.5625	-31.5	0.87781435	1.382349	-0.21641502
1276877468948	-1.0351465	2.070293	11.032481	1.4660282	0.0	-25.0625	26.3125	-31.25	0.25761575	1.3639921	0.4636476
1276877468987	-0.23154591	1.56634	10.528529	0.8402729	0.0	-25.0625	26.3125	-31.0	0.55245996	1.4215273	0.1467632
1276877469027	1.0760075	1.2258313	9.615966	-0.05333042	0.0	-24.75	26.5625	-31.5	1.3304771	1.4027727	-0.7204011
1276877469067	1.0351465	1.4165162	9.425281	-0.21947289	0.0	-24.75	26.0625	-31.25	1.2423688	1.386761	-0.63107944
1276877469097	1.3075534	1.7297841	10.079058	0.5030174	0.0	-25.3125	25.3125	-31.25	1.2599357	1.3588897	-0.64726996
1276877469137	1.3756552	2.0294318	10.378705	0.85770893	0.0	-26.5625	25.0625	-31.0	1.2293214	1.3388209	-0.59570664
1276877469177	0.9942854	1.9885708	10.038197	0.4748087	0.0	-27.0625	24.3125	-30.0	1.1451739	1.3528324	-0.4636476
1276877469217	1.2666923	1.2666923	9.765789	0.12207794	0.0	-27.3125	24.0625	-30.0	1.4842385	1.3893799	-0.7853982
1276877469247	1.3075534	1.4982382	10.18802	0.5736275	0.0	-27.5625	23.8125	-30.0	1.419099	1.3780324	-0.71754134
1276877469277	2.1792557	1.607201	8.962189	-0.4443283	0.0	-27.3125	24.0625	-29.75	1.5361133	1.27738	-0.9353434
1276877469307	1.9885708	1.56634	9.043911	-0.4151554	0.0	-27.3125	24.3125	-30.5	1.5140171	1.2978822	-0.9036183
1276877469337	-0.14982383	2.1111538	8.853226	-0.7039566	0.0	-27.8125	24.3125	-30.75	0.67288023	1.3361387	0.07084896
1276877469367	1.1849703	1.7570249	9.765789	0.18644333	0.0	-27.0625	24.0625	-31.0	1.2662247	1.3571007	-0.5933501
1276877469427	-0.88532263	2.6832085	10.841797	1.3972759	0.0	-26.5625	23.0625	-30.75	0.4527277	1.3158559	0.31870177
1276877469457	1.7978859	2.0294318	9.656827	0.22356892	0.0	-25.8125	22.5625	-30.5	1.3408614	1.2970812	-0.72497356
1276877469497	2.1111538	0.95342433	9.997335	0.45554733	0.0	-25.0625	22.3125	-31.0	1.7737564	1.3431069	-1.1466019
1276877469537	1.607201	1.6480621	10.079058	0.5319481	0.0	-25.8125	22.3125	-30.75	1.4293239	1.3462533	-0.7728465
1276877469577	2.5333846	1.3756552	10.378705	0.9649782	0.0	-27.0625	22.0625	-30.75	1.7104659	1.2998664	-1.0733349
1276877469617	2.6423476	2.1792557	10.038197	0.7997885	0.0	-28.5625	21.5625	-30.5	1.5140022	1.2419785	-0.88114965
1276877469657	2.8738933	0.3405087	10.18802	0.7844286	0.0	-30.3125	21.5625	-29.25	2.2088661	1.2940282	-1.4528627
1276877469697	3.1054392	0.5720546	10.460427	1.1199932	0.0	-32.0625	22.3125	-28.25	2.150059	1.277625	-1.388628
1276877469727	4.372132	0.88532263	7.4639506	-1.1112556	0.0	-33.3125	23.5625	-27.25	1.896497	1.0321031	-1.3710055
1276877469757	5.6252036	0.27240697	5.8567495	-1.6814651	0.0	-35.125	24.0625	-26.0	1.815605	0.8049764	-1.522408
1276877469787	6.0201936	1.1168685	7.273266	-0.29925728	0.0	-37.375	23.5625	-24.0	1.8736203	0.87105936	-1.3873615
1276877469827	7.0553403	2.1111538	5.7886477	-0.43951416	0.0	-39.875	21.3125	-21.25	1.6686084	0.66616327	-1.2800481
1276877469860	8.076866	5.434519	2.2609777	0.18743706	0.0	-43.375	17.0625	-16.75	1.3078328	0.22820716	-0.9785252
1276877469897	9.043911	7.6954966	1.7297841	2.1935644	0.0	-46.9375	12.25	-8.9375	1.4497328	0.14465001	-0.8657779
1276877469927	9.615966	6.701211	2.3426998	2.1458082	0.0	-49.1875	6.25	1.5625	1.827876	0.19727865	-0.9621648
1276877469957	7.9270425	6.4015636	1.4165162	0.4804554	0.0	-49.4375	0.25	13.375	2.1057684	0.13813713	-0.8914625
1276877469997	5.7477865	5.8567495	0.50395286	-1.5851822	0.0	-47.4375	-3.75	24.375	2.2749977	0.06133564	-0.7760087
1276877470037	4.7943625	5.012288	-0.6946377	-2.8358922	0.0	-43.875	-6.75	33.625	2.4071994	-0.09981591	-0.7631796
1276877470077	4.1814466	6.1291566	-1.525479	-2.231814	0.0	-39.875	-7.75	39.6875	2.4288774	-0.20277445	-0.5986946
1276877470117	4.2495484	6.851035	-2.7240696	-1.2968969	0.0	-36.875	-7.5	43.4375	2.4473033	-0.32584712	-0.5551967
1276877470157	4.0180025	8.349273	-3.9499009	0.2659073	0.0	-34.3125	-6.75	46.4375	2.4599433	-0.40296194	-0.44852716
1276877470197	3.7864566	9.384419	-4.1814466	1.1427374	0.0	-32.5625	-5.5	48.1875	2.5033717	-0.39183894	-0.3835056
1276877470237	4.5219555	9.656827	-7.04172	2.971777	0.0	-31.8125	-3.25	49.9375	2.4422927	-0.5836377	-0.437939
1276877470277	4.7535014	8.689782	-6.66035	2.1293602	0.0	-30.8125	-0.25	51.9375	2.4822872	-0.5919794	-0.5005539
1276877470307	4.6036777	9.575105	-5.6252036	2.2149715	0.0	-30.3125	2.0	53.4375	2.5496962	-0.48694012	-0.4481672
1276877470337	4.903325	8.281172	-6.2789803	1.6844769	0.0	-30.0625	4.0	54.4375	2.5217671	-0.5780836	-0.5345943
1276877470367	4.903325	4.7943625	-4.944186	-1.3524504	0.0	-29.0625	5.75	55.1875	2.5317454	-0.6246582	-0.7966336
1276877470407	5.407278	6.3198414	-4.2904096	-0.44787598	0.0	-28.3125	6.25	55.4375	2.6050904	-0.47623584	-0.70773816
1276877470447	3.636633	5.2165933	-5.8158884	-1.1890812	0.0	-27.5625	7.75	55.9375	2.4827895	-0.74081206	-0.60879576
1276877470487	2.3699405	5.8567495	-4.1814466	-2.230198	0.0	-26.8125	9.5	56.4375	2.5918043	-0.58464134	-0.38450956
1276877470527	1.1849703	7.273266	-2.7513103	-1.9406309	0.0	-26.3125	10.75	56.4375	2.6758163	-0.3573273	-0.16150238
1276877470567	2.4108016	6.510526	-8.62168	1.2627802	0.0	-25.0625	11.25	56.9375	2.505925	-0.89286685	-0.35463753
1276877470607	3.2961242	7.3549876	-8.580819	1.965806	0.0	-21.75	9.75	57.9375	2.600529	-0.81669843	-0.4213129
1276877470647	3.336985	6.4015636	-11.604536	3.8601246	0.0	-16.25	7.25	58.6875	2.6082318	-1.01429	-0.48052362
1276877470707	-0.61291564	7.205164	-9.193735	1.8901367	0.0	-1.0	-11.9375	45.875	3.0367165	-0.9043204	0.08486186
1276877470737	-2.4925237	6.4015636	-8.499097	1.1216316	0.0	7.9375	-13.6875	45.125	-2.992742	-0.8910238	0.37130195
1276877470767	-2.7921712	6.1291566	-8.240311	0.8359766	0.0	15.75	-14.9375	42.625	-2.5212734	-0.88556737	0.4274643
1276877470797	-1.920469	5.8976107	-7.6273947	0.02427864	0.0	20.75	-14.9375	40.875	-2.1455624	-0.88807225	0.31480622
1276877470827	-1.920469	5.8976107	-7.04172	-0.42284298	0.0	22.75	-14.6875	39.625	-2.118687	-0.8486849	0.31480622
1276877470857	-2.2201166	6.4424243	-6.5513873	-0.35390282	0.0	23.0	-13.6875	39.375	-2.25927	-0.765735	0.331864
1276877470897	-1.7978859	6.742072	-5.407278	-0.97904587	0.0	22.75	-12.6875	40.125	-2.404562	-0.6592725	0.26060238
1276877470927	-1.6480621	6.891896	-4.903325	-1.1894035	0.0	22.25	-12.125	40.125	-2.463027	-0.605305	0.23472261
1276877470957	-1.6480621	7.0553403	-4.5219555	-1.2660398	0.0	21.0	-11.8125	41.4375	-2.551669	-0.5579699	0.22947602
1276877470997	-1.9885708	7.43671	-5.5571017	-0.31241798	0.0	19.5	-12.0625	41.9375	-2.5660899	-0.62526655	0.26128623
1276877471037	-1.920469	7.8180795	-5.09401	-0.27987194	0.0	17.5	-12.625	41.9375	-2.6584005	-0.5641579	0.24087529
1276877471067	-1.0351465	7.246025	-4.7535014	-1.0789824	0.0	15.75	-13.625	42.6875	-2.6766458	-0.57596856	0.14189707
1276877471097	-0.88532263	7.246025	-5.597963	-0.607419	0.0	14.1875	-14.375	42.6875	-2.6691241	-0.6542006	0.12157786
1276877471137	-1.4573772	7.7363577	-5.47538	-0.21733475	0.0	12.6875	-15.625	43.1875	-2.7803798	-0.60770833	0.18619819
1276877471177	0.8036005	7.3141265	-6.4015636	-0.05358696	0.0	11.1875	-17.375	43.4375	-2.6119573	-0.71598965	-0.10943072
1276877471217	0.42223078	8.390134	-6.66035	0.9140253	0.0	10.1875	-18.125	42.9375	-2.687617	-0.67035246	-0.05028226
1276877471257	-0.7218784	7.668256	-5.325556	-0.44263363	0.0	9.6875	-18.625	42.6875	-2.824235	-0.6049556	0.09386192
1276877471297	-1.1168685	7.0553403	-4.8216033	-1.188467	0.0	9.4375	-18.625	42.1875	-2.8790567	-0.59374464	0.15699838
1276877471337	-0.8036005	6.932757	-5.434519	-0.9611492	0.0	8.9375	-18.125	42.1875	-2.836875	-0.6616028	0.11539856
1276877471367	-0.5720546	7.5865335	-6.742072	0.3588934	0.0	8.9375	-18.625	42.1875	-2.761656	-0.72512347	0.07526153
1276877471407	-0.61291564	7.4639506	-6.4015636	0.04556942	0.0	8.9375	-18.875	42.1875	-2.77835	-0.7072667	0.081932954
1276877471437	-0.88532263	7.5456724	-5.8976107	-0.18881416	0.0	8.9375	-19.125	42.4375	-2.8382125	-0.66009915	0.11679455
1276877471477	-0.7627395	7.273266	-5.8976107	-0.41175938	0.0	9.1875	-19.375	42.4375	-2.8049648	-0.67865497	0.104487
1276877471517	-1.0760075	7.9270425	-5.7477865	0.04387474	0.0	9.1875	-19.125	42.9375	-2.8659306	-0.6230324	0.13491426
1276877471557	-0.42223078	8.076866	-3.759216	-0.88780785	0.0	8.9375	-19.625	42.9375	-2.8879626	-0.43508944	0.052229017
1276877471597	0.313268	7.668256	-6.0474343	-0.03568554	0.0	9.4375	-20.375	42.4375	-2.6865377	-0.66736555	-0.040829875
1276877471637	-2.2201166	8.580819	-7.3549876	1.7109547	0.0	9.4375	-20.875	41.9375	-2.9261594	-0.6926601	0.25317824
1276877471677	-1.0760075	6.8237944	-6.2789803	-0.47136497	0.0	9.4375	-20.875	41.6875	-2.7787542	-0.73772645	0.15639688
1276877471717	0.46309182	6.66035	-3.1054392	-2.4433312	0.0	9.1875	-21.125	41.6875	-2.7922192	-0.4353684	-0.06941793
1276877471747	-0.46309182	7.9679036	-4.099725	-0.83393097	0.0	6.9375	-20.875	41.9375	-2.937413	-0.4745182	0.05805435
1276877471777	0.95342433	8.008764	-4.903325	-0.3677988	0.0	5.1875	-21.375	42.1875	-2.8473988	-0.5462461	-0.118489966
1276877471817	0.84446156	9.234595	-4.440233	0.4747181	0.0	2.125	-22.875	41.1875	-2.9894843	-0.4465671	-0.091191806
1276877471847	0.6537767	9.384419	-3.8273177	0.3492899	0.0	-0.875	-24.875	39.9375	-3.1106133	-0.3863987	-0.0695538
1276877471887	0.84446156	8.730643	-4.671779	0.1312952	0.0	-2.625	-27.375	37.6875	-3.140476	-0.48939848	-0.09642392
1276877471927	-0.6946377	8.471856	-3.445948	-0.6344404	0.0	-4.625	-29.375	34.875	2.8259058	-0.38514593	0.081810564
1276877471968	-0.53119355	8.158588	-1.1168685	-1.5548553	0.0	-5.6875	-31.625	32.375	2.8708963	-0.13576525	0.06501674
1276877472007	0.46309182	8.771504	-0.6537767	-0.99863243	0.0	-5.9375	-33.625	29.125	2.9861798	-0.0742935	-0.052746058
1276877472047	-0.9942854	9.112013	-0.08172209	-0.6401863	0.0	-5.4375	-35.875	26.375	2.7989318	-0.008915452	0.10868807
1276877472087	-1.879608	8.240311	0.95342433	-1.3010836	0.0	-3.625	-38.4375	22.375	2.7115874	0.11233025	0.22426231
1276877472117	-2.7240696	7.4639506	0.53119355	-1.8434048	0.0	-1.625	-40.6875	18.875	2.514267	0.066755235	0.34994265
1276877472157	-3.0645783	8.430995	1.5390993	-0.7048845	0.0	0.625	-42.4375	15.875	2.5864205	0.16991542	0.34864128
1276877472197	-1.4982382	10.18802	0.8036005	0.52225304	0.0	2.375	-42.9375	13.125	2.908508	0.077879846	0.14601226
1276877472237	-3.718355	10.991621	1.56634	1.9021206	0.0	3.875	-43.4375	12.3125	2.620924	0.13417718	0.32620487
1276877472277	-4.3312707	8.390134	1.920469	-0.17117119	0.0	4.125	-43.6875	11.3125	2.4354439	0.20065604	0.47655016
1276877472317	-3.9771416	6.742072	0.8036005	-1.9377894	0.0	4.375	-43.4375	11.0625	2.2590842	0.10230247	0.5329592
1276877472357	-2.9556155	11.073342	1.56634	1.76089	0.0	4.875	-43.6875	10.8125	2.7654178	0.13582547	0.26083207
1276877472397	-3.9771416	12.489859	1.5390993	3.3911924	0.0	4.875	-43.1875	10.8125	2.6476836	0.11688345	0.30827782
1276877472427	-3.1054392	9.384419	1.920469	0.26307106	0.0	5.6875	-43.1875	11.0625	2.73595	0.1918927	0.3195719
1276877472457	-2.9147544	8.853226	1.1168685	-0.41927528	0.0	5.6875	-43.1875	10.8125	2.6684203	0.11925808	0.31805372
1276877472497	-2.5333846	8.730643	1.7297841	-0.5527687	0.0	5.6875	-42.9375	10.8125	2.8056707	0.1880313	0.2824157
1276877472537	-4.9850473	8.158588	1.7978859	-0.07805061	0.0	4.875	-43.4375	10.0625	2.3203747	0.1858726	0.5484819
1276877472577	-3.214402	8.471856	1.6480621	-0.5968275	0.0	4.625	-43.4375	8.8125	2.5424073	0.17991519	0.36264116
1276877472617	-3.8681788	8.308413	2.070293	-0.41097927	0.0	5.1875	-43.6875	8.3125	2.4710045	0.22216858	0.43572932
1276877472657	-3.214402	4.630918	1.334794	-4.013598	0.0	5.1875	-44.4375	7.5625	2.233561	0.232502	0.6067672
1276877472697	-3.214402	6.4015636	0.23154591	-2.6396418	0.0	5.9375	-44.4375	7.5625	2.1185656	0.032312814	0.46534827
1276877472727	-3.9771416	10.419566	1.1168685	1.4019365	0.0	6.4375	-44.1875	8.3125	2.4838796	0.09980964	0.3646311
1276877472757	-4.440233	12.340035	2.3426998	3.5155258	0.0	6.1875	-43.9375	9.3125	2.6474369	0.17676878	0.3453992
1276877472787	-4.4810944	10.991621	1.1849703	2.1223106	0.0	5.4375	-43.4375	10.5625	2.483851	0.09949968	0.38711184
1276877472827	-3.5957718	6.851035	0.6537767	-2.0417495	0.0	4.125	-43.4375	11.5625	2.3049593	0.0842962	0.48333007
1276877472857	-2.4108016	8.730643	0.23154591	-0.7463131	0.0	1.375	-42.9375	12.3125	2.4946742	0.025558777	0.26941743
1276877472887	0.3405087	9.724928	-0.14982383	-0.07460976	0.0	-2.375	-42.4375	12.875	3.0690033	-0.015395513	-0.03499971
1276877472927	1.9885708	9.084772	1.1441092	-0.4366722	0.0	-6.9375	-41.4375	13.875	-3.0317714	0.122409195	-0.21549183
1276877472957	3.1463003	11.304889	1.4165162	2.0130882	0.0	-11.9375	-39.9375	14.875	3.101525	0.120132014	-0.2714439
1276877472997	4.5219555	11.304889	0.6946377	2.3888865	0.0	-15.75	-38.4375	16.125	3.1227384	0.056989197	-0.3805064
1276877473037	2.7240696	9.112013	0.5720546	-0.2789755	0.0	-18.25	-37.375	16.875	2.803896	0.0600775	-0.29049656
1276877473067	2.7649305	9.112013	0.53119355	-0.26957607	0.0	-19.5	-36.875	17.125	2.7521768	0.055726584	-0.29460788
1276877473097	2.5606253	9.193735	0.53119355	-0.24821281	0.0	-18.6875	-41.625	15.75	2.7829769	0.05560191	-0.2716344
1276877473137	2.5606253	9.302697	0.46309182	-0.14686584	0.0	-18.4375	-41.625	15.75	2.7818048	0.047958564	-0.26860443
1276877473177	2.5606253	9.275456	0.50395286	-0.17104626	0.0	-18.9375	-41.125	16.0	2.7617986	0.052324995	-0.26935568
1276877473217	1.879608	8.812365	0.7218784	-0.7671919	0.0	-18.9375	-40.875	16.25	2.672222	0.07994372	-0.21014318
1276877473267	3.3778462	9.615966	-0.10896278	0.38592148	0.0	-18.6875	-40.875	16.0	2.8842626	-0.0106906155	-0.33781004
1276877473307	3.718355	9.888372	0.5720546	0.77320385	0.0	-18.6875	-41.375	16.0	2.9839587	0.054096565	-0.35967603
1276877473337	2.9556155	9.152874	0.3405087	-0.18237305	0.0	-18.4375	-41.625	15.25	2.8664653	0.035387572	-0.31234643
1276877473367	2.8330324	9.193735	0.27240697	-0.18245983	0.0	-18.9375	-41.875	15.0	2.8012762	0.028308185	-0.2989153
1276877473397	2.3426998	9.193735	0.50395286	-0.30575657	0.0	-19.1875	-41.625	15.0	2.6951187	0.053067584	-0.24950509
1276877473427	2.5333846	9.343558	0.5720546	-0.10884857	0.0	-19.6875	-41.125	15.0	2.7041626	0.059022333	-0.26477128
1276877473457	2.4108016	9.507003	0.6537767	0.023023605	0.0	-19.6875	-41.125	15.0	2.7041626	0.059022333	-0.26477128
1276877473497	2.4108016	9.466142	0.61291564	-0.019134521	0.0	-19.4375	-40.875	15.0	2.6837022	0.06266319	-0.249375
1276877473537	2.3426998	9.343558	0.3405087	-0.16786098	0.0	-19.4375	-41.125	14.75	2.6445117	0.03533427	-0.24566454
1276877473577	2.1792557	9.302697	0.313268	-0.24697113	0.0	-19.1875	-41.375	14.75	2.6231751	0.03277559	-0.23011117
1276877473617	2.1792557	9.384419	0.7627395	-0.14237309	0.0	-18.9375	-41.625	15.5	2.6976776	0.07900576	-0.22817641
1276877473657	2.9556155	9.234595	-0.14982383	-0.10944176	0.0	-19.1875	-41.625	15.75	2.7860923	-0.015450817	-0.3097565
1276877473697	2.3018389	9.507003	0.040861044	-0.024868965	0.0	-19.1875	-41.125	16.25	2.6419563	0.0041772723	-0.23754889
1276877473737	2.8330324	9.193735	-0.0	-0.18631554	0.0	-19.1875	-40.875	17.25	2.7914448	-0.0	-0.29891527
1276877473767	2.6832085	9.193735	0.14982383	-0.22819424	0.0	-18.9375	-40.375	17.25	2.7759454	0.01564239	-0.28396475
1276877473807	3.6774938	9.847511	-0.61291564	0.72297955	0.0	-17.9375	-40.375	18.25	2.972077	-0.05824158	-0.3574058
1276877473837	3.445948	9.615966	-0.08172209	0.40843773	0.0	-17.4375	-41.125	19.25	3.0078566	-0.008000221	-0.34410024
1276877473867	1.4573772	8.853226	0.7627395	-0.80191135	0.0	-17.4375	-40.875	18.75	2.699764	0.08480585	-0.16315217
1276877473907	1.7570249	9.302697	0.23154591	-0.33664894	0.0	-17.6875	-41.125	18.5	2.679321	0.024452899	-0.18667363
1276877473937	2.3018389	9.466142	0.27240697	-0.060855865	0.0	-18.1875	-41.125	17.75	2.7446885	0.027954873	-0.23853591
1276877473967	2.6423476	9.302697	0.50395286	-0.122841835	0.0	-18.6875	-41.125	16.5	2.7974055	0.05206429	-0.276752
1276877474007	3.1463003	9.275456	-0.040861044	-0.012009621	0.0	-18.4375	-41.875	16.25	2.8969703	-0.004171788	-0.3270276
1276877474047	3.1463003	9.112013	0.3405087	-0.16072178	0.0	-18.4375	-41.875	16.5	2.9367354	0.035308104	-0.332474
1276877474087	3.0237172	9.084772	0.53119355	-0.21717072	0.0	-18.6875	-42.375	16.0	2.9110532	0.055421736	-0.3213007
1276877474127	2.4925237	9.507003	0.6537767	0.043385506	0.0	-18.6875	-42.125	16.25	2.7746012	0.06642186	-0.25640672
1276877474167	2.2201166	9.575105	0.9942854	0.072628975	0.0	-18.9375	-41.875	16.25	2.7319446	0.10081421	-0.22783746
1276877474207	2.4925237	9.384419	1.0760075	-0.037423134	0.0	-18.9375	-41.875	16.0	2.7947226	0.11036646	-0.25960842
1276877474247	2.6423476	9.384419	1.4982382	0.057124138	0.0	-18.6875	-41.375	15.75	2.8477418	0.15248321	-0.27446166
1276877474277	2.6832085	9.425281	1.607201	0.1240406	0.0	-18.4375	-41.375	15.5	2.8649087	0.16255678	-0.2773451
1276877474317	2.5606253	9.343558	1.4165162	-0.015563011	0.0	-18.4375	-41.375	14.75	2.8274696	0.14518355	-0.2674851
1276877474347	2.4108016	9.343558	0.88532263	-0.11655998	0.0	-18.1875	-41.625	14.75	2.7750676	0.0914913	-0.25251022
1276877474387	2.6014864	9.534244	0.9942854	0.12602997	0.0	-18.1875	-41.875	15.25	2.8217804	0.10027036	-0.26637292
1276877474417	2.7649305	9.466142	1.3756552	0.15051365	0.0	-18.4375	-41.875	15.25	2.8697338	0.13860066	-0.28418082
1276877474457	2.7649305	9.384419	1.2666923	0.058271408	0.0	-18.1875	-41.875	15.5	2.8827147	0.12875916	-0.28652284
1276877474497	2.6832085	9.343558	0.61291564	-0.06614971	0.0	-18.1875	-42.125	15.25	2.8285272	0.06296605	-0.27964684
1276877474547	2.3699405	9.275456	0.8036005	-0.19954395	0.0	-18.1875	-41.875	15.0	2.7718167	0.08374432	-0.2501546
1276877474587	2.2609777	9.302697	0.7627395	-0.20279789	0.0	-17.9375	-41.625	14.5	2.7421603	0.07950389	-0.23842253
1276877474627	2.6423476	9.302697	0.313268	-0.13089085	0.0	-17.9375	-42.125	14.75	2.8010495	0.03238224	-0.276752
1276877474667	2.4925237	9.302697	0.46309182	-0.16469479	0.0	-18.1875	-42.125	14.75	2.76618	0.04804731	-0.2617867
1276877474707	2.3018389	9.302697	0.6537767	-0.201128	0.0	-17.9375	-42.625	14.25	2.7490284	0.06811525	-0.24256572
1276877474737	2.4925237	9.275456	0.38136974	-0.19456387	0.0	-17.9375	-42.875	14.25	2.7735052	0.03968648	-0.26252073
1276877474767	2.6423476	9.234595	0.19068487	-0.19956398	0.0	-17.9375	-43.125	14.0	2.7953613	0.01984966	-0.27868924
1276877474807	2.6423476	9.234595	0.23154591	-0.19866562	0.0	-18.1875	-42.875	14.25	2.78676	0.024101656	-0.27868924
1276877474847	2.6014864	9.302697	0.53119355	-0.13245392	0.0	-18.4375	-42.875	14.25	2.786948	0.054935914	-0.27268285
1276877474887	2.5333846	9.425281	0.6537767	-0.024964333	0.0	-18.6875	-42.875	14.25	2.7613919	0.06688667	-0.2625801
1276877474917	2.4108016	9.343558	0.6537767	-0.13496685	0.0	-18.6875	-42.375	14.25	2.732267	0.06764858	-0.2525102
1276877474947	2.5333846	9.302697	0.6946377	-0.14017582	0.0	-18.1875	-42.625	13.5	2.7795913	0.071922496	-0.26588035
1276877474987	2.4925237	9.384419	0.7627395	-0.06694889	0.0	-17.6875	-42.375	13.75	2.7960565	0.07839268	-0.25960845
1276877475027	2.4516625	9.384419	0.7627395	-0.07732582	0.0	-17.4375	-42.125	14.25	2.8043087	0.078476466	-0.25553682
1276877475057	2.6423476	9.343558	0.7627395	-0.066740036	0.0	-17.6875	-42.125	14.25	2.8383255	0.07839099	-0.2756022
1276877475088	2.6423476	9.275456	0.84446156	-0.12526512	0.0	-18.1875	-41.875	14.75	2.829279	0.087336265	-0.27752373
1276877475127	2.6832085	9.234595	0.84446156	-0.15312958	0.0	-18.6875	-41.625	14.5	2.8101535	0.087589	-0.28277436
1276877475157	2.7649305	9.275456	0.95342433	-0.08101559	0.0	-18.9375	-41.875	14.25	2.8212566	0.09818979	-0.28970453
1276877475187	2.6423476	9.193735	0.95342433	-0.19333744	0.0	-18.9375	-42.125	14.0	2.8000085	0.09934081	-0.27986428
1276877475227	2.6014864	9.234595	0.88532263	-0.17185497	0.0	-18.9375	-42.125	13.5	2.7733958	0.09201786	-0.27459455
1276877475257	2.5606253	9.275456	1.0760075	-0.12425995	0.0	-19.4375	-42.125	13.5	2.755266	0.11136038	-0.2693557
1276877475287	2.4516625	9.343558	1.2258313	-0.069330215	0.0	-19.4375	-42.375	13.25	2.7395897	0.12622492	-0.25660604
1276877475327	2.3018389	9.234595	1.3756552	-0.19058895	0.0	-19.9375	-41.875	13.0	2.6974118	0.14355059	-0.24428448
1276877475367	2.1111538	9.302697	1.4165162	-0.16280937	0.0	-19.6875	-42.125	13.25	2.6784964	0.14741635	-0.22316016
1276877475407	2.0294318	9.275456	1.4165162	-0.20669174	0.0	-19.1875	-42.375	13.5	2.6918297	0.14809516	-0.2154015
1276877475437	2.1111538	9.425281	1.3756552	-0.050354004	0.0	-19.1875	-42.125	13.5	2.692635	0.14147325	-0.22035141
1276877475477	2.3426998	9.302697	1.334794	-0.12108898	0.0	-18.4375	-42.125	13.75	2.776603	0.13825278	-0.24670042
1276877475517	2.4516625	9.302697	1.1168685	-0.121702194	0.0	-18.4375	-41.875	14.25	2.78759	0.11557717	-0.25768402
1276877475557	2.6832085	9.343558	0.9942854	-0.034736633	0.0	-18.1875	-41.875	14.5	2.8398726	0.1019257	-0.27964684
1276877475597	2.8738933	9.302697	0.8036005	-0.03704357	0.0	-17.9375	-41.875	14.5	2.8845427	0.08234819	-0.29963028
1276877475637	2.9556155	9.302697	0.6537767	-0.023845673	0.0	-17.6875	-42.125	15.0	2.9176366	0.06687901	-0.3076297
1276877475677	3.0645783	9.384419	0.27240697	0.06923866	0.0	-16.9375	-42.375	15.0	2.9622297	0.02758653	-0.31564245
1276877475717	2.9556155	9.343558	0.84446156	0.029551506	0.0	-16.6875	-42.375	14.25	2.9703248	0.08595821	-0.30636716
1276877475747	3.1054392	9.084772	0.313268	-0.20066357	0.0	-16.6875	-42.375	14.25	2.9703248	0.08595821	-0.30636716
1276877475777	2.7649305	9.275456	0.42223078	-0.11865711	0.0	-17.1875	-42.875	14.5	2.8908885	0.043596704	-0.28970453
1276877475827	2.5606253	9.275456	0.42223078	-0.17497444	0.0	-17.1875	-43.125	14.5	2.8424249	0.04385178	-0.2693557
1276877475857	2.4516625	9.302697	0.46309182	-0.17517662	0.0	-17.4375	-43.375	15.25	2.8205068	0.04809964	-0.25768402
1276877475887	2.5333846	9.384419	0.42223078	-0.07712555	0.0	-17.4375	-43.375	15.75	2.83956	0.04341049	-0.26367125
1276877475927	2.6832085	9.425281	0.3405087	-9.651184E-4	0.0	-17.1875	-42.875	15.5	2.8681881	0.03473262	-0.2773451
1276877475957	2.8738933	9.302697	0.313268	-0.06511116	0.0	-17.1875	-42.375	15.25	2.9114716	0.032163505	-0.29963028
1276877475997	2.8330324	9.234595	0.46309182	-0.13616562	0.0	-16.6875	-41.875	15.0	2.9304795	0.04790546	-0.2976696
1276877476037	2.7240696	9.193735	0.92618364	-0.17321205	0.0	-16.6875	-42.125	14.5	2.9299796	0.096291326	-0.28805545
1276877476067	2.4925237	9.275456	1.0760075	-0.14204693	0.0	-16.6875	-42.125	14.75	2.8839164	0.111566186	-0.26252073
1276877476097	2.1111538	9.302697	1.334794	-0.17447376	0.0	-17.6875	-42.375	14.75	2.7810585	0.13902399	-0.22316018
1276877476137	1.5390993	9.425281	1.607201	-0.12223816	0.0	-18.1875	-42.375	14.75	2.6730642	0.16672893	-0.16186616
1276877476177	1.2258313	9.575105	1.6480621	-0.013724327	0.0	-18.4375	-42.125	15.75	2.6282485	0.16909578	-0.12733012
1276877476217	1.7978859	9.534244	1.2258313	-0.027240753	0.0	-18.6875	-42.125	15.75	2.6804514	0.1256788	-0.18638279
1276877476257	2.6832085	9.343558	0.7218784	-0.058686256	0.0	-18.4375	-42.125	16.0	2.8362098	0.07412213	-0.27964684
1276877476287	3.1463003	9.656827	2.2609777	0.598423	0.0	-18.4375	-42.375	16.25	2.9729164	0.21904312	-0.31496522
1276877476327	3.214402	10.651112	-3.5276701	1.864811	0.0	-18.1875	-42.375	14.75	1.6114744	-0.30704957	-0.29309845
1276877476370	4.399372	7.273266	6.701211	1.0174475	0.0	-17.4375	-42.625	14.5	-2.9629936	0.66759753	-0.54399186
1276877476407	1.879608	9.234595	-0.0	-0.38270855	0.0	-17.1875	-42.125	14.25	2.6068516	-0.0	-0.20079692
1276877476437	2.4108016	10.038197	-1.6889231	0.6542206	0.0	-17.4375	-42.125	13.75	2.2952173	-0.16216126	-0.23569892
1276877476477	2.3018389	9.343558	1.56634	-0.0570879	0.0	-17.9375	-42.125	14.5	2.8136153	0.16135673	-0.24154581
1276877476517	2.1111538	9.507003	1.1849703	0.0037641525	0.0	-18.6875	-42.125	14.25	2.7064962	0.12108262	-0.21851724
1276877476557	1.879608	9.302697	1.2666923	-0.23180771	0.0	-18.9375	-42.625	14.0	2.671119	0.13268277	-0.19936574
1276877476597	1.7978859	9.343558	0.6946377	-0.2663679	0.0	-18.4375	-42.375	14.0	2.6118705	0.07287551	-0.19009642
1276877476637	2.6832085	9.384419	0.6946377	-0.021485329	0.0	-17.6875	-42.625	14.0	2.8436258	0.07104862	-0.27849135
1276877476677	2.9147544	9.425281	1.2258313	0.13489723	0.0	-17.6875	-42.625	13.75	2.922263	0.12361848	-0.29991993
1276877476717	2.7649305	9.234595	0.53119355	-0.15238857	0.0	-17.4375	-42.625	14.25	2.8803248	0.055049464	-0.29091543
1276877476747	2.6423476	9.343558	0.50395286	-0.083581924	0.0	-17.9375	-43.125	14.25	2.8209128	0.051853877	-0.2756022
1276877476777	2.9147544	9.112013	0.6946377	-0.21461678	0.0	-17.9375	-42.875	14.0	2.91338	0.07248164	-0.30959445
1276877476817	2.7921712	9.302697	0.6946377	-0.06914997	0.0	-18.1875	-42.625	14.25	2.8545263	0.07139699	-0.2915911
1276877476847	2.8738933	9.275456	0.88532263	-0.055898666	0.0	-18.1875	-42.375	13.5	2.8737924	0.09092054	-0.3004583
1276877476877	2.5333846	9.425281	0.92618364	-0.0029888153	0.0	-17.625	-42.625	13.3125	2.8148036	0.09461434	-0.2625801
1276877476917	2.3018389	9.302697	0.8036005	-0.18976879	0.0	-17.625	-42.625	13.3125	2.8148036	0.09461434	-0.2625801
1276877476947	2.1792557	9.384419	0.88532263	-0.13192654	0.0	-17.875	-42.375	13.0625	2.7135782	0.09163702	-0.22817641
1276877476977	2.1792557	9.507003	0.9942854	-0.0025253296	0.0	-18.0625	-42.0625	13.6875	2.7175994	0.10158966	-0.22533351
1276877477017	2.152015	9.466142	1.0351465	-0.043938637	0.0	-18.8125	-41.5625	13.9375	2.6852152	0.10623032	-0.2235388
1276877477057	1.879608	9.466142	0.8036005	-0.12230492	0.0	-18.8125	-42.0625	13.9375	2.6142104	0.08307486	-0.19601168
1276877477087	1.7297841	9.425281	0.8036005	-0.19031811	0.0	-17.8125	-42.3125	13.9375	2.6308336	0.08366378	-0.18150617
1276877477117	2.070293	9.507003	0.84446156	-0.040262222	0.0	-18.0625	-42.8125	13.9375	2.6950455	0.08657422	-0.21441753
1276877477157	2.4108016	9.384419	0.8036005	-0.0842495	0.0	-18.0625	-42.8125	14.1875	2.7771943	0.08274894	-0.2514566
1276877477197	2.4925237	9.275456	0.88532263	-0.16141415	0.0	-18.5625	-42.0625	14.1875	2.7757134	0.09191798	-0.26252073
1276877477237	2.3018389	9.384419	0.92618364	-0.09976578	0.0	-19.0625	-41.8125	13.6875	2.6965585	0.095560506	-0.24053426
1276877477267	2.2609777	9.425281	0.92618364	-0.06982517	0.0	-18.5625	-41.5625	13.1875	2.6935613	0.09526577	-0.23543566
1276877477307	2.3699405	9.425281	0.84446156	-0.051362038	0.0	-18.0625	-41.3125	12.6875	2.7175913	0.08667298	-0.2463383
1276877477347	2.4925237	9.302697	0.7627395	-0.14566517	0.0	-18.3125	-41.5625	12.6875	2.7370849	0.079032734	-0.2617867
1276877477377	2.4516625	9.193735	0.84446156	-0.254241	0.0	-18.3125	-41.8125	13.4375	2.7625144	0.088518545	-0.26060238
1276877477407	2.7240696	9.302697	1.6480621	0.025788307	0.0	-18.5625	-41.5625	13.6875	2.858079	0.16840973	-0.284862
1276877477437	2.4925237	9.656827	0.42223078	0.17559719	0.0	-19.8125	-41.5625	13.4375	2.620854	0.04231079	-0.2525969
1276877477467	1.6480621	9.384419	-0.08172209	-0.278265	0.0	-19.5625	-41.3125	13.1875	2.3837512	-0.008576804	-0.17384411
1276877477507	2.152015	9.507003	1.9477097	0.13356304	0.0	-20.3125	-41.0625	12.9375	2.6764777	0.19721843	-0.22260952
1276877477547	2.9147544	9.043911	1.6480621	-0.16277981	0.0	-20.5625	-41.5625	12.9375	2.821591	0.17173511	-0.31177807
1276877477587	1.607201	9.275456	0.88532263	-0.35144043	0.0	-20.0625	-41.3125	13.1875	2.5067358	0.09377067	-0.17157105
1276877477627	1.4573772	9.888372	1.56634	0.31052685	0.0	-20.75	-41.6875	12.75	2.5026295	0.15544511	-0.14632948
1276877477667	2.6832085	9.275456	1.3756552	-0.053387642	0.0	-20.25	-41.6875	12.75	2.7501814	0.14151753	-0.2815936
1276877477707	2.8330324	9.193735	0.9942854	-0.13507175	0.0	-20.5	-41.1875	12.1875	2.7233853	0.10298683	-0.2989153
1276877477747	2.6014864	9.343558	1.0351465	-0.05260849	0.0	-20.25	-41.6875	11.6875	2.6732671	0.1063251	-0.2715482
1276877477777	2.4108016	9.343558	1.3756552	-0.059523582	0.0	-20.25	-40.9375	11.9375	2.6640546	0.14160721	-0.25251022
1276877477817	2.5333846	9.234595	1.3756552	-0.13255024	0.0	-20.75	-41.1875	11.6875	2.6728344	0.14268346	-0.26774904
1276877477847	2.6832085	9.302697	1.1168685	-0.060513496	0.0	-20.75	-41.4375	11.4375	2.6701813	0.11484834	-0.28081176
1276877477877	2.6832085	9.425281	1.1168685	0.056560516	0.0	-21.0	-41.6875	11.4375	2.653805	0.1134792	-0.2773451
1276877477917	2.6832085	9.302697	1.3756552	-0.027478218	0.0	-20.25	-41.9375	10.6875	2.7106237	0.14114009	-0.28081173
1276877477947	2.5333846	9.275456	1.4573772	-0.08162689	0.0	-20.0	-41.9375	10.1875	2.6883328	0.15042514	-0.26662478
1276877477987	2.4516625	9.275456	1.3075534	-0.1239624	0.0	-20.5	-41.6875	9.6875	2.6144805	0.13545418	-0.25840762
1276877478027	2.4925237	9.384419	1.0760075	-0.037423134	0.0	-20.75	-41.4375	9.4375	2.5617063	0.11036646	-0.25960842
1276877478067	2.152015	9.302697	0.9942854	-0.2066536	0.0	-21.5	-41.9375	9.6875	2.4668646	0.1037575	-0.22733344
1276877478107	2.3699405	9.466142	1.5390993	0.072280884	0.0	-21.75	-42.4375	9.4375	2.563987	0.15643339	-0.24531719
1276877478147	2.2201166	9.275456	1.6480621	-0.12785244	0.0	-21.0	-42.6875	9.4375	2.594117	0.17110924	-0.23493396
1276877478187	2.1792557	9.234595	1.2666923	-0.2342205	0.0	-21.0	-42.6875	8.9375	2.5247278	0.1327164	-0.23174825
1276877478227	2.7649305	9.466142	0.88532263	0.09468746	0.0	-21.5	-42.4375	8.4375	2.5346148	0.08953402	-0.28418082
1276877478267	3.2961242	9.507003	0.61291564	0.27418327	0.0	-21.5	-42.4375	6.9375	2.5617578	0.060837615	-0.33373627
1276877478307	3.759216	8.580819	-0.50395286	-0.42495918	0.0	-22.25	-42.6875	5.6875	2.3323896	-0.053742502	-0.41290992
1276877478347	7.43671	7.6954966	-2.5333846	1.1907749	0.0	-23.0	-42.6875	4.6875	-1.1300018	-0.2324493	-0.76829815
1276877478377	-5.8567495	14.47843	5.5571017	6.7706795	0.0	-23.5	-42.1875	2.9375	1.9018164	0.34184188	0.38439298
1276877478407	0.53119355	10.841797	0.88532263	1.0841951	0.0	-24.25	-41.1875	1.1875	1.7761079	0.08138033	-0.048955828
1276877478437	4.2086873	8.049625	-0.040861044	-0.72308254	0.0	-24.75	-40.6875	-0.8125	1.2492701	-0.004498363	-0.4817543
1276877478467	3.2961242	8.662541	2.7240696	-0.14618397	0.0	-25.0625	-40.1875	-3.3125	2.3978436	0.28585845	-0.3635866
1276877478507	3.5276701	9.112013	2.7649305	0.3480568	0.0	-25.3125	-39.9375	-5.3125	2.256595	0.27576247	-0.3693756
1276877478547	1.4165162	7.7363577	3.486809	-1.2034187	0.0	-26.0625	-39.6875	-7.0625	2.1181412	0.41729674	-0.18109266
1276877478587	1.4982382	8.962189	3.486809	-0.074056625	0.0	-27.0625	-38.9375	-9.0625	1.8987164	0.36640465	-0.16564153
1276877478627	3.486809	9.275456	3.990762	0.8759575	0.0	-27.3125	-37.375	-11.5625	2.0167089	0.38286075	-0.35957506
1276877478667	2.6423476	8.008764	4.140586	-0.41161156	0.0	-27.3125	-36.125	-14.375	1.9595177	0.45640114	-0.31868625
1276877478707	1.6889231	8.390134	3.2961242	-0.63543224	0.0	-26.5625	-34.625	-16.875	1.484373	0.3676235	-0.19864401
1276877478747	1.334794	9.466142	3.0645783	0.23233223	0.0	-25.3125	-33.125	-19.125	1.2355846	0.31021968	-0.14008364
1276877478777	1.334794	10.528529	3.7864566	1.4613953	0.0	-24.25	-32.875	-21.375	1.182584	0.3427038	-0.12610602
1276877478817	2.0294318	9.275456	3.9090397	0.461421	0.0	-22.75	-32.625	-23.625	1.0948422	0.3905516	-0.2154015
1276877478847	1.56634	8.499097	4.7943625	0.07636452	0.0	-21.25	-31.875	-25.375	1.2446647	0.50649047	-0.18224989
1276877478877	1.2666923	9.275456	5.053149	0.83162594	0.0	-20.0	-31.875	-27.625	1.0932431	0.4949606	-0.13572429
1276877478917	0.42223078	8.430995	4.903325	-0.044347763	0.0	-18.5	-32.125	-29.125	1.0991368	0.5262235	-0.050038967
1276877478947	-0.5720546	6.5922484	5.8567495	-0.9699936	0.0	-17.25	-32.375	-30.125	1.4626681	0.7245238	0.08656002
1276877478977	-0.040861044	6.0474343	7.0553403	-0.5141287	0.0	-16.25	-33.625	-31.375	1.8669192	0.8621588	0.006756655
1276877479007	1.2666923	6.2789803	7.014479	-0.30754375	0.0	-14.9375	-34.375	-31.875	2.1881886	0.8307476	-0.1990636
1276877479047	2.6423476	7.205164	6.701211	0.38170624	0.0	-13.4375	-34.375	-32.125	1.6628017	0.71780425	-0.35150033
1276877479077	4.099725	9.847511	5.938472	2.4018164	0.0	-12.4375	-34.375	-32.125	-0.16626644	0.5079904	-0.39449644
1276877479117	2.5333846	9.956474	2.9147544	0.87254524	0.0	-11.4375	-34.875	-31.875	0.119624734	0.2764453	-0.2491587
1276877479157	2.0294318	9.534244	0.3405087	-0.052864075	0.0	-10.4375	-35.375	-31.125	0.095076256	0.034917507	-0.20972706
1276877479197	3.5276701	10.079058	1.7978859	1.022212	0.0	-9.9375	-36.875	-30.125	-0.11926372	0.16679959	-0.3366748
1276877479237	0.50395286	11.413852	2.1111538	1.811738	0.0	-9.6875	-38.4375	-29.125	0.35422468	0.18272306	-0.044124085
1276877479267	-0.8036005	10.991621	2.6014864	1.5171852	0.0	-9.6875	-39.4375	-27.375	0.6144562	0.23180585	0.07298043
1276877479297	1.2258313	8.730643	1.7570249	-0.8169937	0.0	-9.1875	-40.6875	-25.625	0.19964455	0.19671589	-0.13949373
1276877479337	2.7649305	6.510526	1.1168685	-2.6457014	0.0	-8.6875	-41.6875	-24.125	-0.4469433	0.15660591	-0.4016048
1276877479377	1.4982382	7.8589406	2.3699405	-1.462534	0.0	-8.1875	-42.6875	-22.625	0.0052017984	0.28798977	-0.18838078
1276877479407	2.2609777	8.19945	2.6423476	-0.90019226	0.0	-7.1875	-43.6875	-21.375	-0.5673547	0.30121183	-0.26906103
1276877479437	1.8387469	8.430995	2.4925237	-0.8247051	0.0	-7.1875	-44.4375	-20.625	-0.32166958	0.28119484	-0.21473129
1276877479467	1.1441092	8.771504	2.3426998	-0.6558838	0.0	-7.4375	-45.1875	-19.375	0.2149095	0.25889376	-0.12970254
1276877479507	0.6946377	8.240311	1.4982382	-1.4024868	0.0	-7.1875	-45.6875	-18.375	0.3252817	0.17923138	-0.08409869
1276877479547	0.5720546	9.466142	2.152015	-0.08213234	0.0	-7.1875	-46.1875	-17.375	0.5835991	0.22314513	-0.060358252
1276877479587	-0.42223078	12.14935	2.4925237	2.602929	0.0	-7.1875	-47.1875	-16.375	0.92709625	0.20223044	0.034739383
1276877479627	-0.6537767	12.026767	2.6832085	2.5331287	0.0	-7.4375	-47.4375	-15.125	1.1437553	0.21919484	0.054306686
1276877479667	-1.3756552	13.021052	1.3756552	3.3589363	0.0	-7.4375	-48.1875	-13.875	0.95192164	0.104679786	0.105258085
1276877479707	2.3699405	12.340035	0.9942854	2.7981787	0.0	-6.9375	-48.1875	-13.375	-0.2351598	0.07896334	-0.18974265
1276877479747	6.782933	9.915613	-0.29964766	2.2107267	0.0	-5.9375	-47.9375	-13.625	-0.985478	-0.024937117	-0.59995174
1276877479777	4.5628166	10.691973	0.23154591	1.8205242	0.0	-4.375	-47.6875	-14.875	-0.81083965	0.01991552	-0.40335336
1276877479817	2.0294318	11.727119	0.08172209	2.0950556	0.0	-3.125	-47.1875	-17.125	-0.2874486	0.006866472	-0.17135744
1276877479857	1.3075534	11.413852	-0.14982383	1.6828308	0.0	-2.625	-46.4375	-20.125	-0.12844731	-0.013040457	-0.114061244
1276877479887	-0.08172209	11.141444	-0.23154591	1.3374996	0.0	-2.125	-44.4375	-23.875	0.09853447	-0.020778848	0.0073348326
1276877479927	1.2666923	10.038197	-0.3405087	0.31687927	0.0	-2.625	-42.6875	-26.875	-0.096530825	-0.03364172	-0.12552379
1276877479957	2.4516625	6.701211	0.14982383	-2.6694713	0.0	-3.875	-40.4375	-30.125	-0.33673102	0.020993566	-0.35072795
1276877479997	2.2609777	4.2904096	1.6889231	-4.671273	0.0	-5.1875	-37.9375	-33.375	-0.5870951	0.33511743	-0.48500112
1276877480037	1.4573772	5.053149	2.8330324	-3.833013	0.0	-7.4375	-35.875	-35.125	-0.20273249	0.4941186	-0.28078985
1276877480067	1.7978859	5.012288	3.405087	-3.4860454	0.0	-8.9375	-33.625	-37.125	-0.22924107	0.56892663	-0.34440038
1276877480097	1.7570249	4.7535014	4.7535014	-2.8583636	0.0	-10.1875	-31.875	-37.9375	-0.30203173	0.7534043	-0.35405225
1276877480137	0.3405087	7.9270425	7.5865335	1.1710291	0.0	-11.6875	-31.375	-37.125	1.1339638	0.76299214	-0.042928934
1276877480177	-0.10896278	12.9529505	8.539958	5.708558	0.0	-12.1875	-30.625	-36.375	0.74219793	0.5828731	0.008412
1276877480217	4.903325	8.117727	7.246025	2.1283817	0.0	-13.4375	-30.125	-36.375	-0.4237408	0.6524342	-0.54337513
1276877480257	6.1291566	7.273266	7.5456724	2.3343592	0.0	-14.1875	-30.375	-35.875	-0.82951164	0.6706596	-0.70023876
1276877480288	3.173541	10.147159	6.1700177	2.4858398	0.0	-15.25	-30.125	-36.125	0.36566028	0.5258333	-0.30311415
1276877480327	-0.27240697	11.032481	0.88532263	1.2646484	0.0	-16.0	-30.875	-36.375	0.46000513	0.080051035	0.024686346
1276877480367	0.6537767	9.915613	-0.46309182	0.14127731	0.0	-16.5	-31.625	-35.625	0.36980286	-0.04656842	-0.06583877
1276877480407	1.8387469	9.847511	0.88532263	0.25010204	0.0	-16.75	-31.625	-35.125	0.32175764	0.08814676	-0.18459626
1276877480437	2.6014864	9.466142	0.46309182	0.021372795	0.0	-16.5	-32.125	-33.375	0.22943988	0.047136985	-0.268199
1276877480467	2.070293	10.760075	3.718355	1.7644987	0.0	-17.25	-33.125	-31.125	0.5361671	0.3271517	-0.19008219
1276877480507	0.53119355	9.302697	3.405087	0.113882065	0.0	-17.25	-34.375	-28.875	0.79394114	0.3503604	-0.057039086
1276877480547	2.5333846	5.47538	1.2258313	-3.650313	0.0	-17.5	-36.125	-26.375	0.03990191	0.20045678	-0.4333538
1276877480587	1.8387469	5.706926	1.5390993	-3.6164303	0.0	-18.0	-38.6875	-24.125	0.38937724	0.25126976	-0.3116934
1276877480627	0.6537767	9.193735	3.255263	-0.031737328	0.0	-18.0	-40.1875	-22.125	1.1320673	0.33950692	-0.070991606
1276877480667	1.9477097	8.281172	2.6832085	-0.88639355	0.0	-17.75	-41.6875	-20.125	0.9303291	0.30553085	-0.23099898
1276877480707	0.92618364	6.973618	1.4573772	-2.6224236	0.0	-17.75	-43.1875	-18.625	0.91945076	0.20427564	-0.13203976
1276877480747	0.7627395	9.534244	1.3756552	-0.14352417	0.0	-17.0	-43.4375	-17.625	0.88250864	0.1428466	-0.07982998
1276877480777	1.2258313	12.067628	2.2609777	2.5320005	0.0	-16.25	-44.1875	-16.375	0.98632956	0.18428484	-0.1012329
1276877480817	-0.19068487	13.102775	3.7864566	3.8335962	0.0	-16.25	-44.6875	-15.625	1.4139247	0.28128925	0.014551987
1276877480847	-2.1383946	14.628253	1.8387469	5.0909843	0.0	-15.25	-44.6875	-15.375	1.1336417	0.12374097	0.14515437
1276877480877	0.46309182	14.056199	0.7627395	4.2778435	0.0	-14.1875	-45.4375	-14.875	0.7979747	0.05418106	-0.032933824
1276877480937	6.3198414	11.495573	0.42223078	3.3183975	0.0	-13.1875	-45.6875	-14.875	-0.6634322	0.032175396	-0.5026613
1276877480967	2.6014864	13.402422	-0.8036005	3.8695488	0.0	-11.9375	-44.9375	-16.625	0.16190562	-0.05879292	-0.19172159
1276877481007	1.334794	13.824653	1.1441092	4.1293354	0.0	-11.9375	-43.9375	-18.125	0.48945636	0.082189985	-0.09625336
1276877481037	1.0760075	11.372991	-0.27240697	1.6203747	0.0	-12.4375	-41.4375	-21.125	0.36589488	-0.023841096	-0.09432999
1276877481067	0.88532263	10.310603	-0.10896278	0.54246616	0.0	-13.1875	-38.6875	-24.625	0.37404805	-0.010528899	-0.08565517
1276877481097	1.0351465	7.8180795	-0.0	-1.9203396	0.0	-14.4375	-36.125	-26.875	0.34212127	-0.0	-0.1316385
1276877481127	0.9942854	4.0588636	0.08172209	-5.6269784	0.0	-16.0	-33.625	-28.875	0.26165223	0.01955352	-0.24023561
1276877481167	0.38136974	1.3756552	2.070293	-7.291897	0.0	-17.5	-32.125	-29.625	2.557107	0.9671283	-0.2704361
1276877481207	0.9942854	1.7570249	2.8330324	-6.327884	0.0	-18.5	-30.625	-29.875	3.0554595	0.95165753	-0.514962
1276877481247	1.920469	4.399372	3.0237172	-4.13342	0.0	-19.5	-29.875	-29.625	0.7530104	0.5621184	-0.41159815
1276877481287	2.6423476	9.888372	6.0882955	2.102559	0.0	-19.75	-30.125	-28.875	0.9954124	0.5366105	-0.2611167
1276877481327	3.2961242	13.375181	10.18802	7.3268166	0.0	-20.25	-30.125	-28.375	1.3696299	0.6368014	-0.24162138
1276877481367	3.255263	7.1234417	10.501288	3.2936249	0.0	-21.0	-30.625	-27.875	2.675339	0.92998046	-0.42864248
1276877481397	2.2201166	11.985906	10.119919	6.0364437	0.0	-21.75	-31.125	-26.875	1.659721	0.69288427	-0.18315151
1276877481427	0.6537767	13.906375	4.1814466	4.7294836	0.0	-22.25	-31.125	-26.625	0.9065816	0.29178143	-0.046978142
1276877481457	2.5333846	5.706926	-1.7297841	-3.3275146	0.0	-22.0	-31.375	-26.375	0.20515488	-0.27025545	-0.41778132
1276877481487	4.399372	5.012288	0.42223078	-3.1241517	0.0	-22.0	-31.625	-26.375	-0.17909457	0.063226685	-0.72036695
1276877481527	3.1054392	10.882658	-0.0	1.510416	0.0	-21.5	-32.375	-26.125	0.42395672	-0.0	-0.277969
1276877481567	2.070293	13.0619135	0.6946377	3.4365454	0.0	-21.75	-33.625	-24.625	0.62097335	0.052476507	-0.15719084
1276877481607	2.9556155	9.425281	4.4810944	1.0400906	0.0	-21.25	-35.125	-22.625	1.1706512	0.42588642	-0.303872
1276877481647	0.7627395	6.469665	3.486809	-2.4177275	0.0	-20.75	-36.875	-19.375	1.6532335	0.49144095	-0.117353044
1276877481687	-0.8036005	7.3141265	-0.53119355	-2.4293618	0.0	-20.0	-39.1875	-16.125	0.91131705	-0.07206626	0.10943073
1276877481727	2.3699405	5.366417	0.8036005	-3.8854318	0.0	-19.0	-40.6875	-13.375	0.13104972	0.1361355	-0.41586694
1276877481767	2.1111538	8.117727	3.7864566	-0.6038389	0.0	-19.5	-41.9375	-10.3125	2.413001	0.42403963	-0.25443092
1276877481797	2.4108016	8.308413	2.5606253	-0.7845392	0.0	-19.5	-42.9375	-7.8125	2.2758768	0.28777212	-0.28240862
1276877481827	0.46309182	8.894087	1.9477097	-0.69002724	0.0	-19.75	-43.6875	-6.5625	1.7482262	0.21530335	-0.05202041
1276877481857	-0.19068487	10.800936	0.38136974	1.002698	0.0	-19.75	-44.1875	-5.3125	1.3895016	0.0352888	0.017652644
1276877481897	0.61291564	12.598822	1.6889231	2.9196386	0.0	-19.25	-44.6875	-4.8125	1.6455716	0.13310404	-0.048610322
1276877481937	1.5390993	14.519291	2.3018389	4.9743204	0.0	-18.5	-45.4375	-3.8125	1.8276675	0.15636632	-0.10560936
1276877481967	1.9885708	15.213928	-0.040861044	5.536742	0.0	-17.75	-45.4375	-2.3125	1.3655046	-0.0026631067	-0.12997045
1276877482007	4.862464	12.108489	0.50395286	3.2514133	0.0	-16.5	-45.9375	-1.8125	-1.610248	0.038602814	-0.3818632
1276877482047	6.0201936	9.997335	0.5720546	1.8773861	0.0	-15.75	-46.9375	-3.0625	-1.5063083	0.048979938	-0.5420208
1276877482087	2.2609777	12.9529505	-0.61291564	3.3564272	0.0	-15.5	-47.4375	-6.5625	0.67664933	-0.04658009	-0.17281203
1276877482117	-0.3405087	13.715691	-0.95342433	3.946354	0.0	-15.5	-47.4375	-11.3125	0.85340476	-0.069380455	0.024821118
1276877482157	0.61291564	11.75436	0.313268	1.9678469	0.0	-16.0	-46.4375	-16.875	0.7151453	0.026608778	-0.0520965
1276877482217	2.9556155	2.3018389	0.6946377	-5.996578	0.0	-17.0	-43.9375	-21.625	-1.0499212	0.1833416	-0.90911543
1276877482257	1.5390993	0.10896278	2.4925237	-6.875204	0.0	-18.5	-40.9375	-26.125	-1.6816039	1.0165001	-1.5001178
1276877482287	-0.88532263	2.6423476	3.486809	-5.3430605	0.0	-20.0	-38.4375	-28.875	1.7447937	0.8965329	0.32329613
1276877482327	-0.6537767	3.255263	5.053149	-3.7602892	0.0	-21.25	-36.625	-30.625	1.9036351	0.989468	0.19820008
1276877482357	0.92618364	8.539958	9.043911	2.666562	0.0	-21.75	-36.125	-31.375	1.9038755	0.8111313	-0.10803072
1276877482397	2.3018389	15.935807	10.61025	9.476135	0.0	-22.0	-36.125	-30.875	1.313147	0.5826573	-0.14345227
1276877482427	4.140586	7.6954966	8.308413	2.2513275	0.0	-22.5	-35.875	-31.125	2.7359958	0.7601617	-0.49362472
1276877482457	5.706926	6.8237944	8.580819	2.5531092	0.0	-23.25	-35.625	-31.125	-2.514421	0.7673837	-0.6965026
1276877482487	5.938472	11.604536	9.00305	6.0358744	0.0	-24.25	-34.875	-31.625	1.2176282	0.60441864	-0.47299314
1276877482527	2.9147544	10.337844	2.152015	1.1477089	0.0	-24.75	-34.375	-31.875	0.55386627	0.19773895	-0.27481598
1276877482557	2.8738933	6.1291566	-1.1441092	-2.9411707	0.0	-25.0625	-34.375	-32.375	0.20534542	-0.16742781	-0.4384504
1276877482590	3.0645783	9.234595	-0.0	-0.076830864	0.0	-25.0625	-35.125	-32.375	0.37446448	-0.0	-0.32042256
1276877482657	0.9942854	12.4489975	2.9147544	3.017621	0.0	-24.5	-36.375	-31.125	0.78308934	0.22928801	-0.07969953
1276877482697	0.38136974	6.851035	3.9499009	-1.8893371	0.0	-23.75	-38.6875	-28.625	1.3482965	0.52232224	-0.055608615
1276877482737	-0.7218784	5.938472	1.334794	-3.6773577	0.0	-23.0	-41.1875	-24.375	1.0624666	0.21953206	0.12096612
1276877482777	2.070293	5.9793324	0.61291564	-3.4494343	0.0	-22.25	-42.9375	-20.125	0.42495584	0.09656258	-0.33332258
1276877482817	4.4810944	6.6331096	3.5276701	-1.058919	0.0	-21.75	-45.1875	-15.875	-2.2167716	0.41508406	-0.5941375
1276877482857	1.6889231	8.539958	2.7649305	-0.67274666	0.0	-21.75	-46.6875	-13.125	1.7819849	0.30753553	-0.19524768
1276877482897	1.879608	7.43671	0.6946377	-2.1046958	0.0	-21.5	-47.4375	-11.0625	0.96444607	0.09031251	-0.24756265
1276877482937	-0.95342433	10.760075	0.8036005	1.0254316	0.0	-21.25	-48.1875	-9.3125	1.3440406	0.074255295	0.08837678
1276877482967	-0.6946377	14.628253	2.1111538	4.9894733	0.0	-21.0	-48.6875	-8.3125	1.5094402	0.14317152	0.04745039
1276877483007	1.56634	14.560152	2.4516625	5.041316	0.0	-20.75	-49.1875	-6.8125	1.6824077	0.16587739	-0.107165046
1276877483047	2.2609777	14.206022	0.3405087	4.582201	0.0	-19.75	-50.4375	-6.5625	1.1408634	0.023666967	-0.1578325
1276877483077	4.372132	11.264028	0.53119355	2.2878122	0.0	-18.75	-50.6875	-7.5625	-0.16478647	0.043934528	-0.37024927
1276877483117	5.597963	11.563675	-0.29964766	3.0442467	0.0	-17.25	-50.4375	-9.8125	-0.5286491	-0.02331937	-0.45084605
1276877483147	3.636633	13.293459	-0.6537767	3.9907618	0.0	-16.0	-49.4375	-14.375	0.14103624	-0.047401763	-0.26703215
1276877483177	1.1168685	13.947236	0.88532263	4.213214	0.0	-15.75	-47.4375	-19.125	0.6393775	0.063189775	-0.07990762
1276877483207	-0.14982383	12.258313	1.2666923	2.5178452	0.0	-16.0	-45.9375	-23.375	0.728779	0.102960244	0.012221614
1276877483247	0.88532263	7.205164	0.84446156	-2.4983468	0.0	-17.0	-43.9375	-26.625	0.49819618	0.11580691	-0.12226052
1276877483277	1.0760075	3.214402	-0.50395286	-6.379678	0.0	-18.0	-41.9375	-29.375	0.1047158	-0.14759006	-0.3230212
1276877483317	1.0760075	-0.8036005	1.2666923	-7.9605527	0.0	-19.25	-39.9375	-30.625	-0.99754655	0.7561779	-2.212269
1276877483357	-0.19068487	0.46309182	4.372132	-5.4059286	0.0	-20.5	-38.4375	-31.125	2.1914613	1.4567467	0.39060706
1276877483397	0.6946377	3.568531	4.2904096	-4.1830792	0.0	-21.5	-37.9375	-31.125	2.2602766	0.86783844	-0.19225232
1276877483437	2.152015	11.495573	8.62168	4.723069	0.0	-22.75	-37.375	-30.125	1.5730401	0.63525456	-0.18506178
1276877483467	4.372132	15.976667	9.847511	9.46361	0.0	-23.5	-37.125	-29.875	1.2545234	0.5363724	-0.2671175
1276877483497	6.8237944	8.008764	8.62168	3.7962112	0.0	-24.75	-37.125	-30.125	-2.3107944	0.6864739	-0.70567775
1276877483537	5.2165933	8.390134	10.378705	4.5225058	0.0	-25.8125	-36.625	-30.375	2.9199076	0.81002843	-0.5562612
1276877483607	0.313268	14.09706	5.012288	5.158251	0.0	-26.0625	-36.125	-30.875	0.98374	0.3415376	-0.022218565
1276877483640	3.8273177	7.014479	-0.3405087	-1.8086987	0.0	-26.0625	-36.625	-31.125	0.16032721	-0.042587362	-0.49948272
1276877483677	2.152015	13.593107	-0.46309182	3.963542	0.0	-25.8125	-37.375	-29.875	0.5615548	-0.033636365	-0.15701349
1276877483717	2.1792557	12.176591	1.6889231	2.6781797	0.0	-25.8125	-38.4375	-28.125	0.6998655	0.13569406	-0.17709598
1276877483757	2.3699405	6.8237944	5.012288	-1.014391	0.0	-25.8125	-41.4375	-25.125	2.1130655	0.60660285	-0.33427227
1276877483787	0.23154591	5.053149	3.0237172	-3.9133663	0.0	-25.8125	-43.6875	-21.875	1.7464529	0.53876746	-0.045790073
1276877483817	0.50395286	4.9850473	-0.84446156	-4.72553	0.0	-24.75	-45.9375	-18.375	0.65340227	-0.1669707	-0.10075061
1276877483847	2.4925237	4.862464	-1.3756552	-4.1720552	0.0	-23.5	-48.1875	-15.125	-0.03849464	-0.24663737	-0.47368073
1276877483881	3.336985	7.8861814	1.6480621	-1.0863619	0.0	-22.75	-49.1875	-12.875	0.63783455	0.19013524	-0.400297
1276877483917	2.3699405	9.956474	6.5513873	2.3452501	0.0	-22.25	-50.1875	-10.3125	2.6851525	0.5693973	-0.23368153
1276877483947	0.3405087	9.00305	0.61291564	-0.77633953	0.0	-21.75	-50.6875	-9.3125	1.2862165	0.06792537	-0.037803464
1276877483977	-1.1849703	9.847511	1.607201	0.24127102	0.0	-22.0	-50.6875	-9.0625	1.5236362	0.16064362	0.119756155
1276877484017	-1.879608	12.367276	0.7218784	2.7234554	0.0	-21.5	-51.1875	-8.3125	1.3807236	0.057643436	0.15082815
1276877484057	0.38136974	12.871228	3.9090397	3.650488	0.0	-21.25	-51.9375	-8.0625	1.9366572	0.29472923	-0.029620966
1276877484087	4.3312707	14.328606	1.334794	5.221674	0.0	-20.75	-52.6875	-7.8125	1.0306033	0.08893575	-0.2935485
1276877484127	4.2495484	13.211738	-0.0	4.071703	0.0	-20.0	-53.6875	-7.8125	0.32129866	-0.0	-0.3111985
1276877484167	2.0294318	12.108489	-0.08172209	2.4710035	0.0	-19.5	-53.6875	-9.8125	0.79372746	-0.006656214	-0.16606058
1276877484207	0.3405087	13.375181	0.08172209	3.5731144	0.0	-18.0	-53.4375	-13.375	0.90572166	0.006107925	-0.025452752
1276877484247	0.88532263	11.958665	1.4573772	2.2729778	0.0	-17.75	-52.1875	-18.375	0.86495036	0.12094214	-0.073897086
1276877484287	1.1849703	9.466142	-0.53119355	-0.25185204	0.0	-17.75	-50.4375	-23.875	0.40129766	-0.055623107	-0.12453208
1276877484327	1.56634	6.0474343	-0.23154591	-3.5553708	0.0	-18.75	-48.4375	-27.875	0.1990973	-0.03704824	-0.2534396
1276877484367	1.2666923	4.0180025	0.7627395	-5.5252223	0.0	-21.5	-44.9375	-30.875	0.31321856	0.1791068	-0.3053921
1276877484397	-0.14982383	1.334794	2.2201166	-7.2118397	0.0	-24.25	-42.6875	-32.125	2.1121273	1.0267067	0.11177705
1276877484437	-0.23154591	3.214402	1.879608	-6.075843	0.0	-26.8125	-40.4375	-32.125	1.2946947	0.5280008	0.071909696
1276877484468	3.1463003	7.082581	5.175732	-0.4872961	0.0	-29.8125	-38.6875	-31.625	1.575838	0.5888133	-0.41804585
1276877484507	6.510526	12.789507	8.19945	6.721792	0.0	-31.5625	-38.4375	-30.625	1.3415362	0.5190796	-0.47086307
1276877484547	7.0553403	12.408136	7.8180795	6.4679337	0.0	-32.3125	-37.9375	-30.125	1.2690557	0.5010946	-0.51701576
1276877484577	4.2086873	3.5276701	9.888372	1.5042915	0.0	-32.8125	-37.9375	-29.625	-2.8716955	1.063849	-0.8732
1276877484607	3.2961242	7.9679036	6.973618	1.2831316	0.0	-32.3125	-37.375	-29.625	1.9635111	0.6800511	-0.39223948
1276877484637	2.8330324	12.108489	2.982856	2.9815874	0.0	-32.3125	-36.875	-29.625	0.8890543	0.23541851	-0.22983636
1276877484677	1.334794	10.61025	-1.2666923	0.9619894	0.0	-32.8125	-36.125	-29.625	0.68805623	-0.11790084	-0.12514488
1276877484707	0.88532263	9.915613	-2.5333846	0.46570206	0.0	-33.5625	-36.125	-29.375	0.6708005	-0.2491927	-0.089049585
1276877484777	3.568531	11.836082	2.2609777	2.7607393	0.0	-33.0625	-37.125	-28.125	0.8195688	0.18089326	-0.29282868
1276877484817	1.6889231	9.00305	4.0588636	0.21241856	0.0	-32.3125	-39.1875	-25.875	1.3448352	0.41710338	-0.18543929
1276877484857	1.1168685	7.014479	0.7218784	-2.667223	0.0	-30.8125	-41.9375	-22.625	0.92849326	0.101284616	-0.15789786
1276877484887	2.982856	4.8216033	-0.5720546	-4.1081824	0.0	-28.8125	-43.9375	-19.625	0.055867836	-0.10055683	-0.5540157
1276877484927	2.6014864	6.1700177	4.0180025	-1.9976044	0.0	-27.8125	-45.9375	-17.375	2.5827074	0.54046154	-0.39901575
1276877484957	1.4165162	8.894087	3.405087	-0.1782589	0.0	-26.3125	-46.9375	-16.125	1.7187983	0.36147112	-0.15793847
1276877484997	1.4573772	8.390134	1.5390993	-1.152916	0.0	-25.8125	-47.6875	-15.375	1.2370518	0.17880502	-0.17198528
1276877485037	-0.14982383	9.697687	2.2609777	0.15224552	0.0	-25.0625	-47.9375	-14.875	1.4286426	0.22902797	0.015448211
1276877485067	-0.46309182	11.645397	1.4982382	1.9438581	0.0	-24.25	-47.9375	-14.625	1.25563	0.12785214	0.03974514
1276877485097	0.9942854	11.304889	2.9556155	1.9204454	0.0	-23.5	-47.9375	-14.125	1.5128313	0.25478053	-0.08772607
1276877485137	3.336985	12.067628	3.6774938	3.2427588	0.0	-22.5	-47.6875	-13.875	1.717912	0.28568324	-0.26978222
1276877485177	2.5333846	14.628253	0.6537767	5.0537415	0.0	-21.5	-47.6875	-14.375	0.82170546	0.044008788	-0.17148343
1276877485207	1.7570249	12.258313	-0.7627395	2.6004105	0.0	-20.0	-47.9375	-15.625	0.6076727	-0.061515033	-0.1423637
1276877485247	1.7978859	13.525005	1.1849703	3.888689	0.0	-18.75	-47.6875	-17.875	0.7388772	0.086631946	-0.13215573
1276877485287	1.5390993	13.293459	1.334794	3.6420135	0.0	-17.25	-45.9375	-21.125	0.62885875	0.09941473	-0.11526549
1276877485327	1.0760075	11.727119	0.14982383	1.9706821	0.0	-16.25	-44.1875	-24.625	0.46771318	0.0127217155	-0.091497585
1276877485367	1.56634	7.6954966	0.9942854	-1.8906732	0.0	-16.25	-40.6875	-28.125	0.3342092	0.12593754	-0.2007969
1276877485397	0.53119355	2.7240696	0.7627395	-6.9283705	0.0	-17.75	-37.125	-31.125	0.48754913	0.26820225	-0.19258328
1276877485437	0.23154591	0.84446156	1.6889231	-7.904233	0.0	-19.75	-34.375	-32.625	2.6599894	1.0924939	-0.2676163
1276877485467	0.6537767	1.6480621	2.8738933	-6.4298477	0.0	-22.0	-31.625	-32.625	2.605524	1.0180187	-0.3776533
1276877485497	0.313268	3.990762	3.214402	-4.672773	0.0	-24.0	-30.375	-32.125	1.3466424	0.6765618	-0.07833765
1276877485527	1.607201	6.510526	5.175732	-1.3356266	0.0	-24.75	-30.375	-30.875	1.4051801	0.65731376	-0.242023
1276877485567	2.8330324	13.375181	8.471856	6.277313	0.0	-25.5625	-30.375	-29.625	1.2250847	0.5547454	-0.20872763
1276877485607	5.597963	13.375181	10.038197	7.8284874	0.0	-26.3125	-31.125	-29.125	1.4233265	0.60555154	-0.3963808
1276877485637	5.053149	6.932757	9.425281	2.938284	0.0	-26.0625	-31.625	-27.875	2.9328525	0.8323741	-0.6298469
1276877485667	4.5219555	13.375181	5.8976107	5.494506	0.0	-26.3125	-30.875	-27.875	0.9306595	0.3956799	-0.32602143
1276877485697	3.759216	12.176591	-0.38136974	2.9427223	0.0	-26.5625	-31.125	-28.625	0.49880996	-0.029917289	-0.2994419
1276877485737	2.152015	5.284695	-1.879608	-3.7989802	0.0	-26.8125	-31.125	-28.625	0.321072	-0.3182112	-0.38671196
1276877485777	1.9477097	10.56939	-3.0645783	1.369093	0.0	-27.3125	-30.875	-28.875	0.5164019	-0.27777535	-0.18223391
1276877485807	2.9147544	13.947236	2.0294318	4.585701	0.0	-27.5625	-31.875	-26.875	0.76264805	0.14147918	-0.20601927
1276877485837	3.255263	10.460427	4.7126403	2.119215	0.0	-27.3125	-33.875	-24.125	1.2028558	0.40624344	-0.3016982
1276877485867	0.6537767	6.3607025	4.944186	-1.7238941	0.0	-26.3125	-35.625	-21.375	1.8481004	0.6582022	-0.102424055
1276877485897	0.14982383	6.0474343	3.255263	-2.9371057	0.0	-25.3125	-37.9375	-18.875	1.6383197	0.49367902	-0.02476971
1276877485937	0.5720546	6.510526	1.0351465	-3.1895714	0.0	-23.5	-40.1875	-17.125	1.0918394	0.15708074	-0.08764103
1276877485968	0.08172209	7.6273947	5.5162406	-0.39321613	0.0	-21.75	-41.1875	-16.375	2.0474346	0.6261094	-0.010713876
1276877486007	-0.3405087	8.853226	2.2201166	-0.67295074	0.0	-20.25	-42.4375	-16.625	1.302651	0.2455282	0.038442593
1276877486057	5.366417	7.082581	2.1792557	-0.6573038	0.0	-19.0	-43.4375	-16.125	-1.1713195	0.24049874	-0.648406
1276877486087	1.7978859	10.651112	3.486809	1.5439615	0.0	-18.5	-43.6875	-16.375	1.443498	0.31224018	-0.16722165
1276877486127	-1.4982382	12.108489	1.4165162	2.4761324	0.0	-18.25	-43.9375	-15.625	1.1418692	0.115582526	0.1231088
1276877486167	-2.6014864	14.410328	3.255263	5.194084	0.0	-18.75	-44.4375	-13.375	1.4094082	0.21874727	0.17860557
1276877486207	0.10896278	15.132206	2.3018389	5.5000143	0.0	-18.75	-45.1875	-11.3125	1.3379952	0.15095413	-0.007200596
1276877486247	5.8567495	14.601013	-0.9942854	5.9565887	0.0	-19.5	-45.6875	-9.3125	0.08745021	-0.06311811	-0.38147098
1276877486277	3.990762	10.310603	-0.38136974	1.2559061	0.0	-19.0	-46.4375	-8.5625	0.092763744	-0.034480758	-0.3692966
1276877486307	1.0351465	10.991621	1.0760075	1.2859173	0.0	-18.5	-46.1875	-9.5625	1.2367921	0.09715534	-0.09389901
1276877486347	3.214402	13.252599	1.3756552	3.899414	0.0	-18.25	-45.4375	-12.625	0.739786	0.10053764	-0.23795356
1276877486381	5.284695	12.489859	-2.1383946	3.922782	0.0	-17.0	-44.6875	-16.625	-0.073505566	-0.15638931	-0.40027627
1276877486417	2.982856	9.765789	-0.46309182	0.41501904	0.0	-17.5	-42.4375	-20.375	0.19117461	-0.045320425	-0.2964395
1276877486447	0.7627395	5.5162406	0.61291564	-4.204298	0.0	-17.75	-39.9375	-24.875	0.5416451	0.109622695	-0.13740037
1276877486477	-1.0760075	0.6946377	1.6480621	-7.7194457	0.0	-19.75	-36.625	-27.875	1.2340623	0.9101611	0.9975419
1276877486507	-1.920469	0.84446156	0.8036005	-7.560077	0.0	-21.75	-33.375	-30.625	0.90433306	0.3658044	1.1565272
1276877486537	-1.0760075	0.9942854	1.0351465	-8.012793	0.0	-23.25	-30.875	-32.375	1.0090472	0.61511284	0.82485133
1276877486577	0.23154591	2.2609777	2.2609777	-6.600772	0.0	-25.0625	-29.125	-32.375	1.538135	0.78278977	-0.102053866
1276877486617	2.070293	4.8216033	5.7886477	-1.9936857	0.0	-25.5625	-28.875	-32.125	2.001297	0.83441365	-0.40557346
1276877486657	4.372132	10.991621	12.299174	7.2579613	0.0	-26.3125	-28.875	-30.625	1.9264673	0.80487144	-0.3785821
1276877486697	7.5456724	13.102775	8.771504	7.673601	0.0	-27.3125	-29.375	-29.125	1.0162692	0.52567285	-0.522498
1276877486737	4.5219555	5.7477865	9.615966	2.2744064	0.0	-28.0625	-30.125	-27.875	2.9276762	0.9205819	-0.6665969
1276877486777	3.990762	9.888372	6.701211	2.787488	0.0	-28.3125	-30.125	-26.875	1.4215597	0.56106675	-0.38358986
1276877486807	2.7921712	15.6634	-2.5606253	6.3084087	0.0	-28.5625	-30.625	-26.875	0.6161421	-0.15957278	-0.17640789
1276877486847	3.445948	9.275456	-0.3405087	0.09408665	0.0	-28.5625	-31.125	-27.125	0.5105016	-0.03439904	-0.3557096
1276877486877	6.4424243	10.528529	1.9885708	2.6957169	0.0	-27.8125	-31.375	-26.875	0.35260674	0.15973395	-0.5491248
1276877486917	3.0237172	9.193735	-0.7627395	-0.09843731	0.0	-27.0625	-32.625	-25.875	0.4927737	-0.07864747	-0.31774524
1276877486947	0.88532263	8.580819	1.3075534	-1.0817461	0.0	-26.3125	-34.125	-23.625	0.90337807	0.15043123	-0.10281083
1276877486977	-0.27240697	9.466142	3.1054392	0.15958309	0.0	-24.75	-35.625	-21.375	1.2197051	0.31687227	0.02876904
1276877487017	-0.7218784	8.19945	3.0645783	-1.0235004	0.0	-23.75	-38.1875	-19.125	1.3742754	0.35641378	0.087813444
1276877487057	2.982856	3.759216	1.5390993	-4.7670107	0.0	-23.0	-40.6875	-17.125	-1.2761953	0.3103571	-0.6707516
1276877487087	2.5333846	6.66035	3.336985	-1.9381199	0.0	-22.5	-42.4375	-15.125	2.4022157	0.4379596	-0.36346862
1276877487117	1.3756552	8.921328	2.3018389	-0.49101925	0.0	-22.5	-43.6875	-13.125	1.4938015	0.24968037	-0.15299349
1276877487157	3.173541	7.7772183	0.8036005	-1.3685064	0.0	-22.25	-44.1875	-11.3125	0.5368014	0.09537882	-0.38743192
1276877487197	1.2666923	8.390134	2.4108016	-0.9856062	0.0	-22.5	-44.1875	-10.5625	1.7415472	0.27682316	-0.1498424
1276877487227	-4.2086873	11.836082	1.0760075	2.8014297	0.0	-22.25	-44.1875	-9.5625	1.3880397	0.085446626	0.34163818
1276877487267	-6.3607025	13.525005	2.4516625	5.33914	0.0	-22.0	-44.4375	-9.0625	1.4694111	0.16258624	0.43960008
1276877487297	1.6480621	11.536434	3.6774938	2.4133902	0.0	-21.75	-45.1875	-8.0625	1.9873456	0.30567774	-0.14189707
1276877487337	5.407278	16.126492	0.23154591	7.2038174	0.0	-20.75	-45.6875	-7.5625	0.6423166	0.013612386	-0.32352316
1276877487367	6.5513873	15.935807	-2.1111538	7.552141	0.0	-19.75	-46.1875	-8.8125	0.047393054	-0.12192054	-0.39004806
1276877487397	6.701211	15.5135765	0.19068487	7.0934563	0.0	-18.5	-46.6875	-11.0625	-0.14479177	0.011283297	-0.40774918
1276877487437	6.238119	15.976667	0.19068487	7.3457375	0.0	-17.75	-45.9375	-14.875	-0.01211788	0.011117333	-0.3722482
1276877487467	1.920469	13.756551	1.1849703	4.1337605	0.0	-17.75	-44.6875	-19.375	0.6393243	0.08510523	-0.1387075
1276877487507	-0.3405087	11.604536	-0.0	1.8028803	0.0	-17.75	-42.6875	-23.625	0.6771724	-0.0	0.029334307
1276877487537	2.4925237	4.671779	-2.4108016	-3.9885612	0.0	-18.5	-40.4375	-27.375	-0.06255612	-0.42724293	-0.49010864
1276877487577	2.3699405	-2.4516625	-0.50395286	-6.3597336	0.0	-20.0	-37.9375	-30.375	-0.9671891	-0.14672989	-2.373142
1276877487617	0.7218784	-0.38136974	3.255263	-6.4505677	0.0	-22.25	-35.125	-31.375	-1.4634931	1.325063	-2.0568283
1276877487657	0.9942854	1.334794	2.3018389	-6.9660974	0.0	-24.0	-33.125	-31.875	-3.1042085	0.9447474	-0.64022785
1276877487697	0.61291564	5.134871	5.5571017	-2.2156062	0.0	-25.5625	-32.125	-31.125	1.7704664	0.8213414	-0.11880131
1276877487737	5.829509	17.62473	14.056199	13.478344	0.0	-26.0625	-31.875	-30.875	1.4756588	0.6480829	-0.31943038
1276877487777	7.3549876	6.4424243	5.284695	1.3076954	0.0	-26.3125	-32.375	-30.875	-0.7450045	0.49551427	-0.85144216
1276877487807	3.336985	4.7943625	7.4639506	-0.32867908	0.0	-26.8125	-32.625	-30.375	2.9122164	0.9067503	-0.60805166
1276877487837	5.407278	13.906375	6.238119	6.365549	0.0	-27.3125	-32.375	-30.625	0.8202712	0.39600006	-0.37084404
1276877487867	3.5276701	15.4046135	0.38136974	6.0013237	0.0	-27.0625	-32.375	-30.375	0.57648057	0.02412749	-0.22511928
1276877487907	1.607201	6.4015636	-0.10896278	-3.205515	0.0	-26.5625	-31.875	-30.375	0.5262637	-0.016507423	-0.24597965
1276877487947	4.440233	11.223166	-0.040861044	2.2630148	0.0	-25.5625	-32.375	-30.125	0.3735381	-0.0033854397	-0.37673438
1276877487977	2.1111538	11.182305	1.2258313	1.6390295	0.0	-24.75	-33.625	-29.375	0.62286973	0.10730572	-0.18659785
1276877488017	1.7570249	10.269742	3.214402	1.0968866	0.0	-25.0625	-35.375	-27.875	0.8921476	0.29925	-0.16944696
1276877488057	0.08172209	7.9679036	4.0180025	-0.88260937	0.0	-23.75	-38.4375	-24.875	1.3682569	0.46703944	-0.010256051
1276877488097	0.6946377	5.9793324	2.7649305	-3.182469	0.0	-22.5	-41.9375	-21.875	1.4906261	0.4305818	-0.11565468
1276877488137	1.1441092	3.759216	1.0760075	-5.7325263	0.0	-21.25	-44.4375	-19.125	0.92376035	0.26727867	-0.29544085
1276877488177	0.7627395	6.2789803	1.6889231	-3.2599082	0.0	-20.0	-45.9375	-16.875	1.3036858	0.26093	-0.12088279
1276877488217	1.3075534	8.117727	4.4810944	-0.44249535	0.0	-19.5	-46.6875	-15.375	2.2746878	0.4989878	-0.1597021
1276877488257	-1.2258313	9.343558	2.6014864	-0.030532837	0.0	-20.25	-46.6875	-14.625	1.476232	0.26935142	0.13045031
1276877488287	-2.2201166	11.563675	1.7570249	2.098586	0.0	-20.25	-46.9375	-13.125	1.340359	0.14812529	0.18968247
1276877488327	-1.920469	12.721405	1.5390993	3.1506329	0.0	-20.0	-47.9375	-11.3125	1.3531228	0.11906368	0.1498322
1276877488367	3.759216	14.1787815	2.152015	5.0190268	0.0	-19.25	-48.6875	-11.0625	1.0646143	0.1456692	-0.25916693
1276877488407	3.990762	13.6748295	0.14982383	4.4393873	0.0	-17.75	-48.6875	-11.3125	0.30580747	0.010517071	-0.28394708
1276877488447	6.469665	15.241169	0.7627395	6.7683773	0.0	-16.75	-48.9375	-13.875	-0.3119021	0.046033647	-0.40143535
1276877488477	4.2086873	15.28203	0.6537767	6.057804	0.0	-15.25	-47.6875	-17.625	0.13050987	0.041221835	-0.268739
1276877488507	-0.0	14.056199	0.313268	4.2530394	0.0	-14.6875	-45.9375	-21.625	0.6194778	0.022283133	0.0
1276877488537	-1.6480621	11.34575	1.3075534	1.7324944	0.0	-14.6875	-43.9375	-25.875	0.781348	0.1135585	0.14424922
1276877488567	-0.27240697	7.9270425	0.313268	-1.8687444	0.0	-15.75	-41.1875	-28.375	0.5702519	0.039475072	0.034350745
1276877488607	1.607201	2.7240696	-0.27240697	-6.6320863	0.0	-17.75	-38.9375	-30.875	-0.12998526	-0.08591492	-0.5330341
1276877488647	1.8387469	-0.8036005	0.61291564	-7.708453	0.0	-20.0	-36.625	-31.625	-0.95880866	0.29643798	-1.9828181
1276877488687	0.7218784	-0.95342433	2.7649305	-6.794182	0.0	-22.25	-34.875	-31.125	-0.98838913	1.1625762	-2.4935358
1276877488727	0.84446156	2.5606253	2.7649305	-5.944687	0.0	-23.5	-34.125	-30.875	2.1072812	0.79796827	-0.3185557
1276877488767	3.568531	9.234595	5.7477865	1.6410227	0.0	-24.5	-34.625	-29.875	1.1071602	0.52601624	-0.36875424
1276877488807	6.701211	17.543009	11.141444	12.02899	0.0	-24.75	-35.375	-29.625	1.1975672	0.5354653	-0.36488262
1276877488847	4.2086873	3.255263	12.871228	4.1209593	0.0	-25.5625	-35.625	-29.375	-2.7152228	1.1788099	-0.91244733
1276877488877	2.1111538	14.410328	3.9090397	5.272976	0.0	-26.3125	-35.125	-30.125	0.83146155	0.26222134	-0.145468
1276877488907	2.7240696	13.402422	-2.982856	4.191311	0.0	-26.5625	-33.625	-30.875	0.46730307	-0.21473874	-0.20052056
1276877488947	3.255263	3.8681788	-0.61291564	-4.713988	0.0	-26.5625	-32.875	-31.375	-0.023296883	-0.12064515	-0.69956744
1276877488977	4.2086873	11.985906	1.4165162	2.9754267	0.0	-25.8125	-33.375	-31.875	0.45411068	0.1110486	-0.3376868
1276877489017	2.7921712	14.328606	0.50395286	4.800168	0.0	-25.5625	-34.625	-30.375	0.566811	0.034508053	-0.19245507
1276877489057	1.2258313	11.34575	4.1814466	2.3470812	0.0	-25.0625	-36.625	-28.875	0.99378157	0.3512229	-0.10762572
1276877489087	0.38136974	6.5922484	4.5628166	-1.7802887	0.0	-24.25	-38.9375	-25.375	1.6624495	0.6046557	-0.057786833
1276877489127	2.1792557	3.9499009	0.84446156	-5.217098	0.0	-23.25	-41.4375	-21.875	0.026614677	0.18505085	-0.504166
1276877489167	2.2609777	3.173541	-0.61291564	-5.862154	0.0	-21.5	-43.6875	-18.875	-0.29163638	-0.15601721	-0.6190305
1276877489207	1.4165162	8.19945	5.134871	-0.0289011	0.0	-20.75	-45.1875	-15.625	2.323318	0.5529017	-0.17106895
1276877489247	0.6946377	8.894087	1.0760075	-0.8208227	0.0	-20.75	-46.6875	-14.375	1.1081526	0.12003299	-0.077942856
1276877489277	-0.29964766	8.921328	3.2961242	-0.29117298	0.0	-21.25	-47.1875	-13.125	1.7348009	0.3537266	0.033575166
1276877489307	-2.5606253	11.372991	2.5333846	2.1231346	0.0	-21.5	-47.4375	-12.3125	1.4690038	0.2139873	0.22145692
1276877489347	-2.8738933	12.299174	2.982856	3.1712685	0.0	-21.25	-48.1875	-11.8125	1.5132855	0.23191416	0.22954696
1276877489377	3.8273177	13.375181	2.7921712	4.382785	0.0	-20.25	-48.1875	-10.8125	1.5083364	0.19807076	-0.27870312
1276877489407	4.1814466	14.056199	-0.88532263	4.8850155	0.0	-18.75	-48.6875	-11.0625	0.28082988	-0.06029672	-0.2891438
1276877489447	4.5219555	13.252599	-0.53119355	4.2062597	0.0	-17.25	-48.4375	-12.3125	0.047940332	-0.037916526	-0.32882518
1276877489477	5.9793324	15.636159	0.46309182	6.94018	0.0	-15.75	-47.9375	-15.125	-0.17389952	0.027656032	-0.36524615
1276877489507	5.053149	16.126492	1.4573772	7.1557198	0.0	-14.9375	-46.9375	-19.375	0.014554435	0.086024314	-0.30365416
1276877489537	1.4573772	13.375181	1.607201	3.743351	0.0	-14.4375	-45.4375	-23.625	0.48455733	0.11889252	-0.10853314
1276877489567	-0.23154591	10.800936	0.88532263	1.0329819	0.0	-14.6875	-44.1875	-27.125	0.5879013	0.08176568	0.021434294
1276877489607	0.8036005	6.701211	0.46309182	-3.0415592	0.0	-15.25	-42.1875	-29.875	0.36084354	0.068506725	-0.11934878
1276877489647	1.0760075	0.9942854	-0.38136974	-8.2927685	0.0	-16.75	-40.4375	-31.625	-0.42395136	-0.2546587	-0.8248514
1276877489687	0.53119355	-2.2609777	1.4165162	-7.0862265	0.0	-18.75	-37.9375	-32.375	-0.5428443	0.547667	-2.910838
1276877489727	0.95342433	-0.46309182	2.7921712	-6.8200645	0.0	-20.75	-36.375	-32.375	-1.3609859	1.2079891	-2.0229502
1276877489767	1.7978859	4.7943625	5.175732	-2.5260935	0.0	-22.0	-36.125	-31.625	2.3155158	0.79077405	-0.35877067
1276877489797	4.0588636	16.970953	8.471856	9.590771	0.0	-23.0	-36.625	-30.375	0.9729799	0.45198458	-0.2347556
1276877489837	5.8976107	12.4489975	10.310603	7.399973	0.0	-23.75	-36.875	-29.875	1.9320182	0.6425301	-0.4424213
1276877489867	4.8216033	6.2108784	12.408136	4.882963	0.0	-24.75	-36.625	-29.375	-3.0073214	1.0059816	-0.66013163
1276877489907	2.9147544	16.739407	2.8738933	7.4259567	0.0	-26.0625	-35.375	-30.125	0.70284003	0.16755356	-0.17239684
1276877489937	4.7943625	5.829509	-1.607201	-2.089644	0.0	-26.3125	-33.875	-30.875	-0.030533029	-0.20980318	-0.6882689
1276877489967	4.4810944	3.990762	0.42223078	-3.7912812	0.0	-26.3125	-33.375	-31.625	-0.25390133	0.070249766	-0.8432114
1276877490007	1.4982382	13.443283	-1.9477097	3.8593721	0.0	-25.8125	-32.875	-32.375	0.53539526	-0.143009	-0.110990815
1276877490037	2.2201166	17.270601	1.0351465	7.6368046	0.0	-25.0625	-34.375	-30.625	0.6253524	0.05937786	-0.12784775
1276877490067	3.6774938	11.604536	5.325556	3.4805899	0.0	-24.25	-36.875	-28.875	0.9038817	0.41239238	-0.30688965
1276877490097	1.8387469	5.243834	4.9850473	-2.3414316	0.0	-23.25	-39.9375	-26.125	2.4646592	0.7312086	-0.33725318
1276877490137	1.1168685	4.0588636	3.568531	-4.287938	0.0	-22.25	-43.1875	-23.375	2.4828575	0.70315015	-0.2685222
1276877490177	-0.23154591	3.6774938	-0.8036005	-6.035265	0.0	-21.25	-45.1875	-21.125	0.6762793	-0.21472456	0.06287996
1276877490217	1.56634	6.2789803	1.9477097	-3.0485005	0.0	-20.0	-46.4375	-18.875	1.146002	0.29234824	-0.2444682
1276877490257	0.040861044	8.853226	5.284695	0.5039892	0.0	-19.25	-47.1875	-16.625	2.0527644	0.5381493	-0.004615352
1276877490287	-1.607201	7.8861814	1.7297841	-1.5745726	0.0	-18.5	-47.9375	-15.125	1.3680793	0.21170515	0.20104638
1276877490327	-1.56634	9.765789	2.152015	0.31536674	0.0	-17.75	-48.4375	-13.875	1.4138552	0.21424253	0.15903601
1276877490367	-0.040861044	12.299174	1.9477097	2.6458569	0.0	-17.75	-48.6875	-13.125	1.280161	0.15705593	0.003322247
1276877490407	3.1463003	13.797412	3.405087	4.748843	0.0	-16.75	-49.4375	-13.125	1.4563518	0.2361264	-0.22420183
1276877490447	3.1054392	15.636159	-0.95342433	6.163392	0.0	-15.75	-49.6875	-13.375	0.3374178	-0.059736323	-0.19605508
1276877490477	5.366417	15.826844	-0.14982383	6.905916	0.0	-14.4375	-49.6875	-15.125	-0.1453911	-0.008964861	-0.32690516
1276877490507	5.5162406	14.628253	2.4925237	6.0245647	0.0	-12.9375	-48.9375	-18.375	-0.46777996	0.15810142	-0.36060607
1276877490537	1.920469	13.443283	1.8387469	3.8970375	0.0	-12.4375	-47.6875	-21.875	0.35315323	0.1345849	-0.14189707
1276877490567	-1.1168685	10.61025	0.14982383	0.86327267	0.0	-12.6875	-46.1875	-25.375	0.6142593	0.01404216	0.10487694
1276877490607	0.08172209	8.308413	-0.42223078	-1.4871149	0.0	-13.9375	-43.9375	-28.625	0.4129221	-0.05077354	-0.009835748
1276877490647	1.4165162	4.440233	-0.19068487	-5.142044	0.0	-16.25	-41.4375	-30.875	0.08816274	-0.04089049	-0.3088123
1276877490687	1.6889231	-0.5720546	0.7218784	-7.8828998	0.0	-19.0	-38.6875	-32.375	-0.99222076	0.38466147	-1.8973777
1276877490727	1.2258313	-1.9885708	4.3312707	-4.885575	0.0	-21.0	-36.625	-33.125	-0.83678573	1.0761721	-2.5891738
1276877490767	0.53119355	2.5333846	3.8273177	-5.1861997	0.0	-22.0	-35.375	-32.875	2.346615	0.97614336	-0.20668323
1276877490797	2.1792557	12.408136	7.082581	4.6458225	0.0	-22.25	-35.875	-31.875	1.0707343	0.51215875	-0.17385803
1276877490827	7.7772183	18.428331	9.847511	12.488237	0.0	-22.5	-36.375	-31.375	0.6070986	0.45748562	-0.39934817
1276877490867	8.19945	9.343558	12.340035	7.7093277	0.0	-23.75	-35.625	-31.125	-2.5156398	0.78172076	-0.720273
1276877490907	0.61291564	12.489859	7.9679036	5.021017	0.0	-24.75	-34.875	-31.625	1.2635643	0.5673123	-0.049033727
1276877490947	3.5957718	5.175732	-2.6423476	-2.9729266	0.0	-25.3125	-34.125	-32.625	0.02832715	-0.39701036	-0.6071849
1276877490977	4.2495484	6.0882955	-2.4925237	-1.9747491	0.0	-25.3125	-33.375	-33.375	0.036774047	-0.3238858	-0.6093734
1276877491017	2.2201166	14.982383	-0.9125633	5.3667965	0.0	-24.75	-33.375	-32.875	0.51004785	-0.060178436	-0.1471113
1276877491057	2.152015	16.276316	4.862464	7.3162346	0.0	-25.3125	-35.375	-30.875	0.83017033	0.2879368	-0.13145511
1276877491087	2.4925237	5.6660647	5.5162406	-1.515337	0.0	-25.0625	-37.6875	-27.625	2.4319508	0.72790045	-0.4144263
1276877491127	1.2258313	3.3778462	2.152015	-5.618133	0.0	-23.75	-40.6875	-23.625	1.9682374	0.5395958	-0.3481233
1276877491167	1.607201	3.445948	-1.334794	-5.7768455	0.0	-22.0	-44.1875	-20.125	0.035657898	-0.33760735	-0.43641075
1276877491217	2.070293	7.205164	4.7126403	-0.9517374	0.0	-20.5	-46.1875	-17.125	2.621798	0.56120443	-0.27979705
1276877491257	-0.19068487	7.5865335	1.0760075	-2.1418185	0.0	-20.25	-46.9375	-14.875	1.2047454	0.14084764	0.02512936
1276877491287	-0.19068487	9.575105	3.0645783	0.2487278	0.0	-20.25	-47.6875	-12.875	1.671676	0.30969703	0.01991202
1276877491327	-2.1111538	11.75436	1.5390993	2.234561	0.0	-20.5	-48.1875	-11.5625	1.3690666	0.12816994	0.1777113
1276877491367	-1.1168685	11.536434	2.5606253	2.0632067	0.0	-20.25	-48.4375	-10.5625	1.5573343	0.21743429	0.09651151
1276877491407	3.7864566	16.167353	0.10896278	6.798542	0.0	-19.25	-49.1875	-10.3125	0.646673	0.0065620174	-0.23005736
1276877491447	6.0201936	16.358038	-0.14982383	7.6246605	0.0	-18.0	-49.4375	-11.5625	-0.015177408	-0.008595205	-0.35264304
1276877491487	7.6273947	15.322891	0.5720546	7.3192177	0.0	-16.25	-49.1875	-13.875	-0.54518133	0.03340917	-0.46186823
1276877491517	3.0645783	13.947236	0.10896278	4.4737177	0.0	-14.4375	-48.6875	-17.875	0.20589411	0.007630324	-0.21628948
1276877491547	-0.84446156	11.795221	1.1168685	2.0713863	0.0	-13.6875	-46.9375	-22.375	0.75791854	0.09416715	0.07147159
1276877491577	-0.53119355	9.956474	0.313268	0.1689043	0.0	-13.4375	-44.4375	-26.875	0.5544747	0.03140873	0.05330104
1276877491617	1.607201	5.706926	-0.14982383	-3.8758368	0.0	-14.1875	-41.6875	-30.625	0.07411558	-0.025264625	-0.27451298
1276877491657	1.4165162	0.313268	-0.38136974	-8.306618	0.0	-16.25	-38.6875	-33.125	-0.73123354	-0.2570628	-1.3531457
1276877491697	0.8036005	-1.879608	2.2201166	-6.788767	0.0	-18.25	-36.625	-34.625	-0.62791735	0.8266312	-2.7375758
1276877491737	-0.10896278	1.0351465	2.9147544	-6.711623	0.0	-20.25	-35.625	-34.125	2.2656043	1.2278085	0.104876935
1276877491777	1.0760075	6.973618	5.5162406	-0.85019684	0.0	-21.75	-35.875	-32.625	1.4575056	0.6635223	-0.1530896
1276877491817	5.09401	18.305748	9.575105	11.47085	0.0	-23.0	-36.875	-30.875	0.9481426	0.4667774	-0.27140728
1276877491847	6.0474343	6.0201936	8.812365	2.4600506	0.0	-24.25	-36.625	-29.625	-2.4319556	0.80149555	-0.7876555
1276877491877	5.243834	6.66035	10.691973	3.8379946	0.0	-26.0625	-36.125	-29.875	-3.0274963	0.90044296	-0.66696197
1276877491907	4.630918	13.865514	1.920469	4.9373684	0.0	-27.0625	-34.625	-30.875	0.5277706	0.13062528	-0.32233983
1276877491947	5.366417	8.662541	-0.84446156	0.41837692	0.0	-26.8125	-33.125	-31.875	0.15054907	-0.08268188	-0.5546322
