#timestamp	accel_x	accel_y	accel_z	accel_mag	temperature	mag_x	mag_y	mag_z	azimuth	pitch	roll
1277137572058	-0.46309182	2.4925237	9.425281	-0.04637146	0.0	-17.25	-10.625	-27.0625	1.5716171	1.308039	0.18369779
1277137572100	-0.6946377	2.5606253	9.302697	-0.13300037	0.0	-16.25	-10.625	-27.0625	1.4815376	1.2929679	0.2649013
1277137572150	-0.88532263	2.7240696	9.152874	-0.21605778	0.0	-15.25	-11.1875	-27.3125	1.4324147	1.2675083	0.3142319
1277137572195	-0.7627395	2.7240696	9.193735	-0.18754959	0.0	-14.5625	-11.6875	-28.3125	1.4939616	1.2722976	0.27300867
1277137572238	-0.6946377	2.6832085	9.302697	-0.099832535	0.0	-14.5625	-11.9375	-28.3125	1.5411594	1.2812284	0.25332174
1277137572268	-0.7627395	2.7649305	9.234595	-0.13688469	0.0	-14.8125	-11.4375	-28.0625	1.4811957	1.269649	0.26916748
1277137572298	-0.7627395	2.7240696	9.275456	-0.10941219	0.0	-15.0625	-11.4375	-28.0625	1.4836832	1.2747759	0.2730087
1277137572338	-0.7627395	2.6423476	9.275456	-0.13205051	0.0	-15.0625	-11.6875	-28.0625	1.5022146	1.2825475	0.28102073
1277137572378	-0.6946377	2.6832085	9.234595	-0.16508007	0.0	-15.25	-11.4375	-28.5625	1.4990857	1.2792119	0.25332174
1277137572419	-0.6946377	2.6832085	9.302697	-0.099832535	0.0	-15.5	-11.6875	-29.0625	1.5052123	1.2812284	0.25332174
1277137572458	-0.7218784	2.6832085	9.275456	-0.12394333	0.0	-15.5	-11.4375	-29.0625	1.4808881	1.2797371	0.26281267
1277137572498	-0.7218784	2.6832085	9.343558	-0.058686256	0.0	-15.75	-11.1875	-29.0625	1.4689708	1.281742	0.2628127
1277137572538	-0.84446156	2.7240696	9.425281	0.04066372	0.0	-15.75	-11.4375	-28.8125	1.4438725	1.2769685	0.30060565
1277137572579	-0.88532263	2.7649305	9.152874	-0.2043724	0.0	-15.25	-11.4375	-28.8125	1.4186784	1.2636433	0.3098817
1277137572618	-1.0760075	2.7921712	9.343558	0.004368782	0.0	-15.0625	-11.4375	-28.8125	1.3655567	1.2608618	0.36782745
1277137572659	-1.0351465	2.982856	9.043911	-0.22743893	0.0	-14.0625	-11.4375	-28.5625	1.3644643	1.23491	0.33402827
1277137572698	-1.1441092	2.982856	9.384419	0.10666084	0.0	-13.8125	-11.4375	-28.8125	1.3474913	1.2426715	0.36625558
1277137572740	-1.6889231	2.7649305	8.962189	-0.27679634	0.0	-13.3125	-11.6875	-29.0625	1.1880331	1.2239016	0.54835016
1277137572778	-0.9125633	2.6014864	9.043911	-0.35187244	0.0	-12.8125	-12.1875	-29.0625	1.4761702	1.2749097	0.3373743
1277137572818	-0.95342433	2.070293	9.275456	-0.25525093	0.0	-12.5625	-11.9375	-29.5625	1.4718767	1.3298378	0.43157303
1277137572858	-1.1849703	2.070293	9.615966	0.100774765	0.0	-12.5625	-11.6875	-29.0625	1.3810375	1.3276354	0.5198543
1277137572888	-1.1849703	2.070293	9.507003	-0.0049476624	0.0	-12.8125	-10.625	-29.0625	1.3142213	1.3249589	0.5198543
1277137572929	-1.1441092	1.9885708	9.466142	-0.06646347	0.0	-13.3125	-10.375	-29.3125	1.3012899	1.3330216	0.5220916
1277137572969	-1.1849703	1.9885708	9.615966	0.084020615	0.0	-14.3125	-10.375	-29.5625	1.2743908	1.3345605	0.53739226
1277137573008	-0.88532263	2.2201166	9.302697	-0.2018137	0.0	-14.5625	-10.625	-29.5625	1.3994274	1.3193074	0.3794482
1277137573048	-0.6537767	2.3699405	9.507003	0.013082504	0.0	-15.5	-11.4375	-29.3125	1.5344033	1.3177445	0.2691675
1277137573080	-0.5720546	2.1792557	9.534244	-0.009803772	0.0	-15.5	-11.1875	-28.8125	1.574979	1.3387382	0.25670832
1277137573119	-0.5720546	2.2201166	9.507003	-0.027116776	0.0	-15.75	-11.1875	-28.8125	1.5684004	1.3341622	0.25218317
1277137573175	-0.6946377	2.3018389	9.466142	-0.039930344	0.0	-16.25	-10.875	-28.8125	1.4879626	1.32206	0.29308456
1277137573208	-0.6946377	2.5606253	9.343558	-0.09370041	0.0	-16.0	-10.625	-29.0625	1.4558524	1.2941219	0.2649013
1277137573238	-0.6946377	2.3699405	9.534244	0.0422554	0.0	-16.25	-10.625	-29.3125	1.4686629	1.317338	0.28511775
1277137573278	-0.7627395	2.1792557	9.724928	0.18860626	0.0	-16.25	-10.625	-29.0625	1.4556906	1.3376935	0.3366748
1277137573308	-1.1168685	2.0294318	9.615966	0.08439541	0.0	-15.5	-9.875	-29.3125	1.2685035	1.3344032	0.5031008
1277137573348	-1.334794	2.070293	9.425281	-0.0647974	0.0	-14.8125	-9.375	-29.5625	1.1608596	1.3151649	0.57266635
1277137573389	-1.525479	1.7297841	9.425281	-0.103292465	0.0	-14.0625	-9.125	-30.125	1.0484021	1.3308139	0.7227189
1277137573428	-1.8387469	2.152015	9.534244	0.1388998	0.0	-13.0625	-8.375	-29.875	0.9700452	1.2821996	0.7070605
1277137573458	-1.607201	2.1111538	9.534244	0.089907646	0.0	-12.375	-8.125	-29.5625	1.0274708	1.2993715	0.6506878
1277137573488	-1.9885708	2.1792557	9.956474	0.57771015	0.0	-11.375	-7.875	-29.0625	0.9391846	1.2827306	0.7396784
1277137573588	-2.8330324	2.2201166	11.917805	2.6428099	0.0	-9.875	-7.5625	-29.3125	0.8106628	1.2774961	0.90610236
1277137573628	-3.405087	1.8387469	11.727119	2.5424767	0.0	-6.75	-8.375	-30.125	0.75226986	1.2520579	1.0756631
1277137573676	-3.255263	1.0760075	11.141444	1.850378	0.0	-3.5625	-9.625	-30.625	0.8314537	1.2722687	1.2515583
1277137573709	-2.7240696	1.1441092	9.656827	0.29205513	0.0	-0.875	-10.875	-30.375	1.0731227	1.273883	1.1731683
1277137573748	-2.7921712	1.4573772	7.4639506	-1.7053709	0.0	1.375	-12.9375	-29.3125	1.1569704	1.1714873	1.0897423
1277137573782	-3.6774938	2.4516625	6.3198414	-2.094646	0.0	1.8125	-14.5	-28.0625	0.9295428	0.96050495	0.9827937
1277137573848	-3.9499009	3.214402	5.829509	-2.0660253	0.0	2.0625	-15.75	-27.0625	0.87510824	0.85277003	0.8877014
1277137573888	-5.5162406	3.6774938	7.082581	-0.10531902	0.0	2.3125	-16.75	-26.8125	0.8954801	0.8184139	0.9827937
1277137573960	-4.440233	3.2961242	8.308413	0.1738224	0.0	2.8125	-16.75	-27.0625	1.1834054	0.98354506	0.93222123
1277137574018	-4.9850473	2.8738933	7.8180795	-0.0993166	0.0	1.8125	-17.0	-27.0625	1.0494635	0.93631405	1.0478334
1277137574048	-5.09401	2.8330324	6.932757	-0.7491598	0.0	0.875	-16.5	-27.3125	0.9111748	0.871689	1.0632439
1277137574098	-4.5900574	2.8330324	7.3549876	-0.68576527	0.0	-0.625	-16.5	-27.8125	0.9680543	0.9380216	1.017818
1277137574137	-5.7477865	3.568531	9.997335	2.2647276	0.0	-2.3125	-16.75	-27.8125	1.0010425	0.9758616	1.0151846
1277137574189	-6.2789803	2.7240696	7.8861814	0.6354761	0.0	-1.8125	-16.25	-27.8125	0.81937385	0.85600114	1.1614624
1277137574218	-2.5333846	0.7627395	5.09401	-4.0665503	0.0	-0.875	-16.25	-28.0625	1.0288339	1.091767	1.2783533
1277137574248	-1.8387469	1.6480621	8.008764	-1.4258747	0.0	0.125	-16.25	-27.8125	1.7566065	1.2717278	0.8400312
1277137574278	-4.372132	2.3018389	10.800936	2.070816	0.0	1.125	-16.0	-27.8125	1.2930856	1.1417518	1.08619
1277137574318	-4.630918	1.879608	8.117727	-0.27376938	0.0	0.875	-16.25	-28.0625	1.0313209	1.0189352	1.1852292
1277137574358	-3.5276701	2.152015	8.281172	-0.55173683	0.0	-0.625	-16.5	-28.0625	1.2172631	1.1079527	1.0230281
1277137574399	-3.3642259	1.7978859	9.084772	0.046444893	0.0	-1.5625	-15.75	-28.5625	1.2121214	1.1732718	1.0799989
1277137574438	-3.2961242	1.4982382	9.956474	0.78771305	0.0	-2.8125	-15.25	-29.0625	1.168196	1.2220148	1.1441689
1277137574486	-2.7921712	1.4165162	10.269742	0.92975235	0.0	-4.25	-14.75	-29.3125	1.2041167	1.2748781	1.1013122
1277137574518	-2.7921712	1.2258313	10.760075	1.377181	0.0	-5.25	-13.9375	-30.125	1.1064837	1.2946377	1.1571071
1277137574548	-2.8738933	1.9477097	10.528529	1.2795019	0.0	-6.75	-14.25	-30.125	1.1407255	1.2522795	0.9751769
1277137574578	-3.3642259	2.4516625	10.269742	1.2746973	0.0	-8.1875	-14.25	-29.5625	1.0459718	1.1856922	0.94103783
1277137574608	-2.7240696	2.3426998	10.269742	1.0734415	0.0	-9.875	-14.75	-29.3125	1.1603371	1.234254	0.8605253
1277137574649	-1.7570249	2.152015	10.378705	0.93745613	0.0	-11.625	-15.5	-28.5625	1.4183539	1.3092471	0.6846947
1277137574688	-0.84446156	1.6889231	9.997335	0.3674488	0.0	-13.0625	-16.0	-27.8125	1.7369913	1.384118	0.4636476
1277137574728	-0.7218784	1.7297841	10.18802	0.55235577	0.0	-14.5625	-16.75	-27.3125	1.8049767	1.388853	0.3953501
1277137574768	-0.50395286	2.0294318	9.507003	-0.072398186	0.0	-14.8125	-17.0	-27.0625	1.9241664	1.3542935	0.24339889
1277137574808	-0.95342433	1.607201	10.119919	0.4843588	0.0	-14.5625	-18.0625	-26.25	1.7170982	1.3881956	0.5354195
1277137574848	-1.525479	2.4925237	9.425281	0.061261177	0.0	-14.3125	-19.3125	-25.75	1.6143606	1.270147	0.5492122
1277137574888	-2.8330324	3.9090397	8.689782	0.13412285	0.0	-13.0625	-20.625	-25.25	1.3806747	1.0636944	0.6271369
1277137574928	-1.879608	3.255263	7.273266	-1.619461	0.0	-12.375	-21.625	-25.0	1.5550762	1.093786	0.5236405
1277137574958	-0.84446156	2.8738933	6.8237944	-2.3543653	0.0	-11.625	-21.875	-25.0	1.9129146	1.1571585	0.28579485
1277137574998	-1.879608	3.0645783	7.5865335	-1.4114103	0.0	-10.375	-22.125	-24.75	1.646244	1.1282656	0.5501658
1277137575038	-3.568531	3.5276701	7.8180795	-0.51680374	0.0	-9.1875	-21.875	-24.75	1.3078991	1.000188	0.79115623
1277137575078	-3.405087	3.3778462	8.049625	-0.43643475	0.0	-7.6875	-21.875	-25.0	1.3705631	1.0334405	0.7894142
1277137575118	-4.0180025	3.173541	9.00305	0.5505028	0.0	-6.5	-21.375	-25.25	1.3168201	1.0537016	0.9022871
1277137575158	-3.173541	2.8738933	9.425281	0.5454769	0.0	-6.25	-20.625	-26.5	1.439501	1.1444143	0.83490723
1277137575198	-3.3642259	1.7570249	10.760075	1.6031857	0.0	-7.1875	-19.0625	-27.3125	1.247714	1.2316908	1.0894941
1277137575238	-1.334794	1.56634	10.691973	1.0815716	0.0	-8.4375	-17.5625	-27.5625	1.7125878	1.3806471	0.70575476
1277137575278	0.42223078	0.7218784	9.00305	-0.76484203	0.0	-9.4375	-16.75	-28.0625	-3.1228304	1.4781724	-0.5292468
1277137575319	-4.671779	2.6423476	7.5456724	-0.5468073	0.0	-8.1875	-17.3125	-27.3125	0.9150732	0.9525243	1.0560569
1277137575359	-4.5219555	3.214402	8.049625	-0.030304909	0.0	-6.9375	-18.8125	-26.5	1.0649476	0.9673376	0.95282996
1277137575398	-3.568531	3.1463003	7.9679036	-0.5265045	0.0	-5.75	-20.0625	-25.5	1.2926086	1.0325263	0.8481958
1277137575438	-2.2201166	2.4516625	9.575105	0.32361126	0.0	-3.5625	-21.125	-24.5	1.8344897	1.238201	0.73587596
1277137575478	-2.7513103	2.8738933	8.158588	-0.72967243	0.0	-3.0625	-21.125	-24.5	1.6345217	1.1170747	0.7636098
1277137575518	-3.568531	3.0645783	8.049625	-0.48342514	0.0	-2.5625	-20.875	-25.25	1.4191399	1.0419604	0.8612278
1277137575558	-4.8216033	3.6774938	8.349273	0.5123701	0.0	-2.3125	-20.875	-26.0	1.2231108	0.94264436	0.9192092
1277137575598	-3.173541	3.1463003	7.9679036	-0.67111206	0.0	-3.5625	-19.8125	-26.25	1.398723	1.0596569	0.78970855
1277137575638	-1.4982382	2.5333846	9.234595	-0.1143589	0.0	-4.75	-19.0625	-26.25	1.9413334	1.2622544	0.5340704
1277137575668	-2.3699405	2.7240696	8.921328	-0.18234444	0.0	-5.5	-18.5625	-25.5	1.5749847	1.1862215	0.7159911
1277137575708	-3.214402	2.6832085	8.076866	-0.708972	0.0	-6.5	-18.5625	-25.0	1.2867869	1.0925301	0.87522507
1277137575748	-2.8330324	2.4108016	8.689782	-0.35411835	0.0	-7.1875	-19.0625	-25.0	1.3895731	1.1663167	0.8657443
1277137575788	-3.0645783	3.8273177	7.8861814	-0.5205393	0.0	-7.9375	-19.0625	-24.5	1.3266128	1.0145534	0.6751748
1277137575818	-2.5333846	4.372132	8.308413	-0.08228397	0.0	-9.1875	-19.3125	-25.0	1.4216502	1.0243781	0.52516407
1277137575858	-2.1383946	4.7943625	9.112013	0.70940495	0.0	-9.875	-19.0625	-24.75	1.5257974	1.0481192	0.4195415
1277137575898	-1.3075534	3.7864566	9.112013	0.14702892	0.0	-10.875	-19.8125	-24.0	1.8185176	1.156604	0.3325028
1277137575938	-0.53119355	3.336985	9.084772	-0.113832474	0.0	-12.125	-20.0625	-24.0	2.0785248	1.2147102	0.15785922
1277137575978	-0.7218784	2.3426998	8.308413	-1.1441402	0.0	-13.3125	-20.0625	-23.1875	1.979448	1.2838868	0.29890743
1277137576028	-0.84446156	0.9942854	9.80665	0.086382866	0.0	-14.8125	-20.0625	-22.4375	1.6813263	1.4385511	0.70409626
1277137576068	0.84446156	2.6014864	9.724928	0.29558086	0.0	-16.25	-20.375	-21.6875	2.6617975	1.2966309	-0.3138767
1277137576108	0.23154591	6.5922484	9.234595	1.5418777	0.0	-17.25	-20.625	-20.6875	1.8780799	0.9505344	-0.03510953
1277137576170	-0.9125633	3.336985	8.471856	-0.6556616	0.0	-18.4375	-21.625	-19.125	1.8828875	1.1831092	0.26694268
1277137576208	0.7218784	4.399372	9.084772	0.31306648	0.0	-19.6875	-22.625	-18.375	2.3249903	1.1145893	-0.16263738
1277137576248	0.7218784	4.7126403	7.668256	-0.7771301	0.0	-21.125	-22.875	-18.125	2.1875193	1.0145497	-0.15199772
1277137576288	0.040861044	5.2165933	7.9270425	-0.31704998	0.0	-22.625	-23.6875	-17.375	2.0041797	0.98875093	-0.007832739
1277137576318	2.6423476	4.2904096	8.921328	0.43931007	0.0	-24.3125	-23.6875	-16.3125	2.760106	1.0566576	-0.5520092
1277137576358	3.636633	4.7535014	8.539958	0.62176037	0.0	-25.3125	-24.4375	-15.0625	2.8827186	0.959514	-0.6530593
1277137576398	4.7535014	3.636633	7.9679036	0.15870762	0.0	-25.8125	-26.1875	-13.0	-2.9060006	0.92656255	-0.917737
1277137576446	3.1054392	3.255263	5.243834	-2.8973603	0.0	-25.5625	-28.5	-10.4375	-3.0887625	0.86170536	-0.7618479
1277137576478	1.7297841	4.6036777	6.0882955	-1.9801989	0.0	-23.5625	-32.3125	-7.375	2.7423704	0.89133704	-0.35941896
1277137576508	4.944186	4.0180025	9.112013	1.311718	0.0	-21.125	-35.625	-3.8125	-2.6917503	0.960618	-0.8883761
1277137576538	1.0760075	5.175732	10.691973	2.1208086	0.0	-18.1875	-38.4375	-0.75	2.8761435	1.1116173	-0.20497501
1277137576568	1.9477097	5.7477865	4.1814466	-2.436771	0.0	-16.0	-39.75	1.0	3.0463965	0.6033082	-0.3267186
1277137576598	0.92618364	6.851035	3.718355	-1.9567671	0.0	-14.8125	-40.25	2.5625	2.7436337	0.4934678	-0.1343742
1277137576638	-0.0	7.246025	6.469665	-0.09266758	0.0	-14.8125	-40.25	3.8125	2.678296	0.7288547	0.0
1277137576679	1.1168685	7.9679036	5.5162406	-0.05145645	0.0	-16.5	-39.5	4.0625	2.7562354	0.6009994	-0.13926359
1277137576718	1.7570249	9.152874	4.1814466	0.4083748	0.0	-18.1875	-40.0	5.375	2.7096374	0.4217336	-0.1896571
1277137576758	1.56634	8.281172	5.134871	0.06239891	0.0	-19.9375	-40.0	6.125	2.726823	0.5472027	-0.18693635
1277137576800	2.4516625	8.281172	3.6774938	-0.41982841	0.0	-20.6875	-39.75	6.125	2.7837107	0.40255672	-0.28783143
1277137576838	0.9942854	5.829509	5.366417	-1.8210254	0.0	-20.1875	-40.5	7.625	2.7813835	0.7369193	-0.1689351
1277137576878	1.879608	6.932757	5.2165933	-0.9292135	0.0	-19.6875	-40.5	8.4375	2.8909507	0.62811905	-0.2647553
1277137576918	1.334794	8.008764	4.372132	-0.5850706	0.0	-18.6875	-40.75	8.4375	2.7440276	0.49396387	-0.16514869
1277137576958	-0.46309182	8.662541	4.0588636	-0.22915268	0.0	-18.1875	-41.0	8.9375	2.4590409	0.43762743	0.05340828
1277137576988	-0.14982383	8.158588	3.9499009	-0.7409611	0.0	-16.75	-41.0	9.1875	2.5490985	0.45081338	0.018361876
1277137577028	-0.42223078	8.62168	3.8681788	-0.3475561	0.0	-15.25	-42.3125	9.6875	2.551193	0.4212895	0.04893405
1277137577068	0.42223078	9.888372	2.982856	0.5304489	0.0	-13.3125	-42.8125	11.25	2.6836326	0.2927208	-0.0426738
1277137577130	-0.0	10.378705	5.6252036	1.9984522	0.0	-10.875	-43.8125	13.0	2.816884	0.4966764	0.0
1277137577168	-0.38136974	8.049625	4.8216033	-0.4157095	0.0	-8.9375	-44.3125	14.3125	2.8347213	0.53917867	0.047341928
1277137577208	-1.7297841	9.534244	3.8273177	0.61171436	0.0	-6.25	-44.0625	15.0625	2.69841	0.37617177	0.17947632
1277137577248	-0.9942854	7.4639506	3.5276701	-1.4913864	0.0	-4.5	-43.8125	14.8125	2.8279195	0.4381228	0.132432
1277137577288	-1.7297841	6.701211	3.636633	-1.9884996	0.0	-3.0625	-43.5625	13.75	2.7265162	0.48380694	0.25261575
1277137577328	-1.525479	7.6954966	2.9556155	-1.42313	0.0	-2.0625	-43.5625	14.3125	2.7867029	0.3602954	0.19569314
1277137577368	-1.607201	8.240311	4.0180025	-0.49911785	0.0	-2.0625	-43.5625	15.0625	2.8272295	0.44636956	0.19262306
1277137577408	-1.2258313	8.390134	3.6774938	-0.5643034	0.0	-2.0625	-44.0625	16.3125	2.8860557	0.40922245	0.14507742
1277137577448	-1.334794	8.499097	2.9147544	-0.723032	0.0	-2.8125	-44.0625	17.875	2.8386173	0.32665882	0.15577884
1277137577488	-1.4573772	7.8861814	2.8738933	-1.28755	0.0	-3.5625	-44.5625	17.875	2.7875934	0.3440973	0.1827397
1277137577528	-1.1849703	8.921328	3.3778462	-0.19394588	0.0	-4.0625	-44.5625	17.875	2.842326	0.3590596	0.13205148
1277137577558	-2.4925237	9.615966	1.607201	0.25627995	0.0	-4.25	-44.3125	16.8125	2.5621302	0.16040196	0.25362495
1277137577598	-1.8387469	9.302697	2.7921712	0.078559875	0.0	-4.25	-44.8125	15.5625	2.6987512	0.28635702	0.19514205
1277137577638	-1.4982382	10.119919	3.636633	1.050724	0.0	-5.0	-44.0625	13.5	2.743089	0.3415478	0.14698078
1277137577678	-0.9942854	10.460427	4.440233	1.6005764	0.0	-6.0	-43.8125	11.75	2.7899463	0.3998144	0.09476737
1277137577718	0.040861044	10.269742	4.671779	1.4758492	0.0	-7.9375	-43.8125	11.5	2.8767383	0.42692426	-0.003978759
1277137577758	0.53119355	9.425281	3.336985	0.2060194	0.0	-9.875	-44.0625	12.0	2.866637	0.3397764	-0.056298826
1277137577788	0.23154591	7.7363577	2.3426998	-1.7200508	0.0	-11.625	-44.5625	15.5625	2.7883582	0.29391494	-0.029920643
1277137577828	0.38136974	6.4015636	1.1441092	-3.2924771	0.0	-14.0625	-44.5625	20.125	2.7524629	0.17654958	-0.05950414
1277137577868	0.95342433	3.5276701	0.95342433	-6.030079	0.0	-15.25	-44.3125	23.5	3.0503585	0.25521934	-0.2639637
1277137577908	1.4573772	2.6014864	3.486809	-5.218675	0.0	-15.5	-44.0625	23.5	-2.9834566	0.8632957	-0.5106477
1277137577948	1.1168685	5.175732	3.9499009	-3.2007957	0.0	-15.75	-42.5625	16.8125	2.9838219	0.64092785	-0.21253063
1277137577988	0.3405087	2.982856	7.43671	-1.7867975	0.0	-17.0	-38.4375	5.125	2.8315961	1.1871009	-0.113663234
1277137578028	2.7240696	0.53119355	13.824653	4.2938375	0.0	-18.0	-32.5625	-6.875	-2.2296543	1.3726742	-1.378213
1277137578068	2.4925237	0.7218784	15.091345	5.5061703	0.0	-19.6875	-27.0	-15.8125	-2.4223313	1.4005117	-1.2888918
1277137578108	0.46309182	2.2201166	12.14935	2.5525599	0.0	-20.6875	-22.625	-20.4375	2.5275578	1.3862522	-0.20564038
1277137578138	0.6537767	3.214402	9.507003	0.25033283	0.0	-19.6875	-21.375	-21.1875	2.4056976	1.2385548	-0.20065288
1277137578178	1.1441092	2.7240696	8.894087	-0.43465328	0.0	-18.6875	-21.625	-21.4375	2.706051	1.2500696	-0.39762798
1277137578218	1.1849703	2.2201166	9.193735	-0.27471256	0.0	-18.0	-21.875	-21.9375	2.8818665	1.3036155	-0.4902757
1277137578258	1.2666923	2.3018389	8.771504	-0.65010834	0.0	-17.5	-21.875	-22.1875	2.907575	1.2797685	-0.5030703
1277137578288	1.3075534	2.7921712	8.499097	-0.76560116	0.0	-16.75	-22.125	-22.6875	2.8269227	1.222796	-0.4379616
1277137578338	1.607201	3.636633	9.234595	0.24750042	0.0	-15.25	-22.375	-22.6875	2.8349442	1.1642345	-0.41613737
1277137578379	1.1441092	4.2495484	10.269742	1.3663197	0.0	-13.5625	-21.875	-22.9375	2.643412	1.1659414	-0.26299474
1277137578418	-0.5720546	3.8681788	10.460427	1.3607397	0.0	-11.125	-22.375	-22.9375	2.234945	1.2130662	0.14682312
1277137578458	-2.070293	2.4925237	10.991621	1.6526041	0.0	-8.9375	-23.125	-21.9375	1.8144648	1.2841295	0.69312364
1277137578498	-1.2666923	2.1111538	9.234595	-0.24949455	0.0	-8.6875	-24.6875	-21.1875	2.058073	1.3102498	0.5404195
1277137578538	-0.84446156	4.440233	8.076866	-0.551136	0.0	-9.4375	-27.0	-19.125	2.2793362	1.060612	0.18793958
1277137578578	-1.0351465	4.671779	8.158588	-0.348341	0.0	-10.875	-29.0	-17.375	2.248788	1.0403557	0.2180515
1277137578618	-0.0	3.445948	7.8589406	-1.22542	0.0	-12.125	-30.3125	-16.3125	2.6222787	1.1575677	0.0
1277137578658	-0.61291564	3.7864566	6.932757	-1.8835168	0.0	-12.375	-31.3125	-15.8125	2.3688555	1.0654396	0.16047855
1277137578698	-0.6537767	4.7535014	7.273266	-1.093236	0.0	-11.875	-31.5625	-15.5625	2.3597603	0.9876251	0.13667832
1277137578738	0.040861044	4.2086873	9.275456	0.3790655	0.0	-12.125	-31.5625	-15.5625	2.656432	1.1448152	-0.009708433
1277137578778	-0.040861044	3.2961242	9.234595	-0.0013532639	0.0	-12.125	-31.8125	-15.5625	2.6706243	1.2279351	0.01239606
1277137578808	0.38136974	3.3778462	9.193735	-0.0046072006	0.0	-12.5625	-31.5625	-15.5625	2.8023694	1.2166438	-0.11242714
1277137578848	0.46309182	3.8681788	9.425281	0.39203453	0.0	-13.0625	-31.5625	-15.5625	2.7810876	1.1788473	-0.11915122
1277137578888	0.42223078	3.568531	9.084772	-0.03701496	0.0	-13.3125	-31.5625	-15.3125	2.777626	1.1941376	-0.11777305
1277137578918	0.3405087	3.405087	8.962189	-0.21335125	0.0	-14.0625	-31.3125	-15.3125	2.7305176	1.2060475	-0.09966865
1277137578958	0.53119355	3.1463003	8.921328	-0.33187008	0.0	-14.0625	-31.0625	-15.5625	2.816565	1.2273113	-0.16725394
1277137578988	0.38136974	3.718355	9.152874	0.08004284	0.0	-14.3125	-30.5625	-16.3125	2.6968405	1.183086	-0.10220673
1277137579028	0.38136974	3.3778462	9.112013	-0.08121586	0.0	-13.5625	-29.8125	-16.8125	2.7314792	1.2137293	-0.11242714
1277137579068	0.10896278	3.486809	9.425281	0.24350548	0.0	-12.5625	-30.3125	-16.8125	2.6731973	1.2163085	-0.031239834
1277137579108	-0.3405087	3.8273177	9.234595	0.19545269	0.0	-11.875	-31.3125	-16.3125	2.546199	1.1764956	0.08873434
1277137579138	-0.7627395	4.2495484	8.894087	0.0799675	0.0	-10.375	-32.5625	-15.5625	2.4772792	1.1188725	0.17759618
1277137579178	-1.0351465	4.399372	8.689782	-0.011839867	0.0	-9.4375	-34.625	-15.3125	2.4558163	1.0912023	0.2310907
1277137579218	-1.6889231	4.8216033	7.3958488	-0.81782913	0.0	-8.1875	-34.875	-14.8125	2.277321	0.96629035	0.33692646
1277137579248	-0.46309182	4.8216033	8.158588	-0.31850624	0.0	-7.9375	-34.875	-14.5625	2.6650372	1.0350187	0.095751494
1277137579278	-0.29964766	4.5219555	8.240311	-0.40236473	0.0	-7.9375	-34.875	-14.8125	2.7215064	1.0679809	0.06616832
1277137579308	-0.29964766	4.4810944	7.9679036	-0.66020393	0.0	-8.1875	-33.875	-14.8125	2.6934848	1.0575345	0.066769905
1277137579348	-0.50395286	4.671779	8.580819	-0.023504257	0.0	-8.9375	-34.125	-14.8125	2.619449	1.0697954	0.10745621
1277137579388	-0.27240697	6.0474343	8.580819	0.6945934	0.0	-9.1875	-34.625	-13.75	2.6489305	0.95640427	0.04501462
1277137579418	-0.23154591	6.238119	7.9270425	0.2832327	0.0	-9.6875	-35.625	-12.0	2.6441565	0.90373427	0.03710087
1277137579458	-0.08172209	6.701211	7.6954966	0.39793587	0.0	-10.375	-37.1875	-9.9375	2.6735604	0.8543152	0.012194518
1277137579498	0.5720546	6.932757	8.308413	1.0294046	0.0	-10.875	-38.4375	-8.1875	2.8413975	0.87374395	-0.08232822
1277137579538	-0.23154591	7.3141265	7.082581	0.37730885	0.0	-11.125	-39.25	-6.625	2.63502	0.769066	0.031646788
1277137579568	-0.08172209	7.205164	6.742072	0.061307907	0.0	-10.875	-39.5	-5.875	2.6773615	0.75217515	0.01134167
1277137579608	-0.10896278	7.7363577	6.2789803	0.15772152	0.0	-9.875	-40.0	-4.875	2.6865246	0.6817375	0.014083575
1277137579648	-1.2258313	8.076866	4.372132	-0.5409088	0.0	-8.6875	-40.75	-3.0625	2.3888018	0.4913991	0.15062119
1277137579688	-1.879608	8.730643	1.2666923	-0.7865858	0.0	-6.5	-42.3125	0.25	1.9376928	0.14089622	0.212052
1277137579728	-2.4925237	8.349273	0.42223078	-1.083044	0.0	-3.8125	-43.8125	5.875	2.0222242	0.048419863	0.2901093
1277137579768	-2.1111538	8.853226	1.0351465	-0.64651394	0.0	-0.625	-44.8125	15.0625	2.6360114	0.113247484	0.2340898
1277137579805	-1.4165162	10.378705	-0.3405087	0.67380714	0.0	3.0625	-44.3125	25.25	3.0179253	-0.032495588	0.13564484
1277137579838	-2.3018389	8.580819	-1.7570249	-0.7503786	0.0	6.75	-41.25	35.4375	2.9867058	-0.19525017	0.26208374
1277137579878	-3.1054392	7.6273947	-1.4573772	-1.443347	0.0	10.875	-36.4375	44.625	3.0436945	-0.17515276	0.38664877
1277137579918	-3.0237172	7.246025	-0.84446156	-1.909761	0.0	15.5	-29.25	50.75	-3.076909	-0.10714083	0.39532486
1277137579948	-4.372132	5.7886477	-2.4925237	-2.136145	0.0	20.1875	-22.125	54.3125	-3.0751216	-0.3309579	0.6468808
1277137579978	-6.469665	5.243834	-3.759216	-0.6695795	0.0	24.3125	-17.0	55.625	-3.0870802	-0.42401657	0.8896698
1277137580018	-7.082581	6.0882955	-4.4810944	0.55242825	0.0	33.8125	-19.3125	34.3125	-2.6670647	-0.4473486	0.8607465
1277137580058	-5.175732	5.407278	-4.372132	-1.1381788	0.0	36.25	-17.0	32.0	-2.1180987	-0.52865416	0.7635226
1277137580098	-5.597963	4.6036777	-4.630918	-1.2056942	0.0	38.1875	-16.0	29.6875	-1.8695756	-0.5685598	0.8825546
1277137580128	-5.6660647	4.5219555	-4.630918	-1.2044544	0.0	40.375	-14.5	27.4375	-1.6618397	-0.56846774	0.8972291
1277137580168	-7.246025	5.7886477	-5.8567495	1.1621618	0.0	43.5625	-13.4375	24.25	-1.4428418	-0.5632603	0.89674354
1277137580208	-8.580819	6.469665	-2.7240696	1.2797184	0.0	45.75	-12.6875	20.9375	-2.067721	-0.24825561	0.9247604
1277137580248	-9.425281	4.5628166	-0.61291564	0.68290997	0.0	47.75	-11.0	17.5	-2.5026307	-0.058464315	1.1199461
1277137580288	-7.6954966	3.1463003	-1.7570249	-1.3091793	0.0	49.1875	-9.1875	14.9375	-1.9880428	-0.2082728	1.1826844
1277137580328	-7.3958488	4.0180025	-1.879608	-1.1825066	0.0	50.4375	-8.4375	13.125	-1.706325	-0.21971063	1.0731286
1277137580358	-6.3607025	4.944186	-1.4573772	-1.6196194	0.0	50.4375	-7.9375	14.1875	-1.8094089	-0.17896426	0.91004974
1277137580388	-5.597963	5.09401	-2.3018389	-1.895608	0.0	49.4375	-7.9375	17.25	-1.7268119	-0.29523566	0.83249706
1277137580418	-4.5900574	4.944186	-4.1814466	-1.8695159	0.0	47.5	-9.4375	21.3125	-1.4810681	-0.55485576	0.7482724
1277137580458	-3.0645783	4.903325	-6.742072	-0.9246588	0.0	43.8125	-11.25	27.1875	-1.3448929	-0.8618866	0.55859935
1277137580488	-2.7513103	6.0474343	-7.7363577	0.391016	0.0	38.1875	-13.25	33.0625	-1.5842527	-0.8612231	0.42696685
1277137580518	-1.9477097	5.829509	-8.390134	0.5938835	0.0	31.375	-15.3125	38.375	-1.6883533	-0.93855035	0.32245135
1277137580558	-0.46309182	5.09401	-8.267551	-0.08472633	0.0	24.0	-16.8125	42.1875	-1.837309	-1.0167505	0.090659894
1277137580588	0.38136974	6.66035	-10.269742	2.4397087	0.0	15.9375	-17.375	44.5	-2.1248484	-0.99469995	-0.057197258
1277137580628	2.152015	5.7886477	-10.460427	2.340784	0.0	10.5625	-17.875	45.5625	-2.2066605	-1.0374732	-0.35593122
1277137580658	1.879608	5.2165933	-8.471856	0.31847286	0.0	6.1875	-17.875	46.0625	-2.3976889	-0.99125946	-0.3458329
1277137580688	1.4982382	4.1814466	-8.19945	-0.48140526	0.0	3.0	-17.625	46.8125	-2.3463519	-1.0743368	-0.34405527
1277137580728	0.53119355	3.718355	-8.308413	-0.68864346	0.0	3.0	-17.375	47.3125	-2.229828	-1.1462102	-0.14189705
1277137580758	0.14982383	4.2495484	-7.8589406	-0.8711004	0.0	3.5	-17.0625	47.5625	-2.6548114	-1.07484	-0.035241816
1277137580798	0.53119355	4.5219555	-8.19945	-0.427886	0.0	5.1875	-17.0625	47.8125	-2.466677	-1.0639031	-0.11693397
1277137580838	0.95342433	5.134871	-7.9270425	-0.31381512	0.0	7.625	-16.8125	47.5625	-2.4784477	-0.98823327	-0.1835857
1277137580878	1.1441092	5.175732	-8.62168	0.3141489	0.0	9.625	-16.5625	47.5625	-2.3535104	-1.0195595	-0.21755412
1277137580908	1.1849703	5.284695	-9.112013	0.7933941	0.0	10.5625	-16.5625	47.8125	-2.303047	-1.034526	-0.22057837
1277137580948	1.3756552	5.012288	-9.343558	0.8852873	0.0	11.3125	-16.8125	47.8125	-2.221426	-1.0631442	-0.26786086
1277137580978	0.6537767	4.3312707	-8.730643	-0.038770676	0.0	12.3125	-17.0625	47.3125	-2.0569556	-1.1057739	-0.14981246
1277137581008	0.50395286	4.440233	-8.812365	0.07400799	0.0	13.25	-17.0625	47.0625	-2.0319092	-1.1014857	-0.11301333
1277137581048	0.84446156	4.7126403	-9.00305	0.39026165	0.0	15.0	-16.5625	46.5625	-2.0769646	-1.0820438	-0.17730898
1277137581088	0.7218784	4.7943625	-8.117727	-0.3512535	0.0	17.9375	-15.5625	45.5625	-2.1261506	-1.032393	-0.14944558
1277137581118	-1.0351465	4.3312707	-6.1291566	-2.2305036	0.0	21.0625	-14.5625	45.0	-2.143722	-0.94246095	0.23459327
1277137581158	-1.7297841	3.6774938	-8.117727	-0.72845554	0.0	23.3125	-14.5625	44.25	-1.5140045	-1.1066424	0.4396642
1277137581198	-1.607201	4.140586	-9.724928	0.8845501	0.0	25.25	-15.5625	43.75	-1.3868263	-1.142368	0.37025613
1277137581228	-0.7627395	3.9499009	-9.656827	0.65460205	0.0	25.75	-17.0625	43.75	-1.4289957	-1.1760765	0.19075556
1277137581268	-0.7218784	3.636633	-8.962189	-0.10783386	0.0	25.5	-18.625	43.75	-1.3524785	-1.1785423	0.19595462
1277137581310	-1.7570249	3.173541	-8.008764	-1.0146761	0.0	25.5	-19.125	43.5	-0.99091697	-1.1455027	0.50563973
1277137581348	-1.3756552	3.336985	-8.580819	-0.49760342	0.0	25.75	-18.625	43.0	-1.1123284	-1.1726261	0.3910176
1277137581388	-1.56634	3.3778462	-8.880466	-0.17721844	0.0	26.25	-18.375	42.75	-1.0593433	-1.1737864	0.4341962
1277137581418	-1.7297841	3.6774938	-8.689782	-0.21350574	0.0	26.4375	-18.375	42.75	-1.1532027	-1.1333408	0.43966419
1277137581448	-1.4573772	3.8273177	-8.539958	-0.33547306	0.0	27.4375	-18.625	43.0	-1.2696834	-1.123636	0.36383095
1277137581488	-1.3075534	3.718355	-8.471856	-0.4627638	0.0	27.1875	-18.375	43.0	-1.2845298	-1.1353306	0.33814254
1277137581518	-1.4982382	3.636633	-8.349273	-0.5773392	0.0	26.9375	-18.125	43.0	-1.2431804	-1.1305518	0.39079538
1277137581548	-1.2258313	3.759216	-8.390134	-0.53148365	0.0	27.1875	-17.625	43.25	-1.3608031	-1.1303945	0.31521466
1277137581578	-1.0351465	3.8681788	-8.62168	-0.300457	0.0	26.9375	-17.0625	42.75	-1.4212126	-1.1359957	0.2614788
1277137581608	-1.3756552	4.0588636	-8.812365	-0.007437706	0.0	27.4375	-17.0625	42.75	-1.3896664	-1.1181506	0.32677564
1277137581638	-1.7570249	4.1814466	-8.539958	-0.13698006	0.0	27.4375	-16.8125	42.75	-1.4111646	-1.0825771	0.39779416
1277137581668	-1.9477097	4.0180025	-8.240311	-0.43431664	0.0	26.9375	-17.875	41.9375	-1.3040575	-1.0742153	0.4513699
1277137581708	-1.4165162	4.2904096	-7.8861814	-0.7178669	0.0	26.9375	-18.875	41.9375	-1.4678278	-1.050522	0.3188907
1277137581749	-1.4165162	4.671779	-6.782933	-1.449604	0.0	27.1875	-20.125	41.9375	-1.6922841	-0.94695836	0.2943964
1277137581788	-1.607201	4.4810944	-6.782933	-1.519824	0.0	27.4375	-21.6875	40.9375	-1.5290097	-0.9588301	0.3443711
1277137581828	-2.4925237	4.7126403	-6.891896	-1.0934486	0.0	27.6875	-22.6875	39.9375	-1.451218	-0.9123955	0.48650077
1277137581868	-2.4925237	5.6660647	-7.8180795	0.16527653	0.0	27.6875	-24.25	39.1875	-1.4546328	-0.90109795	0.4144263
1277137581908	-1.7297841	5.134871	-7.8589406	-0.2608652	0.0	27.6875	-26.0	37.625	-1.2377372	-0.96718144	0.3249302
1277137581938	-1.9885708	5.434519	-7.8861814	-0.025021553	0.0	28.1875	-26.8125	37.125	-1.2286569	-0.93774104	0.35078186
1277137581978	-1.2258313	5.407278	-7.8180795	-0.22209549	0.0	28.9375	-27.5625	37.125	-1.3200041	-0.95393074	0.22293217
1277137582008	-1.9477097	5.407278	-8.008764	0.050962448	0.0	29.875	-27.3125	36.375	-1.1742213	-0.9483328	0.34573397
1277137582048	-2.2201166	5.366417	-8.049625	0.11926651	0.0	30.875	-26.25	36.375	-1.1643542	-0.9458089	0.39226544
1277137582088	-1.607201	4.944186	-7.5456724	-0.6433954	0.0	32.0625	-25.75	35.8125	-1.2292525	-0.9675016	0.31429422
1277137582128	-2.6423476	5.09401	-7.9270425	-0.020489693	0.0	33.3125	-24.5	35.5625	-1.1052684	-0.9441961	0.47850856
1277137582168	-3.336985	5.5571017	-7.8861814	0.4016161	0.0	34.3125	-23.75	35.8125	-1.2024074	-0.8828143	0.5407799
1277137582208	-2.8330324	5.5571017	-8.158588	0.46320915	0.0	35.0	-23.5	35.8125	-1.2197943	-0.91805315	0.47145993
1277137582248	-3.1463003	5.434519	-7.3958488	-0.104496956	0.0	35.25	-22.9375	35.8125	-1.2932974	-0.866843	0.5247958
1277137582278	-3.2961242	5.325556	-7.014479	-0.40298653	0.0	35.75	-22.1875	35.3125	-1.3304567	-0.84193087	0.5542195
1277137582308	-3.8681788	4.944186	-6.1700177	-1.0045538	0.0	36.25	-21.4375	34.5625	-1.3875387	-0.7767586	0.6638976
1277137582348	-3.5276701	4.903325	-5.8567495	-1.3930559	0.0	36.75	-21.1875	34.0625	-1.4309517	-0.7699586	0.62365705
1277137582389	-3.1463003	5.6252036	-6.8237944	-0.42015457	0.0	36.5	-21.4375	34.0625	-1.4238868	-0.8139135	0.5099721
1277137582428	-3.445948	6.510526	-8.430995	1.3890266	0.0	35.5	-22.1875	34.3125	-1.3506957	-0.8526977	0.48680308
1277137582468	-3.568531	6.1291566	-6.891896	0.082696915	0.0	35.0	-23.5	34.5625	-1.4820797	-0.77106714	0.527245
1277137582498	-2.9147544	7.6954966	-5.407278	0.039928436	0.0	33.5625	-24.25	35.0625	-1.9959052	-0.5813504	0.36206394
1277137582528	-1.0351465	6.932757	-5.6252036	-0.81901646	0.0	32.5625	-25.25	35.8125	-1.8861691	-0.67626274	0.1482174
1277137582568	-3.9090397	5.325556	-5.012288	-1.5141735	0.0	31.875	-26.25	36.125	-1.9948461	-0.64906025	0.6331922
1277137582598	-5.5162406	6.891896	-4.671779	0.18097496	0.0	30.125	-27.8125	36.375	-2.7058957	-0.48675108	0.6749819
1277137582638	-1.9477097	10.337844	-6.2789803	2.44448	0.0	29.625	-29.0625	35.8125	-2.0816863	-0.53812	0.18622285
1277137582668	-3.173541	8.539958	-4.3312707	0.28107357	0.0	29.875	-30.125	34.5625	-2.2665477	-0.44378465	0.35579604
1277137582708	-3.5276701	7.273266	-3.636633	-0.9426813	0.0	29.875	-31.125	33.5625	-2.3736331	-0.42275164	0.45159093
1277137582748	-3.2961242	7.3958488	-4.1814466	-0.69360924	0.0	30.125	-31.625	32.5	-2.1697955	-0.47669157	0.41924912
1277137582778	-2.9556155	8.240311	-5.202973	0.3771267	0.0	30.625	-32.625	31.25	-1.8902231	-0.53624076	0.34438446
1277137582811	-3.718355	8.390134	-3.255263	-0.06923485	0.0	30.125	-33.9375	30.25	-2.3657374	-0.3408673	0.41716948
1277137582848	-3.8681788	7.9270425	-2.982856	-0.49546146	0.0	30.125	-35.4375	28.9375	-2.4150813	-0.32610086	0.45397937
1277137582888	-3.6774938	7.1234417	-2.7921712	-1.3176212	0.0	30.375	-36.75	27.4375	-2.3781424	-0.3351547	0.47656482
1277137582928	-3.568531	9.193735	-1.7978859	0.21789837	0.0	30.375	-37.25	26.125	-2.4383895	-0.18032399	0.37024766
1277137582968	-4.2086873	8.580819	-1.607201	-0.11507702	0.0	30.375	-38.25	25.375	-2.5942698	-0.16660456	0.45599955
1277137582998	-4.5219555	7.3958488	-0.50395286	-1.1232967	0.0	30.375	-39.0	23.875	-2.882096	-0.058069292	0.5487729
1277137583038	-3.9771416	7.3958488	-0.42223078	-1.3986473	0.0	30.625	-39.5625	22.0625	-2.7430422	-0.050238855	0.49339208
1277137583078	-4.440233	8.349273	-1.0760075	-0.28909683	0.0	31.125	-40.3125	20.5625	-2.616284	-0.11329728	0.4887712
1277137583118	-5.325556	7.6954966	0.50395286	-0.4345541	0.0	32.3125	-40.5625	17.75	-2.9731119	0.053797577	0.60536057
1277137583148	-6.238119	7.0553403	0.84446156	-0.3512249	0.0	33.8125	-40.0625	16.1875	3.0836954	0.089428894	0.724
1277137583188	-6.469665	6.6331096	0.92618364	-0.49469376	0.0	35.75	-39.3125	15.1875	3.050795	0.09962649	0.7729248
1277137583246	-6.0474343	5.8567495	0.6537767	-1.3626938	0.0	37.25	-38.75	13.875	3.035215	0.077502966	0.8014151
1277137583307	-3.9771416	3.1463003	1.6889231	-4.461622	0.0	38.1875	-37.75	13.625	2.9456437	0.32148963	0.90150833
1277137583358	-7.8861814	11.836082	0.6537767	4.4310503	0.0	38.4375	-38.25	13.625	-2.5502274	0.045934856	0.58773696
1277137583398	-5.8976107	8.349273	0.27240697	0.41911983	0.0	37.25	-40.0625	13.875	-2.696173	0.026642414	0.61498314
1277137583428	-5.284695	7.9679036	-0.08172209	-0.24515629	0.0	35.25	-41.3125	15.1875	-2.7235622	-0.008547105	0.58563197
1277137583458	-5.6252036	9.112013	0.313268	0.90641785	0.0	33.5625	-43.125	15.9375	-2.8164876	0.02924584	0.55307156
1277137583488	-5.325556	8.158588	0.5720546	-0.046970367	0.0	31.625	-44.125	16.4375	-3.0215251	0.058647692	0.57830924
1277137583528	-5.325556	6.701211	0.61291564	-1.2250748	0.0	30.875	-44.125	16.1875	2.97884	0.071483135	0.67151034
1277137583558	-5.6252036	6.2108784	0.7627395	-1.3923941	0.0	30.625	-44.625	15.1875	2.7932746	0.090773076	0.7359564
1277137583588	-5.434519	6.0201936	1.6480621	-1.5306101	0.0	30.625	-45.4375	13.375	2.829511	0.20047675	0.7343131
1277137583618	-5.47538	9.507003	1.9477097	1.3359013	0.0	31.375	-46.1875	11.375	-2.9464734	0.17570187	0.52253383
1277137583658	-5.284695	9.507003	1.7570249	1.2114363	0.0	31.125	-46.9375	9.3125	-2.9037387	0.16015105	0.50734174
1277137583688	-5.407278	5.829509	2.4925237	-1.4739132	0.0	31.375	-47.4375	7.75	2.775969	0.30377474	0.7478401
1277137583728	-5.47538	8.349273	1.56634	0.29996014	0.0	31.125	-47.4375	7.5	-3.1407719	0.15560897	0.58043563
1277137583768	-5.243834	7.9270425	1.7570249	-0.14109612	0.0	30.625	-47.1875	7.25	3.1132417	0.18279848	0.5844255
1277137583798	-5.366417	6.5922484	2.2201166	-1.0211458	0.0	30.375	-47.4375	8.0625	2.8581629	0.25547212	0.68324924
1277137583838	-5.706926	8.471856	2.2609777	0.6553469	0.0	29.625	-47.1875	8.3125	3.052839	0.21783203	0.5928103
1277137583878	-4.8216033	5.706926	1.607201	-2.1646633	0.0	29.375	-47.1875	8.3125	2.755105	0.21189402	0.70150757
1277137583908	-4.7943625	6.469665	1.3756552	-1.6375065	0.0	28.9375	-47.4375	9.0625	2.8745065	0.16920272	0.6377502
1277137583958	-5.7477865	7.205164	1.9477097	-0.38619328	0.0	28.4375	-48.1875	9.3125	2.778247	0.20825528	0.67335624
1277137583988	-5.134871	7.7772183	1.4982382	-0.36754322	0.0	28.4375	-48.4375	9.8125	2.9838705	0.15940087	0.5835438
1277137584028	-4.9850473	8.730643	1.1849703	0.31653976	0.0	27.9375	-48.4375	10.0625	-3.1268642	0.117323995	0.51881003
1277137584068	-4.862464	8.471856	1.3756552	0.057847977	0.0	28.1875	-49.0	10.5625	-3.1385803	0.13991119	0.52104855
1277137584108	-4.9850473	7.9270425	1.4982382	-0.32332706	0.0	28.6875	-48.1875	11.125	3.0727608	0.15865134	0.56137455
1277137584138	-5.175732	6.5922484	1.1849703	-1.3420124	0.0	28.6875	-48.1875	11.875	2.7889147	0.14045198	0.6656041
1277137584196	-5.5571017	9.00305	1.3756552	0.86240387	0.0	28.9375	-47.9375	12.875	3.113851	0.12929878	0.5530044
1277137584238	-5.134871	7.6273947	1.0760075	-0.5491209	0.0	28.1875	-47.4375	13.125	2.9829943	0.11649382	0.59252185
1277137584280	-5.6252036	7.6273947	1.3756552	-0.22998619	0.0	27.9375	-46.9375	13.375	2.8915193	0.14414525	0.635453
1277137584320	-5.6660647	9.084772	1.0351465	0.95015717	0.0	27.1875	-47.1875	13.125	3.037985	0.096380904	0.5576554
1277137584358	-4.0180025	8.076866	1.0760075	-0.72161293	0.0	26.4375	-47.4375	13.125	-3.0117044	0.11871598	0.46162194
1277137584398	-4.0588636	6.5513873	1.1849703	-2.0092654	0.0	25.75	-47.6875	13.125	2.9905598	0.15256132	0.55466527
1277137584428	-4.140586	6.5922484	0.88532263	-1.9717293	0.0	23.3125	-49.0	13.125	2.8224778	0.11323886	0.5608248
1277137584468	-4.3312707	6.891896	0.5720546	-1.6466637	0.0	20.125	-49.5	13.625	2.6478813	0.07016239	0.5610825
1277137584498	-1.3756552	9.888372	-0.10896278	0.17754745	0.0	16.1875	-50.75	14.1875	-2.5554051	-0.010913741	0.13823123
1277137584528	-0.10896278	9.956474	0.46309182	0.16118336	0.0	11.3125	-52.0625	14.6875	-2.5805955	0.04647535	0.010943475
1277137584558	0.84446156	10.079058	0.6537767	0.3288288	0.0	7.125	-52.5625	15.4375	-2.5917635	0.0645486	-0.083588555
1277137584598	0.7218784	11.372991	1.879608	1.7431955	0.0	4.6875	-52.8125	15.6875	-2.8190534	0.16346583	-0.06338802
1277137584628	0.6946377	9.384419	0.42223078	-0.38708973	0.0	3.25	-53.0625	15.6875	-2.7637224	0.044839915	-0.073885575
1277137584658	0.9942854	9.425281	0.46309182	-0.31776333	0.0	3.25	-52.8125	15.9375	-2.6980705	0.04882299	-0.105102606
1277137584688	0.6946377	9.193735	0.5720546	-0.5689812	0.0	3.25	-52.3125	15.6875	-2.7779613	0.061965946	-0.075412266
1277137584728	0.42223078	8.962189	0.5720546	-0.8163023	0.0	2.75	-52.8125	15.9375	-2.876244	0.06367288	-0.047077652
1277137584768	0.27240697	9.112013	0.61291564	-0.6699848	0.0	2.5	-52.5625	15.9375	-2.9350379	0.06713349	-0.029886466
1277137584798	0.08172209	8.962189	0.7627395	-0.81169224	0.0	1.75	-52.8125	15.9375	-3.0324106	0.084898286	-0.009118289
1277137584838	0.5720546	9.152874	0.61291564	-0.6154585	0.0	2.0	-53.3125	16.1875	-2.8776453	0.066734634	-0.06241881
1277137584878	0.8036005	9.615966	0.50395286	-0.14401436	0.0	2.5	-53.0625	15.9375	-2.7869735	0.05217848	-0.08337566
1277137584908	0.313268	9.084772	0.84446156	-0.6773386	0.0	2.5	-53.0625	15.9375	-2.7869735	0.05217848	-0.08337566
1277137584938	0.313268	9.275456	0.53119355	-0.5107155	0.0	2.5	-53.3125	15.6875	-2.9156907	0.057173707	-0.033761032
1277137584968	0.3405087	9.302697	0.53119355	-0.48258018	0.0	2.0	-53.3125	15.4375	-2.9306757	0.057001	-0.03658689
1277137584998	0.313268	9.084772	0.6537767	-0.6929989	0.0	1.75	-53.5625	15.9375	-2.9613872	0.07179765	-0.0344691
1277137585038	0.38136974	9.193735	0.5720546	-0.58724403	0.0	1.5	-53.8125	15.6875	-2.947688	0.06208885	-0.041457713
1277137585078	0.23154591	9.234595	0.61291564	-0.5488415	0.0	2.0	-53.5625	15.1875	-2.964707	0.06625372	-0.025068495
1277137585118	-0.040861044	9.112013	0.7627395	-0.6626787	0.0	2.25	-53.3125	15.4375	-3.0405383	0.0835115	0.004484275
1277137585148	0.19068487	9.043911	0.46309182	-0.74888325	0.0	2.5	-53.0625	14.6875	-2.9363303	0.051148787	-0.021081213
1277137585188	0.19068487	8.921328	0.7218784	-0.8541336	0.0	2.5	-53.0625	14.9375	-2.9542081	0.080721766	-0.021370793
1277137585218	0.10896278	9.193735	0.6537767	-0.58905506	0.0	2.75	-52.5625	15.4375	-2.9670281	0.070986636	-0.011851297
1277137585258	0.14982383	8.853226	0.6537767	-0.92805386	0.0	3.0	-52.5625	15.4375	-2.9423702	0.07370185	-0.016921462
1277137585298	0.19068487	8.771504	0.42223078	-1.0229187	0.0	3.0	-52.5625	15.4375	-2.9423702	0.07370185	-0.016921462
1277137585339	-0.08172209	8.730643	0.84446156	-1.0348816	0.0	3.75	-51.8125	14.9375	-2.9786499	0.096419714	0.009360101
1277137585378	0.7218784	9.425281	0.6537767	-0.3311844	0.0	4.0	-52.0625	14.6875	-2.729371	0.069051646	-0.076440364
1277137585418	-0.29964766	9.507003	1.0760075	-0.23425865	0.0	4.4375	-51.8125	14.4375	-3.0035932	0.11264546	0.031508196
1277137585458	-0.27240697	8.539958	0.5720546	-1.2432203	0.0	4.6875	-51.8125	14.6875	-2.9757695	0.06685183	0.031887114
1277137585488	-0.27240697	8.962189	0.38136974	-0.83221626	0.0	5.6875	-52.3125	15.1875	-2.9104633	0.04250793	0.030385783
1277137585518	0.42223078	8.853226	0.313268	-0.9378271	0.0	6.1875	-52.3125	15.4375	-2.6760485	0.035329737	-0.0476562
1277137585548	1.0351465	9.384419	0.6946377	-0.3397932	0.0	6.1875	-52.3125	15.4375	-2.6760485	0.035329737	-0.0476562
1277137585578	2.2609777	10.923519	1.0760075	1.4001818	0.0	5.9375	-52.3125	15.9375	-2.4702876	0.09616166	-0.20410044
1277137585608	2.5333846	9.043911	0.19068487	-0.4126768	0.0	4.6875	-52.3125	16.1875	-2.3159044	0.020300034	-0.2731204
1277137585638	1.9885708	9.234595	-0.29964766	-0.35562134	0.0	3.5	-52.3125	15.9375	-2.3526266	-0.03171061	-0.2121004
1277137585668	1.334794	9.384419	0.50395286	-0.31439114	0.0	3.0	-52.8125	16.1875	-2.638666	0.0531159	-0.14128743
1277137585708	0.6537767	9.302697	1.0351465	-0.4237337	0.0	3.25	-52.5625	15.9375	-2.8312588	0.11054749	-0.070162825
1277137585748	0.95342433	9.00305	0.8036005	-0.71766186	0.0	3.0	-52.8125	15.9375	-2.746497	0.08853033	-0.10550691
1277137585778	0.46309182	8.730643	0.61291564	-1.0422764	0.0	3.0	-53.0625	16.1875	-2.8569148	0.06998975	-0.052992456
1277137585808	0.7218784	8.962189	0.6946377	-0.7886429	0.0	2.5	-52.5625	15.6875	-2.812613	0.077104226	-0.08037359
1277137585838	0.95342433	9.00305	0.6537767	-0.72968197	0.0	2.0	-52.8125	15.6875	-2.7706733	0.07208831	-0.10550691
1277137585878	1.1441092	8.853226	0.7627395	-0.84727764	0.0	2.0	-52.3125	15.6875	-2.7322474	0.08523631	-0.12851849
1277137585918	1.1441092	9.275456	0.6537767	-0.43805885	0.0	1.75	-52.3125	15.6875	-2.7416348	0.069840655	-0.12272811
1277137585948	1.1441092	9.084772	0.53119355	-0.63472366	0.0	2.25	-52.5625	15.9375	-2.7061315	0.05794758	-0.1252775
1277137585988	1.1849703	9.043911	0.46309182	-0.67369175	0.0	1.5	-52.5625	15.6875	-2.7150707	0.05072732	-0.13028196
1277137586018	1.1849703	9.112013	0.53119355	-0.6025696	0.0	2.0	-52.3125	15.6875	-2.7036169	0.05774492	-0.1293191
1277137586098	1.1849703	9.043911	0.53119355	-0.6699848	0.0	1.75	-52.0625	15.6875	-2.7139874	0.058171466	-0.13028196
1277137586138	1.1168685	9.00305	0.42223078	-0.7247677	0.0	2.75	-52.3125	15.4375	-2.6663408	0.046508312	-0.1234239
1277137586178	1.1441092	9.152874	0.53119355	-0.56726456	0.0	2.0	-52.8125	15.4375	-2.7074866	0.05752402	-0.124354996
1277137586208	1.1168685	9.084772	0.61291564	-0.63298416	0.0	2.0	-52.8125	15.1875	-2.7168891	0.066862315	-0.12232473
1277137586248	0.9942854	9.084772	0.5720546	-0.64974403	0.0	2.0	-52.8125	14.9375	-2.7392678	0.06251319	-0.109011404
1277137586279	1.0351465	9.084772	0.53119355	-0.6476784	0.0	1.5	-52.8125	14.9375	-2.7471874	0.058029633	-0.11345373
1277137586308	1.0760075	9.043911	0.5720546	-0.68100643	0.0	1.75	-52.5625	14.6875	-2.7241018	0.06272762	-0.118419245
1277137586338	1.1168685	9.084772	0.5720546	-0.63562393	0.0	2.0	-52.3125	14.4375	-2.6984859	0.062416814	-0.12232473
1277137586369	1.1441092	9.084772	0.46309182	-0.6384163	0.0	2.25	-52.3125	14.6875	-2.6719096	0.050531976	-0.1252775
1277137586399	1.1441092	9.084772	0.50395286	-0.636261	0.0	2.25	-51.8125	15.4375	-2.695905	0.054982055	-0.1252775
1277137586428	1.0351465	9.112013	0.5720546	-0.61820316	0.0	2.0	-52.0625	15.4375	-2.7418692	0.062298324	-0.11311745
1277137586459	1.0760075	9.152874	0.53119355	-0.57544994	0.0	1.75	-52.3125	15.9375	-2.747912	0.057575084	-0.11702241
1277137586498	1.2666923	9.152874	0.53119355	-0.55128574	0.0	2.0	-53.0625	16.1875	-2.6916316	0.057424605	-0.13751933
1277137586528	1.2258313	9.152874	0.6537767	-0.54894066	0.0	2.25	-53.5625	15.1875	-2.682134	0.07067853	-0.13313633
1277137586558	1.1849703	9.112013	0.53119355	-0.6025696	0.0	2.0	-53.3125	14.9375	-2.6831286	0.05774492	-0.1293191
1277137586588	1.0760075	9.043911	0.6537767	-0.67551994	0.0	1.75	-53.5625	14.9375	-2.734232	0.07165998	-0.118419245
1277137586628	0.88532263	9.112013	0.6946377	-0.6254139	0.0	1.3125	-53.0625	14.4375	-2.8047278	0.07573078	-0.09685592
1277137586658	0.95342433	9.112013	0.6946377	-0.61859703	0.0	1.3125	-53.0625	14.9375	-2.7945082	0.07567448	-0.10425442
1277137586688	0.9942854	9.112013	0.6946377	-0.61426735	0.0	1.5	-53.5625	15.1875	-2.7774317	0.07563877	-0.10868807
1277137586728	1.0351465	9.084772	0.5720546	-0.64521694	0.0	2.0	-53.3125	15.1875	-2.7314472	0.062482253	-0.11345373
1277137586768	1.1168685	9.00305	0.5720546	-0.7165699	0.0	2.25	-52.8125	15.1875	-2.699185	0.06297336	-0.1234239
1277137586798	1.1168685	9.00305	0.6537767	-0.7110615	0.0	2.5	-52.5625	14.6875	-2.6882885	0.071940474	-0.1234239
1277137586838	1.0760075	9.112013	0.6946377	-0.60506916	0.0	2.25	-52.3125	14.9375	-2.7226973	0.07556302	-0.117542356
1277137586878	0.9942854	9.084772	0.6537767	-0.64427567	0.0	1.75	-52.3125	14.6875	-2.7567635	0.0714152	-0.109011404
1277137586918	1.0760075	9.084772	0.6537767	-0.6350479	0.0	1.5	-52.5625	15.4375	-2.7597632	0.07134322	-0.11789156
1277137586948	1.1441092	9.112013	0.61291564	-0.6026602	0.0	1.0625	-52.5625	15.6875	-2.7630792	0.066641696	-0.124906875
1277137586978	1.1849703	9.112013	0.53119355	-0.6025696	0.0	1.5	-52.5625	15.9375	-2.7294645	0.05774492	-0.1293191
1277137587008	1.1849703	9.043911	0.53119355	-0.6699848	0.0	1.5	-52.3125	16.1875	-2.7336152	0.058171466	-0.13028196
1277137587048	1.1849703	8.962189	0.61291564	-0.7457094	0.0	1.75	-52.5625	15.9375	-2.7234595	0.0676954	-0.13145635
1277137587088	1.1441092	9.234595	0.5720546	-0.48388386	0.0	2.0	-52.3125	16.1875	-2.7308745	0.061399613	-0.12326568
1277137587128	0.9942854	9.152874	0.6537767	-0.576746	0.0	1.5	-52.3125	16.1875	-2.7957752	0.07089181	-0.108206645
1277137587168	0.95342433	9.193735	0.6537767	-0.5405178	0.0	1.75	-52.8125	16.1875	-2.7940028	0.07061419	-0.10333432
1277137587208	0.8036005	9.084772	0.46309182	-0.6746559	0.0	1.75	-52.8125	15.9375	-2.809978	0.05073268	-0.08822614
1277137587238	0.84446156	8.921328	0.313268	-0.8399706	0.0	1.5	-52.8125	15.9375	-2.792223	0.034944013	-0.0943753
1277137587278	0.92618364	9.084772	0.42223078	-0.6650324	0.0	1.5	-52.5625	15.4375	-2.7760844	0.04620419	-0.101598
1277137587308	1.0760075	9.112013	0.46309182	-0.619647	0.0	1.0625	-52.8125	15.1875	-2.7549856	0.050428648	-0.117542356
1277137587338	1.1168685	9.084772	0.61291564	-0.63298416	0.0	0.8125	-53.0625	15.4375	-2.77414	0.066862315	-0.12232473
1277137587378	1.1168685	9.084772	0.6537767	-0.63016415	0.0	1.0625	-53.5625	15.4375	-2.7647047	0.071305186	-0.12232472
1277137587408	1.1168685	9.112013	0.6946377	-0.6002016	0.0	1.5	-54.0625	15.6875	-2.7525723	0.07552299	-0.12196265
1277137587438	0.9942854	9.112013	0.5720546	-0.6227169	0.0	2.25	-53.5625	15.9375	-2.7448716	0.06232898	-0.10868808
1277137587478	0.88532263	9.112013	0.50395286	-0.6378689	0.0	2.25	-53.0625	15.6875	-2.7634597	0.054991707	-0.09685593
1277137587508	0.92618364	9.152874	0.53119355	-0.591712	0.0	2.25	-52.8125	15.9375	-2.7617788	0.057676807	-0.10084719
1277137587548	0.9942854	9.152874	0.46309182	-0.5882902	0.0	2.0	-52.5625	15.6875	-2.7445965	0.050256968	-0.10820664
1277137587578	0.9942854	9.112013	0.53119355	-0.62517166	0.0	1.75	-53.0625	15.9375	-2.7649617	0.057887226	-0.10868807
1277137587608	0.95342433	9.112013	0.5720546	-0.6270504	0.0	2.25	-53.3125	15.9375	-2.756277	0.062358443	-0.10425442
1277137587638	0.88532263	9.152874	0.61291564	-0.5906553	0.0	2.0	-53.3125	15.6875	-2.7857952	0.06655476	-0.09642622
1277137587668	0.88532263	9.193735	0.61291564	-0.55007267	0.0	2.0	-53.3125	15.1875	-2.777886	0.06626254	-0.09600029
1277137587708	0.9942854	9.193735	0.61291564	-0.5390167	0.0	2.0	-53.0625	14.4375	-2.7352548	0.06618339	-0.10772945
1277137587748	1.0760075	9.152874	0.5720546	-0.57300854	0.0	1.5	-52.8125	14.4375	-2.7322924	0.061993007	-0.1170224
1277137587788	1.0760075	9.112013	0.46309182	-0.619647	0.0	1.5	-52.8125	14.4375	-2.7322924	0.061993007	-0.1170224
1277137587823	1.0760075	9.152874	0.53119355	-0.57544994	0.0	1.5	-52.5625	14.9375	-2.7389467	0.057575084	-0.11702241
1277137587858	0.9942854	9.112013	0.53119355	-0.62517166	0.0	1.3125	-52.3125	15.9375	-2.7880433	0.057887226	-0.10868807
1277137587898	0.9942854	9.152874	0.5720546	-0.5821743	0.0	1.5	-52.3125	15.6875	-2.7798715	0.062054686	-0.108206645
1277137587928	0.95342433	9.152874	0.61291564	-0.5838642	0.0	2.0	-52.5625	15.6875	-2.7706082	0.066505685	-0.10379234
1277137587968	0.92618364	9.152874	0.6537767	-0.5838337	0.0	2.25	-52.8125	15.6875	-2.769448	0.07094638	-0.1008472
1277137587998	0.84446156	9.084772	0.6537767	-0.6593218	0.0	2.5	-53.0625	15.4375	-2.7729597	0.07153286	-0.09268719
1277137588038	0.88532263	9.043911	0.61291564	-0.698863	0.0	2.25	-53.3125	15.4375	-2.7679276	0.06734667	-0.097580664
1277137588078	1.0351465	9.084772	0.6537767	-0.63975143	0.0	2.0	-53.3125	15.4375	-2.7450495	0.071379885	-0.11345372
1277137588118	0.9942854	9.112013	0.6946377	-0.61426735	0.0	2.25	-53.8125	14.9375	-2.7382228	0.07563877	-0.10868807
1277137588158	0.95342433	9.043911	0.61291564	-0.69199085	0.0	2.25	-53.8125	14.6875	-2.7337651	0.06729582	-0.105033726
1277137588198	0.95342433	9.084772	0.6537767	-0.64861965	0.0	3.0	-53.8125	14.6875	-2.7053635	0.07144913	-0.10456475
1277137588228	0.95342433	9.112013	0.7218784	-0.61649704	0.0	3.25	-53.5625	14.4375	-2.698375	0.07863012	-0.10425442
1277137588268	0.95342433	9.112013	0.6946377	-0.61859703	0.0	3.25	-53.3125	14.6875	-2.701136	0.07567448	-0.10425442
1277137588368	1.0351465	9.084772	0.7218784	-0.6346426	0.0	3.0	-53.3125	14.9375	-2.6992	0.07878599	-0.11345373
1277137588408	1.0351465	9.152874	0.6946377	-0.56927204	0.0	3.0	-53.5625	15.1875	-2.7016664	0.07526964	-0.112616725
1277137588439	0.9942854	9.112013	0.7627395	-0.6088705	0.0	2.5	-53.3125	15.1875	-2.7406979	0.08302181	-0.10868807
1277137588478	0.9942854	9.084772	0.6946377	-0.6412697	0.0	2.75	-53.0625	14.9375	-2.7180629	0.07586204	-0.109011404
1277137588518	1.0351465	9.152874	0.7218784	-0.5671835	0.0	2.5	-53.3125	15.1875	-2.7270064	0.07820959	-0.112616725
1277137588548	1.0760075	9.084772	0.61291564	-0.63786983	0.0	2.5	-53.3125	14.9375	-2.6980553	0.066898	-0.11789155
1277137588578	0.9942854	9.084772	0.6537767	-0.64427567	0.0	3.0	-53.5625	15.1875	-2.70592	0.0714152	-0.109011404
1277137588618	0.9942854	9.084772	0.7218784	-0.6391649	0.0	2.75	-54.0625	14.6875	-2.7128918	0.07882495	-0.109011404
1277137588658	1.0351465	9.043911	0.6946377	-0.677227	0.0	2.75	-53.8125	14.6875	-2.6992724	0.076161414	-0.113961905
1277137588688	0.9942854	9.084772	0.6946377	-0.6412697	0.0	2.75	-53.8125	14.6875	-2.6992724	0.076161414	-0.113961905
1277137588718	0.95342433	9.084772	0.6946377	-0.64561176	0.0	2.5	-53.8125	14.4375	-2.7274523	0.075898066	-0.10456475
1277137588798	1.0351465	9.043911	0.7218784	-0.6751137	0.0	2.25	-53.8125	14.4375	-2.7193933	0.07913591	-0.113961905
1277137588838	0.9942854	9.112013	0.6537767	-0.61726475	0.0	2.0	-54.3125	14.9375	-2.7432835	0.07120492	-0.10868807
1277137588869	1.0351465	9.112013	0.6946377	-0.6097584	0.0	1.5	-54.5625	14.9375	-2.758431	0.075601615	-0.11311744
1277137588908	0.9942854	9.112013	0.6946377	-0.61426735	0.0	2.0	-54.0625	14.9375	-2.7485538	0.07563877	-0.10868807
1277137588938	0.95342433	9.043911	0.6537767	-0.68915176	0.0	2.25	-54.0625	14.6875	-2.737518	0.07176731	-0.105033726
1277137588978	1.0760075	9.084772	0.7627395	-0.6266365	0.0	2.25	-53.0625	14.1875	-2.7118838	0.083182864	-0.11789156
1277137589008	1.0351465	9.112013	0.84446156	-0.59722996	0.0	2.5	-52.8125	14.4375	-2.7264826	0.0918244	-0.11311744
1277137589048	0.95342433	9.152874	0.7627395	-0.5726967	0.0	2.0	-52.8125	14.6875	-2.7666783	0.082695834	-0.10379234
1277137589078	1.0351465	9.112013	0.6946377	-0.6097584	0.0	1.5	-52.5625	14.4375	-2.7567558	0.075601615	-0.11311744
1277137589108	1.0351465	9.112013	0.6537767	-0.61275387	0.0	1.75	-53.3125	13.875	-2.7263348	0.07116993	-0.11311744
1277137589138	1.0351465	9.043911	0.61291564	-0.6830807	0.0	1.75	-53.0625	13.625	-2.7154615	0.06723	-0.1139619
1277137589178	0.95342433	9.00305	0.7627395	-0.7211838	0.0	2.0	-53.3125	13.125	-2.731971	0.084050536	-0.10550691
1277137589218	0.88532263	9.084772	0.88532263	-0.63600826	0.0	2.0	-53.5625	13.625	-2.7745318	0.096689366	-0.09714453
1277137589258	0.9942854	9.152874	0.92618364	-0.5534601	0.0	1.75	-53.5625	14.1875	-2.7720773	0.10026133	-0.108206645
1277137589298	0.95342433	9.112013	0.92618364	-0.598197	0.0	1.75	-53.8125	14.1875	-2.7812288	0.100750074	-0.10425442
1277137589328	0.84446156	9.043911	0.92618364	-0.67630196	0.0	1.75	-53.8125	14.4375	-2.8129678	0.10161491	-0.09310355
1277137589358	0.84446156	8.962189	0.8036005	-0.7689676	0.0	2.0	-54.0625	14.1875	-2.783979	0.08903424	-0.093947545
1277137589388	0.95342433	9.043911	0.8036005	-0.677186	0.0	2.5	-53.5625	13.625	-2.7235482	0.088136815	-0.105033726
1277137589418	0.95342433	9.084772	0.92618364	-0.62515163	0.0	2.5	-53.5625	13.625	-2.7235482	0.088136815	-0.105033726
1277137589448	0.92618364	9.112013	0.88532263	-0.6049986	0.0	3.0	-53.8125	13.625	-2.717906	0.09636251	-0.10129635
1277137589488	1.0351465	9.084772	0.92618364	-0.6163063	0.0	3.25	-53.5625	13.875	-2.689397	0.10094928	-0.11345373
1277137589518	0.92618364	9.084772	0.88532263	-0.63197327	0.0	2.5	-53.8125	14.1875	-2.7503986	0.09664671	-0.101598
1277137589558	0.92618364	9.084772	0.84446156	-0.6358261	0.0	2.75	-53.8125	14.1875	-2.7350388	0.09221194	-0.10159801
1277137589588	0.88532263	9.112013	0.88532263	-0.6090212	0.0	2.0	-53.5625	13.875	-2.7793953	0.09640478	-0.09685593
1277137589618	0.92618364	9.084772	0.95342433	-0.62515163	0.0	1.75	-53.5625	13.875	-2.7859862	0.10402945	-0.101598
1277137589658	0.88532263	9.084772	0.84446156	-0.639863	0.0	2.0	-53.5625	13.875	-2.7748907	0.092252664	-0.09714454
1277137589688	0.88532263	9.084772	0.92618364	-0.63197327	0.0	1.75	-53.3125	13.625	-2.7908695	0.101122245	-0.09714454
1277137589728	0.92618364	9.084772	0.92618364	-0.6279402	0.0	2.25	-53.3125	13.625	-2.7569008	0.10107767	-0.101598
1277137589768	0.88532263	9.084772	0.92618364	-0.63197327	0.0	2.5	-53.0625	13.375	-2.7523453	0.101122245	-0.09714454
1277137589808	0.88532263	9.193735	0.9942854	-0.5170231	0.0	3.0	-53.3125	13.625	-2.7424555	0.10723721	-0.09600029
1277137589838	0.8036005	9.112013	1.0351465	-0.6008873	0.0	3.25	-53.3125	13.125	-2.746258	0.11268381	-0.087963745
1277137589908	0.84446156	9.084772	1.1441092	-0.61126137	0.0	2.75	-53.3125	12.875	-2.7640624	0.12474534	-0.09268718
1277137589938	0.7218784	9.084772	1.1441092	-0.62170696	0.0	1.75	-53.3125	12.375	-2.8354776	0.12488795	-0.07929366
1277137589978	0.7218784	8.921328	1.334794	-0.7571821	0.0	2.0	-53.8125	12.875	-2.8436074	0.14803986	-0.080740124
1277137590008	0.38136974	9.00305	1.5390993	-0.6650324	0.0	1.5	-53.8125	12.375	-2.965644	0.16916752	-0.04233475
1277137590048	-0.0	8.962189	1.3756552	-0.73949814	0.0	1.5	-54.0625	12.125	-3.0674233	0.1523067	0.0
1277137590088	0.040861044	9.00305	1.2258313	-0.72043896	0.0	2.25	-53.5625	11.875	-3.0110636	0.13532381	-0.0045385472
1277137590118	0.23154591	8.853226	1.2258313	-0.865963	0.0	2.25	-53.3125	11.125	-2.9452837	0.1375403	-0.026147885
1277137590148	0.10896278	8.962189	0.95342433	-0.79323196	0.0	3.5	-53.3125	10.8125	-2.893669	0.10597659	-0.012157456
1277137590198	0.27240697	8.853226	0.7218784	-0.91986656	0.0	4.1875	-53.8125	10.8125	-2.7733157	0.08132016	-0.030759528
1277137590238	-0.0	9.112013	1.0351465	-0.6360283	0.0	5.6875	-54.3125	10.3125	-2.8073416	0.11311744	0.0
1277137590278	-0.46309182	9.466142	1.0351465	-0.27282524	0.0	7.375	-54.3125	9.8125	-2.849711	0.10879067	0.048881892
1277137590308	0.08172209	9.724928	1.2666923	7.658005E-4	0.0	9.625	-54.875	9.0625	-2.5809288	0.12951839	-0.008403164
1277137590338	-0.19068487	10.038197	2.0294318	0.4364128	0.0	12.3125	-54.5625	8.0625	-2.6004062	0.19944713	0.018993644
1277137590368	-0.46309182	10.079058	1.1849703	0.35238552	0.0	14.0	-54.3125	7.5	-2.4490337	0.116908126	0.045913655
1277137590398	0.7627395	9.234595	-0.08172209	-0.5402489	0.0	15.25	-54.0625	7.0	-1.8919125	-0.008819297	-0.08240881
1277137590428	2.2201166	7.9270425	0.10896278	-1.5738621	0.0	16.4375	-53.8125	6.5	-1.801496	0.013235609	-0.27307242
1277137590468	0.61291564	7.8589406	1.56634	-1.7697334	0.0	17.6875	-53.5625	5.5	-2.1899338	0.19614851	-0.07783205
1277137590508	-3.718355	9.112013	-0.8036005	0.06759453	0.0	18.875	-53.5625	3.6875	1.2423208	-0.0814736	0.38744536
1277137590548	-0.6946377	9.193735	-0.08172209	-0.58634853	0.0	21.0625	-53.3125	1.9375	-1.6560814	-0.008863393	0.075412266
1277137590588	4.2495484	9.997335	-0.08172209	1.0566854	0.0	22.5625	-52.8125	-0.375	-1.5545217	-0.0075228144	-0.40192834
1277137590618	2.2609777	9.956474	2.1111538	0.619297	0.0	23.5625	-52.5625	-2.9375	-1.7548932	0.2039003	-0.2232992
1277137590658	0.23154591	9.724928	1.920469	0.10879421	0.0	24.75	-51.8125	-5.0	-1.7614372	0.19491649	-0.023805028
1277137590688	-0.7627395	8.308413	1.0760075	-1.3942022	0.0	25.0	-52.0625	-7.25	-1.5575435	0.12825795	0.09154668
1277137590728	-0.23154591	8.281172	0.95342433	-1.4675589	0.0	25.25	-52.0625	-8.8125	-1.4567695	0.11458248	0.027953241
1277137590768	0.95342433	9.00305	1.6480621	-0.60447407	0.0	25.25	-51.8125	-10.0625	-1.5332465	0.18006633	-0.10550691
1277137590808	1.6480621	8.771504	2.3699405	-0.5723648	0.0	25.0	-51.8125	-11.625	-1.5897869	0.25955015	-0.18572293
1277137590838	0.19068487	9.302697	2.4516625	-0.18442631	0.0	24.5	-51.5	-12.125	-1.6203154	0.25763226	-0.020494934
1277137590870	-0.88532263	9.425281	2.070293	-0.11614895	0.0	24.0	-51.0	-12.875	-1.5055168	0.21530098	0.09365585
1277137590908	-0.88532263	8.689782	1.334794	-0.97048664	0.0	23.5625	-50.25	-13.625	-1.276752	0.15164085	0.10153055
1277137590938	-1.2666923	8.771504	1.5390993	-0.8115053	0.0	22.3125	-50.25	-13.875	-1.2704573	0.17194942	0.14341845
1277137590978	-1.4165162	9.112013	2.1792557	-0.3311844	0.0	22.0625	-49.75	-14.6875	-1.4160825	0.23206668	0.15422148
1277137591008	-1.4165162	8.962189	1.7297841	-0.5697956	0.0	21.0625	-49.5	-14.9375	-1.2121876	0.18838207	0.15675797
1277137591048	-1.6889231	8.921328	1.7297841	-0.5635605	0.0	20.125	-50.25	-14.9375	-1.1446676	0.18825346	0.18709879
1277137591088	-1.607201	9.084772	1.4573772	-0.46640778	0.0	19.625	-50.25	-14.9375	-1.019476	0.15667222	0.1750998
1277137591128	-0.88532263	9.275456	0.19068487	-0.48708725	0.0	18.375	-50.5	-15.1875	-0.7627158	0.020462139	0.0951596
1277137591168	0.3405087	8.853226	-0.46309182	-0.93478394	0.0	18.125	-50.25	-15.6875	-0.83216345	-0.052221525	-0.038442593
1277137591198	1.3756552	8.662541	0.84446156	-0.99500084	0.0	17.9375	-49.5	-16.6875	-1.1243856	0.095981985	-0.15748991
1277137591228	0.84446156	9.234595	1.1441092	-0.463212	0.0	17.6875	-49.25	-17.25	-1.0976985	0.12275866	-0.091191806
1277137591268	0.08172209	11.141444	1.7570249	1.4727821	0.0	18.125	-48.75	-17.75	-1.0765009	0.15640941	-0.007334832
1277137591308	0.6946377	9.765789	1.7570249	0.1402235	0.0	18.125	-48.4375	-19.0	-1.1207775	0.17757267	-0.07101011
1277137591348	0.5720546	9.697687	1.7570249	0.06550884	0.0	17.9375	-47.6875	-20.8125	-1.0386918	0.17893103	-0.05892049
1277137591388	-0.27240697	11.264028	4.099725	2.1833572	0.0	17.9375	-45.6875	-24.125	-1.1813958	0.34896827	0.024179086
1277137591418	0.10896278	10.61025	2.982856	1.2154512	0.0	17.4375	-43.625	-27.6875	-0.87626934	0.2740422	-0.010269216
1277137591458	0.7627395	8.281172	3.214402	-0.8908243	0.0	16.9375	-41.3125	-31.5	-0.93921345	0.36883354	-0.09184612
1277137591498	-0.040861044	6.6331096	4.1814466	-1.9654574	0.0	11.0	-32.25	-34.25	-0.7437692	0.56245744	0.006160086
1277137591538	-0.19068487	5.7886477	3.718355	-2.923993	0.0	9.75	-31.0	-36.3125	-0.56885874	0.5707341	0.03292927
1277137591578	0.50395286	5.5162406	3.568531	-3.2174702	0.0	8.1875	-29.4375	-38.25	-0.5758906	0.5723088	-0.091105126
1277137591608	0.10896278	6.0882955	4.0180025	-2.5112023	0.0	6.25	-28.9375	-39.3125	-0.38004827	0.58326817	-0.01789518
1277137591638	0.46309182	6.851035	4.8216033	-1.4162397	0.0	4.25	-28.1875	-40.0625	-0.35064775	0.6121843	-0.06749176
1277137591668	0.23154591	7.246025	5.243834	-0.85923195	0.0	2.8125	-27.4375	-40.8125	-0.21299843	0.62620276	-0.031944018
1277137591698	-0.08172209	8.008764	5.407278	-0.1430254	0.0	1.125	-27.6875	-41.0625	-0.045421205	0.5938424	0.0102037275
1277137591738	0.46309182	8.580819	6.1700177	0.7722931	0.0	-0.375	-27.1875	-41.3125	-0.061497875	0.6227064	-0.053915948
1277137591778	0.040861044	6.851035	7.3549876	0.24492645	0.0	-1.5625	-26.9375	-41.8125	0.15828635	0.82084906	-0.005964144
1277137591808	-0.19068487	8.390134	6.6331096	0.8904915	0.0	-2.5625	-27.4375	-41.3125	0.20346855	0.6688478	0.022723364
1277137591838	-0.0	11.34575	4.630918	2.4477959	0.0	-3.0625	-27.4375	-41.0625	0.110313565	0.38752377	0.0
1277137591872	-0.14982383	12.367276	3.6774938	3.0966797	0.0	-3.3125	-27.6875	-40.8125	0.116232835	0.28901005	0.012113945
1277137591908	2.3018389	9.152874	1.4165162	-0.26306152	0.0	-2.5625	-28.1875	-39.8125	-0.12399063	0.1489764	-0.24637873
1277137591939	1.3075534	6.932757	0.14982383	-2.7500744	0.0	-2.6875	-28.5	-39.3125	-0.06814464	0.021233398	-0.18641533
1277137591978	0.50395286	7.3549876	-0.08172209	-2.4339647	0.0	-2.9375	-29.25	-38.75	0.023826338	-0.011084667	-0.068411596
1277137592008	2.6423476	9.956474	-0.7218784	0.51974773	0.0	-3.4375	-30.3125	-37.25	-0.1129156	-0.06996319	-0.25941
1277137592048	0.19068487	11.454713	2.4925237	1.9176617	0.0	-4.625	-31.8125	-35.6875	0.1447408	0.21422935	-0.016645312
1277137592088	-2.070293	8.812365	2.5606253	-0.39916992	0.0	-4.375	-33.625	-33.9375	0.46164328	0.2756686	0.23074606
1277137592118	-0.0	6.742072	1.334794	-2.9337173	0.0	-3.625	-35.125	-31.25	0.15094087	0.1954523	0.0
1277137592148	0.5720546	6.0201936	1.3756552	-3.6048436	0.0	-1.875	-36.4375	-29.1875	-0.07740459	0.22367568	-0.09473818
1277137592188	-0.6946377	7.164303	2.3426998	-2.2371058	0.0	-0.4375	-37.6875	-27.9375	0.2656264	0.31465685	0.09665605
1277137592218	-0.27240697	8.921328	2.7921712	-0.4546175	0.0	0.625	-38.5625	-26.625	0.039716113	0.30318666	0.03052487
1277137592248	-0.10896278	8.771504	2.4925237	-0.68722916	0.0	0.875	-39.625	-25.5625	-0.027814496	0.2768432	0.012421721
1277137592288	-0.19068487	7.7772183	1.5390993	-1.8763089	0.0	0.625	-40.625	-24.0625	0.023592848	0.19531679	0.024513477
1277137592328	-0.61291564	8.812365	0.9942854	-0.9172163	0.0	1.125	-40.875	-22.0	0.09878412	0.11208479	0.069439955
1277137592371	-0.29964766	11.876944	2.982856	2.4427986	0.0	1.5625	-41.625	-20.5	-0.052532766	0.24598253	0.025224008
1277137592408	-1.1168685	12.762266	2.1792557	3.188426	0.0	2.3125	-41.875	-18.9375	0.11520824	0.16849472	0.08729095
1277137592438	-0.61291564	11.985906	0.8036005	2.2217903	0.0	3.5625	-42.125	-18.4375	-0.09007192	0.06685817	0.05109186
1277137592478	0.8036005	10.800936	0.3405087	1.0294895	0.0	4.25	-42.4375	-18.6875	-0.40234327	0.031428605	-0.074264176
1277137592508	3.990762	10.800936	1.1168685	1.7620049	0.0	5.5	-42.125	-19.6875	-0.89120877	0.09669325	-0.3539251
1277137592548	3.255263	12.067628	0.7627395	2.7155762	0.0	6.75	-41.375	-22.0	-0.7221083	0.06094858	-0.26348037
1277137592588	-2.7921712	12.598822	0.08172209	3.0981245	0.0	7.4375	-39.875	-24.3125	0.05674589	0.006332744	0.21809654
1277137592618	-5.053149	11.727119	1.879608	3.1004248	0.0	7.6875	-38.3125	-27.375	0.3600929	0.14614588	0.4068526
1277137592648	-1.56634	5.829509	1.4165162	-3.606399	0.0	7.1875	-36.3125	-30.9375	0.11395052	0.23049669	0.26249194
1277137592688	1.0351465	4.399372	-0.19068487	-5.283116	0.0	6.25	-34.0	-33.75	-0.3767943	-0.042166453	-0.23109068
1277137592718	2.0294318	2.5606253	1.0351465	-6.3792715	0.0	4.75	-32.4375	-36.8125	-0.70058274	0.3068138	-0.67018366
1277137592758	0.95342433	2.1792557	2.7921712	-6.138627	0.0	3.3125	-31.4375	-38.3125	-1.3244445	0.8651918	-0.41241044
1277137592798	-0.5720546	3.5957718	3.568531	-4.70849	0.0	1.8125	-30.6875	-38.8125	0.44809353	0.7753477	0.15776874
1277137592828	-2.070293	7.164303	5.325556	-0.642869	0.0	0.375	-30.9375	-38.8125	0.52359456	0.6201443	0.2813102
1277137592858	-2.3699405	13.184497	8.62168	6.1238537	0.0	-1.125	-31.1875	-38.3125	0.3990295	0.5718704	0.17785276
1277137592898	1.7570249	15.745122	7.3549876	7.6602287	0.0	-1.8125	-30.9375	-38.3125	-0.07489841	0.43463787	-0.111131914
1277137592928	3.8681788	8.662541	7.8861814	2.530055	0.0	-2.8125	-30.6875	-38.3125	-0.7433783	0.6935165	-0.41997355
1277137592968	-0.38136974	10.147159	5.7886477	1.8817511	0.0	-3.5625	-29.9375	-39.0625	0.23947144	0.5181193	0.03756621
1277137593008	0.50395286	7.014479	-0.14982383	-2.7724953	0.0	-3.5625	-29.125	-40.125	0.035974704	-0.021301089	-0.07172143
1277137593048	2.4516625	7.246025	-0.7218784	-2.1231198	0.0	-3.5625	-28.875	-40.375	-0.13629301	-0.094090156	-0.32625502
1277137593088	0.6537767	13.0619135	0.53119355	3.2823982	0.0	-4.0625	-29.125	-40.375	0.06634631	0.040594205	-0.0500104
1277137593128	0.5720546	11.495573	1.879608	1.8556118	0.0	-3.8125	-30.4375	-39.375	0.06753603	0.16187614	-0.04972202
1277137593168	-0.95342433	6.891896	3.9090397	-1.8261843	0.0	-4.25	-32.4375	-36.5625	0.4850322	0.5118902	0.1374674
1277137593208	-1.56634	5.6660647	0.42223078	-3.9129252	0.0	-4.25	-35.0	-33.5	0.40768307	0.07170215	0.2697066
1277137593238	0.7627395	5.134871	-0.95342433	-4.5286117	0.0	-3.8125	-37.5625	-29.9375	-0.048170142	-0.18163702	-0.14746286
1277137593278	1.334794	5.8976107	0.53119355	-3.7365885	0.0	-3.3125	-39.625	-26.3125	-0.23772451	0.087622486	-0.22257803
1277137593318	1.6889231	9.043911	3.568531	0.061440468	0.0	-2.8125	-41.125	-23.8125	-0.57426655	0.37000838	-0.18462041
1277137593358	1.9885708	8.894087	2.7649305	-0.2827835	0.0	-3.0625	-42.125	-22.0	-0.607431	0.294557	-0.21996576
1277137593398	-2.7921712	9.997335	1.2666923	0.65028286	0.0	-2.3125	-42.6875	-20.75	0.71808517	0.12143242	0.27235162
1277137593428	-3.8273177	11.304889	1.5390993	2.2273722	0.0	-2.0625	-43.1875	-18.9375	0.8589114	0.12824693	0.32644194
1277137593468	-0.5720546	13.375181	1.920469	3.7178059	0.0	-1.375	-43.6875	-17.9375	0.2731714	0.14248131	0.04274381
1277137593498	2.6423476	13.6748295	1.2666923	4.178609	0.0	-0.875	-43.6875	-17.6875	-0.49644482	0.09069769	-0.19087474
1277137593528	2.8330324	12.026767	-0.040861044	2.5493546	0.0	-0.375	-43.6875	-17.9375	-0.4903929	-0.003306985	-0.23134315
1277137593568	3.990762	11.727119	-0.6946377	2.6003656	0.0	1.125	-43.1875	-20.1875	-0.588883	-0.056016788	-0.32800916
1277137593608	2.152015	12.680544	-1.879608	3.191822	0.0	2.3125	-41.875	-22.75	-0.31576684	-0.14511096	-0.16810827
1277137593638	-2.8738933	14.410328	0.84446156	4.911703	0.0	3.3125	-40.125	-25.5625	0.19549333	0.057406254	0.1968502
1277137593668	-2.7513103	11.372991	0.38136974	1.9006147	0.0	4.25	-38.0625	-29.125	0.17120337	0.03258124	0.23735599
1277137593698	0.10896278	4.3312707	0.61291564	-5.4308705	0.0	3.3125	-36.0625	-32.6875	-0.15315716	0.14053215	-0.025151927
1277137593728	0.8036005	2.4108016	0.61291564	-7.192572	0.0	1.8125	-33.75	-35.25	-0.43177295	0.23667048	-0.32175052
1277137593768	1.4573772	1.334794	1.2258313	-7.481078	0.0	0.625	-31.9375	-37.8125	-0.85129875	0.5551956	-0.82927245
1277137593808	0.50395286	1.7570249	2.7649305	-6.4921446	0.0	-1.5625	-30.6875	-39.0625	-2.0281045	0.9866641	-0.27932322
1277137593838	-0.14982383	3.405087	3.1054392	-5.1957045	0.0	-2.8125	-29.9375	-38.8125	0.44595098	0.73892397	0.043971635
1277137593868	-1.0351465	6.932757	4.399372	-1.5308352	0.0	-3.5625	-30.4375	-39.0625	0.4326356	0.56048113	0.1482174
1277137593898	-1.1849703	14.015338	7.3549876	6.0656433	0.0	-4.25	-30.6875	-38.5625	0.32608682	0.4818116	0.0843475
1277137593928	2.7649305	17.079916	8.158588	9.322672	0.0	-4.5	-30.6875	-38.5625	-0.02132163	0.44061574	-0.16048971
1277137593968	5.012288	7.504812	8.689782	2.7216196	0.0	-5.0	-30.6875	-39.375	-0.97496724	0.76649386	-0.58883977
1277137593998	0.27240697	9.152874	6.2789803	1.2962732	0.0	-6.0	-29.9375	-39.875	0.3114636	0.6010696	-0.029753122
1277137594028	-0.040861044	11.073342	0.38136974	1.2733326	0.0	-6.5	-29.125	-40.625	0.16533409	0.034426503	0.0036900204
1277137594068	1.1849703	7.43671	-1.1849703	-2.183464	0.0	-6.75	-29.125	-40.875	0.046239737	-0.1560758	-0.15801232
1277137594098	1.2258313	9.956474	0.040861044	0.22508526	0.0	-6.75	-29.375	-40.625	0.07663238	0.004073189	-0.12250252
1277137594128	0.61291564	12.067628	-0.08172209	2.2768097	0.0	-6.5	-29.9375	-40.125	0.122694366	-0.006763188	-0.05074646
1277137594158	0.8036005	11.223166	0.7218784	1.4683819	0.0	-6.25	-31.4375	-38.8125	0.10827152	0.06406834	-0.071479954
1277137594198	0.7627395	8.689782	2.8738933	-0.622242	0.0	-6.0	-32.6875	-36.8125	0.12605721	0.31825536	-0.08754992
1277137594228	-1.2258313	6.238119	1.9885708	-3.1454782	0.0	-5.0	-34.25	-34.0	0.46919712	0.3031538	0.19403423
1277137594268	0.19068487	5.434519	-0.0	-4.3687873	0.0	-3.5625	-36.8125	-30.9375	0.07322438	-0.0	-0.03507333
1277137594308	2.2609777	4.8216033	0.3405087	-4.4703755	0.0	-1.5625	-38.8125	-28.125	-0.52875865	0.06385357	-0.43848127
1277137594339	-0.38136974	8.008764	2.3699405	-1.4458876	0.0	-0.625	-40.875	-26.0625	0.18898892	0.2874	0.047583107
1277137594379	-0.53119355	9.384419	1.8387469	-0.22904682	0.0	-0.375	-41.875	-24.8125	0.16630891	0.19318338	0.05654344
1277137594418	1.0760075	8.19945	2.4925237	-1.1694374	0.0	-0.375	-42.4375	-23.5625	-0.45965216	0.292743	-0.13048361
1277137594448	-2.4516625	10.378705	1.2258313	0.9279127	0.0	-0.875	-42.6875	-21.5	0.5700247	0.114444464	0.23196824
1277137594488	-1.920469	11.917805	2.152015	2.4552193	0.0	-0.125	-42.6875	-20.1875	0.5059086	0.17641833	0.15976939
1277137594518	1.879608	11.917805	3.0645783	2.6415882	0.0	0.875	-42.9375	-18.9375	-0.7600371	0.24874286	-0.1564258
1277137594558	2.6423476	12.721405	0.8036005	3.2111034	0.0	2.3125	-42.9375	-18.9375	-0.59248763	0.061770394	-0.20479675
1277137594598	0.61291564	11.413852	-0.88532263	1.6578817	0.0	4.0625	-42.6875	-20.1875	-0.26479003	-0.0772997	-0.053647753
1277137594638	2.2609777	13.143636	-0.50395286	3.5395527	0.0	5.0	-42.125	-21.5	-0.4828836	-0.037768997	-0.17035346
1277137594679	0.84446156	14.519291	0.38136974	4.742177	0.0	6.0	-41.375	-24.0625	-0.3501405	0.026216095	-0.058095902
1277137594718	-3.0645783	12.721405	0.7627395	3.300889	0.0	6.0	-39.375	-27.375	0.13461548	0.058223788	0.23639518
1277137594758	-0.6537767	4.399372	0.313268	-5.3479466	0.0	5.0	-37.3125	-30.6875	0.019269416	0.07031783	0.14752714
1277137594798	-0.23154591	1.3075534	0.95342433	-8.171925	0.0	4.0625	-34.75	-34.0	0.2767854	0.6227019	0.17526636
1277137594828	1.2666923	0.8036005	2.1111538	-7.2168136	0.0	1.5625	-32.1875	-36.8125	-1.2813895	0.9530206	-1.0054599
1277137594858	1.334794	2.070293	2.6423476	-6.194201	0.0	-0.625	-30.6875	-38.0625	-1.1690696	0.8204547	-0.57266635
1277137594898	0.92618364	4.140586	2.9556155	-4.635777	0.0	-2.3125	-29.9375	-38.8125	-0.28033802	0.60844135	-0.22006169
1277137594928	1.0760075	8.812365	4.671779	0.22535324	0.0	-3.8125	-29.625	-38.8125	0.009481673	0.48441142	-0.12150058
1277137594968	-0.5720546	17.161638	7.9679036	9.123129	0.0	-4.5	-29.625	-39.0625	0.23375182	0.4344582	0.033320997
1277137594998	3.636633	10.923519	9.615966	5.1938553	0.0	-5.0	-29.375	-39.0625	-0.38779032	0.69585615	-0.32137644
1277137595028	3.8273177	7.273266	8.049625	1.6974888	0.0	-5.25	-28.625	-39.375	-0.78478897	0.7749994	-0.48440075
1277137595068	0.313268	10.56939	4.099725	1.5343323	0.0	-6.25	-27.625	-39.875	0.19749954	0.3698724	-0.0296305
1277137595098	1.2258313	9.234595	-1.9885708	-0.28116703	0.0	-6.5	-26.625	-40.125	0.06534098	-0.21031016	-0.13197182
1277137595128	3.1054392	8.921328	-1.879608	-0.17509937	0.0	-6.9375	-26.3125	-40.625	-0.04644969	-0.19641155	-0.3349737
1277137595158	2.5333846	12.026767	-1.7978859	2.6148453	0.0	-6.9375	-26.875	-40.375	0.02840233	-0.14525008	-0.20761038
1277137595198	0.3405087	11.645397	-0.19068487	1.8452854	0.0	-6.5	-28.375	-39.375	0.14132875	-0.016365811	-0.029231438
1277137595228	0.46309182	10.269742	3.336985	1.001565	0.0	-5.75	-30.4375	-37.3125	0.16649778	0.31387353	-0.045062315
1277137595268	-1.334794	6.8237944	3.990762	-1.7896662	0.0	-4.25	-32.6875	-34.5	0.62893313	0.52104694	0.19316968
1277137595308	-1.6889231	4.2495484	1.0760075	-5.108894	0.0	-2.5625	-34.75	-30.9375	0.58575374	0.23109865	0.378294
1277137595338	0.61291564	4.3312707	-0.88532263	-5.3435383	0.0	-0.375	-36.8125	-27.875	-0.13761951	-0.1996889	-0.14057603
1277137595380	0.61291564	6.3198414	0.3405087	-3.4480333	0.0	1.375	-38.5625	-25.0625	-0.21803585	0.053576373	-0.0966804
1277137595418	1.607201	9.275456	4.2086873	0.5050049	0.0	2.3125	-39.375	-23.5625	-0.9955049	0.42042512	-0.17157105
1277137595448	0.38136974	9.656827	2.1111538	0.08560562	0.0	2.3125	-39.875	-22.25	-0.28508678	0.21506897	-0.03947173
1277137595488	-1.879608	11.114203	2.3699405	1.7118158	0.0	1.8125	-40.125	-21.0	0.37801775	0.20723148	0.16753249
1277137595518	-2.1383946	12.299174	1.9477097	2.828064	0.0	2.0625	-40.125	-19.9375	0.34313408	0.15477261	0.17214407
1277137595558	-1.2666923	13.484144	0.53119355	3.7472725	0.0	2.8125	-40.375	-18.1875	0.05877097	0.03920117	0.09366452
1277137595598	1.2666923	12.408136	0.040861044	2.6660414	0.0	3.5625	-40.625	-18.4375	-0.39675787	0.0032760464	-0.10173319
1277137595628	5.175732	12.299174	1.1441092	3.5861416	0.0	5.25	-40.375	-19.1875	-0.9046603	0.08553149	-0.39832437
1277137595658	4.9850473	13.102775	0.14982383	4.213187	0.0	6.25	-40.125	-20.5	-0.78509504	0.010686763	-0.36354664
1277137595688	1.4982382	13.525005	-0.95342433	3.834446	0.0	6.9375	-39.625	-22.75	-0.41730437	-0.069950566	-0.11032562
1277137595718	-2.8330324	14.1787815	0.10896278	4.6528034	0.0	7.6875	-38.3125	-25.0625	-0.0012812525	0.007535818	0.19721083
1277137595748	-2.3018389	10.460427	0.61291564	0.9215679	0.0	6.9375	-37.0625	-28.125	0.04585687	0.057162296	0.21659999
1277137595788	0.313268	3.9090397	0.3405087	-5.8703227	0.0	6.0	-34.75	-31.4375	-0.29943806	0.08661241	-0.079968475
1277137595828	1.1441092	0.6946377	0.38136974	-8.4149065	0.0	4.0625	-32.4375	-34.75	-0.7866915	0.27757367	-1.0251414
1277137595858	0.84446156	0.88532263	1.7978859	-7.6319532	0.0	1.5625	-30.9375	-37.0625	-1.4278864	0.97326946	-0.7617805
1277137595898	-0.10896278	2.3699405	2.982856	-5.9953613	0.0	-0.625	-29.625	-38.5625	1.1595715	0.8988912	0.045944657
1277137595928	0.040861044	5.053149	3.9090397	-3.4178648	0.0	-1.5625	-29.375	-38.5625	0.10542275	0.65840954	-0.008086077
1277137595968	0.53119355	10.923519	7.4639506	3.4340448	0.0	-1.375	-29.375	-38.5625	-0.0034958487	0.5988742	-0.04859015
1277137596008	2.7240696	16.930092	8.812365	9.473038	0.0	-1.125	-29.375	-38.8125	-0.1663083	0.4747097	-0.1595337
1277137596038	2.9147544	5.8976107	8.390134	0.85505486	0.0	-0.875	-28.625	-38.3125	-1.3127505	0.90583575	-0.459018
1277137596078	1.1849703	7.164303	7.014479	0.28960228	0.0	-1.8125	-28.625	-38.8125	-0.34235728	0.7680871	-0.16391526
1277137596118	1.7978859	11.645397	-1.0760075	2.0257406	0.0	-3.0625	-28.125	-38.8125	-0.030668845	-0.09106326	-0.15317662
1277137596158	3.1463003	9.724928	-1.1168685	0.47541332	0.0	-3.5625	-27.875	-38.8125	-0.12419206	-0.10883774	-0.31290126
1277137596198	1.56634	12.571581	-0.46309182	2.870594	0.0	-4.0625	-28.375	-38.8125	0.013131624	-0.036537502	-0.123954944
1277137596228	0.313268	9.888372	0.50395286	0.09951019	0.0	-3.3125	-29.125	-37.5625	0.06620253	0.05089464	-0.031669848
1277137596268	0.3405087	6.8237944	1.8387469	-2.7312627	0.0	-2.3125	-30.9375	-36.0625	0.028678915	0.26289722	-0.049858842
1277137596308	-1.6889231	6.2108784	2.3426998	-2.9571457	0.0	-0.875	-33.25	-32.4375	0.45446503	0.34907073	0.26550967
1277137596348	0.040861044	5.7477865	0.5720546	-4.030322	0.0	1.5625	-36.0625	-28.625	-0.07287461	0.0991969	-0.0071088853
1277137596388	2.2201166	5.134871	0.9942854	-4.124712	0.0	3.3125	-38.0625	-25.3125	-0.7613992	0.17589615	-0.4080887
1277137596418	-0.38136974	8.921328	3.9499009	-0.042571068	0.0	4.5	-39.625	-21.5	-0.6657896	0.41646907	0.042722084
1277137596458	-0.46309182	9.534244	2.6014864	0.08698368	0.0	5.25	-40.375	-19.6875	-0.37589237	0.26607388	0.048533283
1277137596498	-2.1792557	9.534244	2.982856	0.41824055	0.0	5.5	-40.875	-17.9375	0.6265693	0.29602978	0.22471116
1277137596528	-2.982856	11.34575	1.1849703	1.9843483	0.0	5.25	-41.125	-16.375	0.41646358	0.10066781	0.25708732
1277137596568	-1.7978859	13.252599	2.5606253	3.8102722	0.0	5.5	-41.375	-15.875	0.0144671975	0.1891736	0.1348397
1277137596608	2.4108016	13.021052	1.4165162	3.5112429	0.0	6.25	-41.625	-14.875	-0.9150189	0.10656345	-0.18307337
1277137596648	3.486809	12.176591	-0.9942854	2.898302	0.0	6.75	-41.125	-14.625	-0.79336816	-0.078339785	-0.2788905
1277137596678	3.336985	12.258313	-1.334794	2.9676752	0.0	7.6875	-40.625	-16.125	-0.73720276	-0.10468146	-0.2657819
1277137596718	1.920469	12.762266	-2.6014864	3.3588877	0.0	8.9375	-39.875	-17.6875	-0.5360053	-0.19890721	-0.1493596
1277137596748	-1.607201	13.443283	0.88532263	3.761281	0.0	9.1875	-39.0625	-20.5	-0.24613263	0.065297514	0.11898943
1277137596788	-1.4165162	9.112013	0.19068487	-0.5832205	0.0	9.6875	-37.8125	-25.0625	-0.15396771	0.02067544	0.15422148
1277137596828	-0.7218784	3.0645783	0.7218784	-6.576502	0.0	8.9375	-35.75	-28.375	-0.02587278	0.22538488	0.23133835
1277137596858	0.42223078	2.7240696	0.27240697	-7.036625	0.0	7.4375	-34.0	-32.6875	-0.40444732	0.09850017	-0.1537763
1277137596888	1.0351465	0.84446156	1.3075534	-7.937335	0.0	6.25	-31.9375	-35.75	-1.0942512	0.77467316	-0.8865016
1277137596918	-0.19068487	1.920469	3.336985	-5.9517794	0.0	4.25	-30.9375	-36.8125	-3.0058455	1.0464555	0.098966405
1277137596948	0.23154591	4.7535014	5.597963	-2.459094	0.0	3.0625	-31.1875	-37.0625	-1.4865358	0.8662121	-0.048672132
1277137596988	-0.040861044	11.032481	7.7772183	3.6915884	0.0	2.0625	-31.4375	-36.5625	-0.16390868	0.6140293	0.003703687
1277137597018	1.0351465	16.358038	7.668256	8.289181	0.0	0.625	-31.1875	-36.5625	-0.12930378	0.43759042	-0.06319633
1277137597058	6.510526	10.337844	6.6331096	4.095008	0.0	-0.125	-30.6875	-36.8125	-0.6839652	0.49740344	-0.5620264
1277137597098	0.92618364	10.651112	5.434519	2.1865969	0.0	-0.875	-29.625	-37.8125	-0.08329	0.47027513	-0.08673834
1277137597138	0.040861044	5.2165933	-1.3756552	-4.4115653	0.0	-0.875	-29.125	-38.3125	0.014543359	-0.25783017	-0.007832739
1277137597178	1.334794	7.668256	-1.2258313	-1.9271526	0.0	-0.625	-29.9375	-38.3125	-0.1060339	-0.15620673	-0.17234072
1277137597218	0.3405087	11.836082	0.313268	2.0384722	0.0	-0.625	-31.1875	-37.5625	-0.007409409	0.02645009	-0.028760767
1277137597258	0.7627395	11.304889	3.0645783	1.9310637	0.0	-0.375	-33.25	-35.5	-0.07268779	0.26414934	-0.06736778
1277137597298	-0.84446156	5.597963	3.636633	-3.0779505	0.0	-0.375	-35.5	-33.0	0.5708504	0.57099074	0.14972268
1277137597338	-0.8036005	4.8216033	-0.46309182	-4.8966517	0.0	0.375	-37.3125	-29.375	0.17437334	-0.09445647	0.16514866
1277137597368	1.920469	5.434519	-1.0760075	-3.9432054	0.0	1.8125	-39.0625	-25.8125	-0.43098488	-0.18455707	-0.33968583
1277137597408	1.5390993	7.9270425	1.2666923	-1.6328306	0.0	3.3125	-40.625	-23.0	-0.5839006	0.15559654	-0.19177207
1277137597438	1.2258313	8.962189	3.3778462	-0.15090942	0.0	3.8125	-41.375	-20.5	-1.0775383	0.35738724	-0.1359346
1277137597478	0.8036005	8.853226	2.6423476	-0.5326338	0.0	4.25	-42.6875	-18.9375	-0.92093927	0.2889224	-0.09052117
1277137597508	-3.1463003	11.454713	1.607201	2.180541	0.0	4.25	-43.6875	-17.4375	0.57701445	0.1344815	0.26806217
1277137597548	-3.9771416	12.176591	0.6946377	3.0218163	0.0	4.5	-44.4375	-16.125	0.60594594	0.054174643	0.31569818
1277137597588	0.6946377	13.906375	2.3426998	4.31277	0.0	5.5	-44.9375	-14.875	-0.81654584	0.16669127	-0.049909547
1277137597628	2.070293	12.571581	-0.040861044	2.9343243	0.0	6.75	-44.1875	-14.625	-0.75321394	-0.0032070638	-0.16321547
1277137597658	5.012288	10.841797	-0.14982383	2.1386433	0.0	8.6875	-43.9375	-15.875	-1.0155877	-0.012542827	-0.43304494
1277137597688	4.1814466	11.876944	-1.4982382	2.8736887	0.0	10.125	-42.6875	-17.9375	-0.81924695	-0.11843108	-0.33851257
1277137597728	-0.3405087	12.789507	-0.6946377	3.0062323	0.0	11.625	-41.625	-20.5	-0.43300632	-0.0542406	0.026617778
1277137597768	-3.445948	13.211738	0.5720546	3.859067	0.0	11.375	-40.875	-23.5625	-0.03172148	0.0418728	0.2551404
1277137597808	0.95342433	5.6252036	-0.19068487	-4.0980344	0.0	10.375	-38.5625	-27.875	-0.5207245	-0.03340921	-0.16789593
1277137597838	2.4108016	1.6480621	0.84446156	-6.766718	0.0	8.9375	-36.3125	-31.9375	-0.91334456	0.28149235	-0.9711513
1277137597868	2.0294318	1.3075534	1.1849703	-7.1173296	0.0	7.4375	-34.0	-35.5	-0.88822687	0.45629	-0.9984419
1277137597898	0.38136974	1.7978859	2.9147544	-6.360837	0.0	6.5	-32.1875	-37.8125	-1.9585745	1.0082182	-0.20902294
1277137597928	-0.50395286	3.405087	3.405087	-4.964832	0.0	5.25	-31.6875	-38.3125	-0.11857038	0.77998143	0.14693338
1277137597968	-1.0760075	6.1291566	5.012288	-1.8161945	0.0	5.0	-32.1875	-38.0625	0.0694462	0.67806137	0.17378466
1277137598008	0.14982383	14.818938	7.9270425	6.999937	0.0	4.0625	-33.25	-38.3125	-0.238127	0.4911756	-0.010109951
1277137598048	4.671779	12.789507	7.9679036	5.9694233	0.0	3.3125	-33.5	-39.0625	-0.67105037	0.5294544	-0.35022384
1277137598088	4.3312707	6.973618	6.891896	0.91200066	0.0	2.5625	-33.25	-39.875	-0.9792569	0.698385	-0.5557854
1277137598128	1.2258313	12.489859	1.7297841	2.8618689	0.0	1.8125	-32.6875	-40.875	-0.13763341	0.1369698	-0.0978328
1277137598168	1.920469	7.9270425	0.08172209	-1.6498814	0.0	1.5625	-31.4375	-41.375	-0.21388328	0.010019097	-0.23768838
1277137598208	-0.3405087	9.302697	-0.19068487	-0.49577045	0.0	1.375	-30.9375	-40.875	-0.0058414214	-0.020481223	0.036586888
1277137598238	-0.8036005	9.997335	0.61291564	0.24164104	0.0	1.8125	-31.6875	-39.375	0.01959344	0.061034888	0.08020902
1277137598278	0.50395286	9.425281	1.2666923	-0.2832899	0.0	2.3125	-32.4375	-37.0625	-0.12392828	0.1334043	-0.05341734
1277137598318	-0.5720546	7.504812	3.486809	-1.5116348	0.0	3.0625	-34.5	-34.25	-0.02611426	0.43383095	0.07607793
1277137598358	-0.14982383	5.5162406	1.5390993	-4.0777597	0.0	4.25	-37.0625	-31.1875	-0.16026503	0.2719972	0.02715382
1277137598388	2.8738933	4.6036777	0.42223078	-4.363178	0.0	5.5	-38.3125	-27.875	-0.7746512	0.07764443	-0.5580672
1277137598428	1.6889231	5.938472	0.6946377	-3.5937257	0.0	6.5	-40.375	-25.0625	-0.6945968	0.11203953	-0.2770875
1277137598458	-0.19068487	9.193735	3.255263	-0.051760674	0.0	7.4375	-41.625	-22.75	-0.7191463	0.34023198	0.020737767
1277137598498	0.38136974	8.730643	3.336985	-0.45223713	0.0	8.1875	-42.125	-20.5	-1.1682334	0.3647636	-0.043653995
1277137598529	-3.0237172	10.732834	1.6889231	1.4711628	0.0	8.1875	-42.9375	-18.9375	0.29910585	0.15032174	0.2746084
1277137598568	-2.4516625	11.727119	-0.23154591	2.176238	0.0	8.6875	-43.1875	-17.4375	0.018265164	-0.01932425	0.20609099
1277137598608	1.2666923	12.9529505	2.1111538	3.3782053	0.0	8.9375	-43.4375	-16.125	-0.96272737	0.16081183	-0.09748183
1277137598648	2.7649305	13.484144	1.1849703	4.0089617	0.0	8.9375	-43.4375	-15.625	-0.9664248	0.08587589	-0.20224705
1277137598678	2.2609777	12.14935	-0.8036005	2.5773916	0.0	10.125	-42.9375	-16.125	-0.7607546	-0.064935625	-0.18399386
1277137598708	2.8330324	13.184497	-1.8387469	3.803568	0.0	11.125	-41.875	-17.125	-0.72551703	-0.13551486	-0.21165766
1277137598748	1.1849703	13.633968	0.3405087	3.8829517	0.0	12.125	-40.375	-19.1875	-0.7076516	0.024876093	-0.086695224
1277137598778	-2.0294318	13.021052	-0.19068487	3.372984	0.0	12.5625	-39.625	-22.25	-0.26954073	-0.014468651	0.15461381
1277137598818	-0.29964766	8.19945	-0.08172209	-1.6013203	0.0	12.375	-38.5625	-25.3125	-0.4030602	-0.0099598	0.036528595
1277137598848	0.50395286	1.1849703	0.27240697	-8.490471	0.0	11.125	-36.8125	-29.625	-0.822658	0.20847479	-0.40211397
1277137598878	0.08172209	0.040861044	0.8036005	-8.997872	0.0	8.9375	-34.75	-33.25	-1.6770742	1.4575846	-1.1071488
1277137598918	-0.08172209	0.8036005	2.3426998	-7.3286076	0.0	6.9375	-33.25	-36.0625	-2.9680502	1.238768	0.10134651
1277137598948	-0.95342433	2.9147544	2.9147544	-5.5757394	0.0	4.75	-31.9375	-37.8125	0.7795193	0.7599965	0.31613263
1277137598988	-0.08172209	5.7886477	5.243834	-1.9955735	0.0	3.5625	-31.6875	-38.3125	-0.41389075	0.73600596	0.014116709
1277137599018	2.3018389	13.484144	6.0474343	5.1496887	0.0	3.3125	-31.6875	-38.0625	-0.36635694	0.41625622	-0.16907728
1277137599058	3.759216	16.249075	7.8861814	8.64209	0.0	3.0625	-31.1875	-38.3125	-0.428117	0.44168624	-0.22734974
1277137599098	3.214402	6.510526	9.997335	2.54916	0.0	2.8125	-30.9375	-39.0625	-1.4775454	0.94265336	-0.4586141
1277137599128	0.14982383	12.4489975	4.9850473	3.6041918	0.0	1.8125	-30.4375	-39.625	-0.08529559	0.38085863	-0.01203443
1277137599168	-0.19068487	9.466142	-1.2666923	-0.25423145	0.0	1.5625	-29.625	-40.125	-0.022089945	-0.13299607	0.020141162
1277137599208	3.0645783	7.082581	-0.9942854	-2.0256996	0.0	1.5625	-28.875	-40.125	-0.29081148	-0.1281349	-0.408368
1277137599238	1.879608	10.691973	-1.1168685	1.1065807	0.0	1.375	-28.875	-39.375	-0.14994863	-0.102520265	-0.17401809
1277137599278	0.14982383	12.067628	0.6537767	2.279603	0.0	2.0625	-30.1875	-37.5625	-0.06782683	0.054119002	-0.012414712
1277137599318	-0.88532263	9.80665	3.445948	0.6254511	0.0	1.8125	-32.6875	-35.0	0.050965745	0.33664423	0.09003372
1277137599358	-1.9885708	4.372132	2.5333846	-4.3763657	0.0	2.8125	-35.25	-31.4375	0.774713	0.48536232	0.42686218
1277137599398	1.7978859	3.173541	-0.95342433	-6.036667	0.0	4.25	-37.3125	-27.375	-0.5739475	-0.2556753	-0.5154407
1277137599428	2.7921712	5.8567495	-0.7627395	-3.273695	0.0	5.0	-38.8125	-23.5625	-0.6617029	-0.11701948	-0.44487047
1277137599458	1.4982382	9.656827	3.9090397	0.7185402	0.0	6.25	-39.875	-20.5	-1.2016091	0.3805148	-0.15392092
1277137599498	1.9477097	9.466142	3.759216	0.5631676	0.0	6.5	-40.875	-18.4375	-1.3587239	0.37096524	-0.20292342
1277137599529	-0.8036005	9.343558	1.5390993	-0.3031416	0.0	6.5	-41.875	-16.875	-0.28642085	0.16266708	0.0857947
1277137599568	-5.012288	10.61025	1.7297841	2.054741	0.0	6.5	-41.875	-15.625	0.8999233	0.14635508	0.4413253
1277137599608	-2.9556155	12.258313	1.8387469	2.936304	0.0	6.25	-41.875	-14.125	0.44249514	0.14480066	0.23659532
1277137599638	3.0237172	13.947236	1.4165162	4.5347157	0.0	6.5	-41.625	-12.8125	-1.0418525	0.09893267	-0.213493
1277137599668	3.3778462	13.33432	-0.95342433	3.9818583	0.0	7.1875	-41.375	-12.5625	-0.84548676	-0.069201514	-0.24810065
1277137599698	3.173541	12.217452	-1.1441092	2.8679895	0.0	8.4375	-41.375	-13.0625	-0.8463516	-0.09039064	-0.25413832
1277137599739	2.7921712	12.830367	-2.8738933	3.6348448	0.0	9.875	-40.875	-15.625	-0.665738	-0.215471	-0.21428104
1277137599778	1.3756552	12.871228	-0.3405087	3.1423616	0.0	10.875	-40.125	-17.6875	-0.6785606	-0.026299147	-0.106474124
1277137599818	-1.4573772	11.304889	-0.19068487	1.5933857	0.0	11.125	-39.0625	-20.1875	-0.28185368	-0.016727472	0.12820853
1277137599848	-0.9942854	4.903325	-0.14982383	-4.801288	0.0	10.625	-37.5625	-24.3125	-0.11525202	-0.029937139	0.20006508
1277137599878	-0.8036005	1.7570249	0.50395286	-7.809933	0.0	9.1875	-35.75	-27.125	0.36442804	0.2551502	0.4289612
1277137599908	0.14982383	1.5390993	1.2258313	-7.8333445	0.0	7.1875	-34.5	-30.6875	-1.2792478	0.67028195	-0.09703939
1277137599939	0.84446156	1.7297841	2.4108016	-6.721649	0.0	5.5	-32.4375	-33.25	-1.5784597	0.89700055	-0.45415422
1277137599978	0.95342433	3.255263	2.4108016	-5.6451936	0.0	3.8125	-31.6875	-34.25	-0.85530114	0.61789024	-0.28491843
1277137600008	1.0351465	6.701211	3.759216	-2.0536208	0.0	3.3125	-31.1875	-35.0	-0.4676249	0.5062152	-0.15326022
1277137600038	-0.0	13.252599	6.0474343	4.7605333	0.0	2.3125	-30.6875	-35.25	-0.11907108	0.42809772	0.0
1277137600078	1.2258313	16.017529	8.117727	8.192276	0.0	1.5625	-30.9375	-35.5	-0.2163929	0.46789864	-0.07638172
1277137600108	5.243834	8.771504	9.112013	3.8851671	0.0	1.125	-30.4375	-35.75	-1.0423892	0.7281741	-0.5388195
1277137600138	2.7240696	11.686258	7.273266	4.2250853	0.0	-0.125	-29.625	-36.8125	-0.38045645	0.54491335	-0.22901087
1277137600178	-0.6946377	9.765789	0.040861044	-0.016101837	0.0	-0.125	-28.375	-37.8125	0.056656536	0.0041735317	0.07101011
1277137600218	2.9556155	5.706926	-1.0351465	-3.2969499	0.0	-0.125	-28.125	-38.3125	-0.29762504	-0.15969388	-0.47786465
1277137600248	2.4108016	10.228881	-1.8387469	0.862134	0.0	-0.875	-27.875	-38.0625	-0.13058901	-0.17321317	-0.23146175
1277137600288	0.313268	13.525005	-0.50395286	3.7313652	0.0	-0.625	-28.875	-36.8125	-0.0011566927	-0.037233617	-0.023157993
1277137600328	0.040861044	11.223166	3.5957718	1.9785404	0.0	-0.375	-31.1875	-34.5	0.011201877	0.31005326	-0.0036407607
1277137600358	-0.84446156	5.8567495	4.099725	-2.6078744	0.0	0.625	-33.0	-31.9375	0.4937776	0.6059012	0.14319913
1277137600398	-0.040861044	4.6036777	1.1168685	-5.069255	0.0	2.3125	-35.5	-28.625	-0.102361776	0.23799625	0.008875506
1277137600428	1.2258313	4.2904096	-1.4573772	-5.1125875	0.0	4.0625	-37.8125	-25.3125	-0.3876972	-0.31569	-0.27829966
1277137600458	2.3018389	5.5162406	-0.14982383	-3.8275347	0.0	5.0	-39.375	-23.0	-0.69222146	-0.02506048	-0.395317
1277137600499	0.3405087	9.275456	4.630918	0.5661726	0.0	4.75	-40.375	-20.5	-1.505343	0.46279097	-0.036694244
1277137600538	1.2258313	8.430995	2.0294318	-1.0486298	0.0	4.75	-40.875	-18.9375	-0.8547426	0.23384818	-0.14438406
1277137600578	-2.7921712	10.61025	3.2961242	1.6492682	0.0	4.0625	-41.125	-17.6875	0.8989286	0.29184783	0.25732374
1277137600618	-4.2904096	12.53072	1.3756552	3.5094671	0.0	4.0625	-41.375	-15.375	0.7103769	0.10349218	0.32988045
1277137600658	1.3075534	12.14935	2.3699405	2.6405592	0.0	5.0	-41.875	-14.125	-1.0020906	0.19156891	-0.10721066
1277137600688	1.7297841	13.443283	-1.1441092	3.7956657	0.0	5.75	-41.625	-13.8125	-0.57028806	-0.08421085	-0.1279696
1277137600718	2.8738933	12.721405	-0.50395286	3.2450695	0.0	6.25	-41.375	-13.5625	-0.7905559	-0.03862159	-0.22218047
1277137600758	3.8273177	13.102775	-0.08172209	3.8439083	0.0	7.6875	-40.625	-14.625	-0.90161806	-0.005986757	-0.28419325
1277137600788	2.6832085	12.53072	-1.3075534	3.0746632	0.0	7.9375	-39.375	-16.375	-0.67419446	-0.10168291	-0.21094488
1277137600828	-0.10896278	13.102775	-0.040861044	3.2966413	0.0	8.4375	-39.0625	-18.4375	-0.41207677	-0.003118385	0.0083158165
1277137600858	-2.2201166	10.228881	-0.50395286	0.67251396	0.0	9.1875	-38.0625	-21.75	-0.038324747	-0.048109498	0.21372898
1277137600892	0.19068487	5.434519	-1.1441092	-4.249732	0.0	7.9375	-36.5625	-25.0625	-0.280446	-0.20737226	-0.035073332
1277137600928	1.6480621	-0.38136974	0.53119355	-8.033597	0.0	7.1875	-35.5	-28.625	-0.80330294	0.30426553	-1.7981987
1277137600958	0.92618364	0.53119355	1.920469	-7.6093373	0.0	5.5	-34.0	-30.9375	-1.4345496	1.0633906	-1.0500679
1277137600998	-0.3405087	1.879608	2.982856	-6.264574	0.0	3.8125	-32.6875	-32.1875	2.942761	1.0012038	0.17921574
1277137601028	0.50395286	5.053149	3.486809	-3.6466079	0.0	2.3125	-32.4375	-33.25	-0.53707397	0.60169005	-0.09940177
1277137601068	1.3756552	10.95076	5.8976107	2.707078	0.0	1.125	-31.9375	-33.25	-0.33894774	0.49075428	-0.12496728
1277137601108	2.4516625	18.115063	7.43671	9.928364	0.0	0.625	-31.9375	-33.75	-0.24793191	0.3863697	-0.13452101
1277137601148	2.7649305	7.3549876	9.656827	2.6430483	0.0	-0.125	-31.9375	-34.25	-1.7142148	0.8877721	-0.3595822
1277137601188	1.1849703	9.00305	5.053149	0.58533573	0.0	-0.375	-31.1875	-34.75	-0.23706003	0.50779814	-0.13086653
1277137601228	1.1849703	10.337844	-1.879608	0.7672844	0.0	-0.625	-30.4375	-35.5	-0.07044544	-0.17870834	-0.11412642
1277137601258	3.6774938	9.043911	-1.4573772	0.06453228	0.0	-0.875	-29.9375	-36.3125	-0.2555653	-0.14818126	-0.3862058
1277137601298	2.0294318	11.795221	-1.2258313	2.2244968	0.0	-1.375	-29.625	-36.3125	-0.09349083	-0.102065265	-0.17038718
1277137601338	-0.27240697	9.956474	-0.61291564	0.17238998	0.0	-1.5625	-30.6875	-35.0	0.06513054	-0.061458983	0.027352959
1277137601378	-0.7218784	9.302697	2.4925237	-0.14880562	0.0	-0.875	-33.5	-32.4375	0.15119962	0.26103726	0.07744363
1277137601408	-0.61291564	5.053149	2.070293	-4.311553	0.0	0.125	-36.0625	-29.125	0.30315802	0.3862882	0.12070415
1277137601438	0.50395286	4.4810944	0.42223078	-5.2775826	0.0	2.0625	-38.3125	-25.8125	-0.2781485	0.09336244	-0.11199144
1277137601478	2.0294318	5.134871	-0.7218784	-4.238293	0.0	3.5625	-40.125	-22.75	-0.58573204	-0.13000529	-0.37638363
1277137601508	0.50395286	9.193735	4.671779	0.5182829	0.0	3.5625	-40.375	-21.0	-1.471552	0.46953928	-0.05476001
1277137601538	1.2666923	9.575105	4.630918	0.9046774	0.0	3.3125	-40.375	-18.6875	-1.6018324	0.44708446	-0.13152646
1277137601578	-0.3405087	8.771504	1.4165162	-0.9149828	0.0	3.3125	-40.625	-17.125	-0.16493112	0.15998994	0.038800392
1277137601618	-2.7921712	10.501288	2.6014864	1.3665771	0.0	3.5625	-41.375	-16.125	0.862422	0.23498884	0.2598757
1277137601648	-2.4925237	11.223166	1.4165162	1.7769003	0.0	4.25	-41.625	-14.375	0.48798546	0.12259373	0.21854043
1277137601678	-0.29964766	12.258313	1.2666923	2.5205765	0.0	5.25	-42.125	-13.3125	-0.44260257	0.10293734	0.024439577
1277137601708	2.6423476	13.484144	1.3756552	4.0026426	0.0	5.75	-42.4375	-13.0625	-0.9950958	0.09978358	-0.19350757
1277137601738	2.4108016	12.762266	0.7218784	3.2013674	0.0	6.9375	-41.625	-13.3125	-0.91915375	0.055523407	-0.18670079
1277137601778	2.3426998	11.727119	0.3405087	2.1570244	0.0	8.1875	-41.625	-14.375	-0.8846097	0.028465725	-0.1971722
1277137601808	1.8387469	12.026767	-1.4165162	2.442049	0.0	9.1875	-41.125	-16.625	-0.62833375	-0.1159056	-0.15171307
1277137601848	0.42223078	12.258313	0.08172209	2.4592047	0.0	9.6875	-40.375	-19.1875	-0.52944154	0.006662617	-0.03443083
1277137601878	-2.3426998	11.645397	0.27240697	2.0751724	0.0	8.9375	-39.0625	-22.0	-0.050162982	0.022928372	0.19851992
1277137601908	0.040861044	7.3958488	-0.46309182	-2.3962045	0.0	7.9375	-37.5625	-25.5625	-0.2844528	-0.06253251	-0.0055248057
1277137601938	2.0294318	2.2609777	0.38136974	-6.7446156	0.0	6.9375	-36.0625	-28.625	-0.8511607	0.12487209	-0.7314822
1277137602022	1.2258313	2.3018389	1.879608	-6.5919886	0.0	6.0	-35.0	-31.4375	-1.1748898	0.6245084	-0.48934287
1277137602061	-0.9125633	4.6036777	2.152015	-4.643532	0.0	4.75	-34.5	-33.75	0.12589666	0.42992792	0.19568811
1277137602098	0.7627395	8.499097	6.0474343	0.65221596	0.0	3.0625	-34.0	-34.5	-0.60927737	0.61653465	-0.089503825
1277137602138	2.6423476	16.04477	7.246025	7.99564	0.0	1.375	-33.75	-34.75	-0.35814333	0.41919765	-0.16322085
1277137602178	3.0645783	9.888372	8.771504	3.7620945	0.0	-0.375	-33.0	-34.75	-0.99836296	0.7029213	-0.30053028
1277137602218	3.0645783	8.308413	6.3607025	1.0965557	0.0	-1.375	-32.4375	-34.75	-0.77263516	0.6228829	-0.3533702
1277137602248	0.88532263	9.697687	0.313268	-0.06359768	0.0	-1.375	-31.6875	-35.5	-0.043831535	0.032158505	-0.09103979
1277137602288	2.6423476	7.8589406	-0.46309182	-1.50247	0.0	-1.375	-31.1875	-36.0625	-0.22530238	-0.055795055	-0.32434797
1277137602328	2.070293	11.958665	0.23154591	2.3321056	0.0	-1.375	-30.9375	-36.0625	-0.11014106	0.019076087	-0.17142168
1277137602368	-0.27240697	11.264028	-1.4982382	1.5598459	0.0	-1.375	-31.1875	-35.25	0.05445912	-0.13219649	0.024179086
1277137602408	1.1441092	9.00305	1.6480621	-0.58276844	0.0	-1.125	-32.6875	-32.6875	-0.11357506	0.17963795	-0.12640266
1277137602438	-0.53119355	6.2108784	3.568531	-2.6239219	0.0	-0.375	-35.0	-29.9375	0.36927015	0.519932	0.08531869
1277137602478	-0.42223078	4.9850473	1.7978859	-4.490508	0.0	1.125	-37.5625	-26.0625	0.17142348	0.34499684	0.08449778
1277137602518	2.1111538	5.09401	-0.7218784	-4.245444	0.0	2.8125	-39.875	-22.25	-0.58961785	-0.1301734	-0.39289108
1277137602548	0.95342433	7.205164	2.3699405	-2.1620426	0.0	3.5625	-41.875	-19.4375	-1.003129	0.3152085	-0.13156082
1277137602588	0.08172209	10.18802	4.862464	1.4825468	0.0	4.0625	-42.4375	-16.625	-2.208175	0.44528854	-0.008021219
1277137602646	-0.6946377	8.499097	1.56634	-1.1365528	0.0	4.25	-43.4375	-14.875	-0.10302224	0.18165748	0.08154951
1277137602678	-3.1054392	10.56939	1.3075534	1.2868376	0.0	4.5	-43.9375	-13.0625	0.7989155	0.11814139	0.28577232
1277137602718	-1.9477097	13.797412	1.1849703	4.1778526	0.0	4.75	-43.6875	-12.0625	0.16753218	0.08483626	0.14023823
1277137602762	1.5390993	13.756551	3.336985	4.432275	0.0	5.5	-44.1875	-11.5625	-1.4659323	0.23655662	-0.11141785
1277137602800	3.214402	12.217452	-0.14982383	2.8274689	0.0	6.75	-43.4375	-11.5625	-0.97032034	-0.011858947	-0.25726885
1277137602838	4.399372	12.340035	-0.8036005	3.3187723	0.0	8.1875	-43.1875	-12.5625	-0.98119617	-0.061263043	-0.34246442
1277137602868	1.6480621	11.876944	-1.7570249	2.3121386	0.0	9.6875	-42.6875	-14.375	-0.65428513	-0.14549634	-0.13788101
1277137602898	-1.7570249	13.797412	0.27240697	4.1048527	0.0	9.6875	-41.625	-16.625	-0.2689304	0.019582672	0.12666278
1277137602928	-2.8330324	11.876944	-0.0	2.4035034	0.0	9.1875	-41.125	-20.5	0.029511165	-0.0	0.23415658
1277137602958	0.14982383	5.5571017	-0.9125633	-4.1731257	0.0	7.9375	-39.875	-24.8125	-0.28363684	-0.16270491	-0.026954256
1277137602998	1.7570249	0.92618364	0.19068487	-7.811327	0.0	6.25	-38.3125	-28.375	-0.9367282	0.095711984	-1.0856797
1277137603038	1.879608	1.879608	0.6537767	-7.0692654	0.0	5.25	-36.8125	-31.6875	-0.8632082	0.24116346	-0.7853982
1277137603078	0.10896278	2.6014864	3.1463003	-5.72268	0.0	3.5625	-35.25	-32.6875	-2.4578145	0.879472	-0.04186035
1277137603118	-0.6537767	5.6660647	4.372132	-2.6200476	0.0	2.3125	-34.75	-32.6875	0.33910763	0.6540083	0.114876606
1277137603158	1.4165162	11.958665	6.0201936	3.6565924	0.0	1.5625	-34.5	-32.4375	-0.38670793	0.4635852	-0.11790167
1277137603198	4.2086873	15.595298	7.246025	7.897339	0.0	1.125	-34.5	-32.6875	-0.5533075	0.42167327	-0.26358974
1277137603228	3.8681788	9.697687	8.921328	3.9264498	0.0	0.625	-34.5	-33.5	-1.2258034	0.7070876	-0.3795374
1277137603258	-0.3405087	11.645397	4.671779	2.745511	0.0	-0.375	-33.5	-34.25	0.06992836	0.38136658	0.029231438
1277137603298	0.5720546	7.504812	-1.4982382	-2.1323967	0.0	-0.375	-33.0	-35.5	-0.05169746	-0.19649112	-0.07607793
1277137603338	3.486809	6.5922484	0.27240697	-2.3440914	0.0	-0.625	-32.6875	-35.75	-0.40186584	0.03651127	-0.48651943
1277137603378	0.53119355	11.073342	-1.4982382	1.380208	0.0	-0.375	-33.0	-35.0	-0.030849217	-0.13433206	-0.047933735
1277137603408	0.53119355	11.917805	0.46309182	2.1319714	0.0	-0.125	-34.5	-34.0	-0.043215428	0.038799122	-0.044541944
1277137603438	-0.08172209	9.765789	3.1054392	0.44132805	0.0	-0.375	-36.5625	-31.4375	0.036048796	0.30786997	0.008368006
1277137603478	-1.0351465	5.706926	3.6774938	-2.9390092	0.0	-0.375	-38.3125	-28.375	1.0840813	0.56507766	0.17943344
1277137603518	0.50395286	5.175732	0.3405087	-4.595305	0.0	0.125	-40.125	-25.3125	-0.17535336	0.06538647	-0.09706246
1277137603548	2.0294318	5.7886477	-0.08172209	-3.6720176	0.0	1.125	-41.625	-22.5	-0.5724698	-0.013321825	-0.33719876
1277137603588	0.88532263	8.853226	3.568531	-0.22031498	0.0	1.375	-42.125	-20.1875	-1.0506623	0.38143408	-0.09966866
1277137603628	0.61291564	8.689782	2.2201166	-0.8168287	0.0	1.8125	-42.6875	-18.6875	-0.5629519	0.24954072	-0.0704163
1277137603658	-0.0	7.8589406	2.3426998	-1.6059675	0.0	1.8125	-42.9375	-16.875	-0.4344823	0.28970686	0.0
1277137603688	-3.255263	10.18802	2.9147544	1.2788486	0.0	1.375	-42.9375	-15.375	1.2452005	0.26606196	0.30926633
1277137603728	-4.399372	12.258313	0.38136974	3.222784	0.0	1.8125	-43.1875	-14.625	0.7652997	0.029274043	0.3445716
1277137603758	0.3405087	13.6748295	1.3756552	3.9414167	0.0	2.5625	-43.6875	-13.8125	-0.3710426	0.10022945	-0.024895253
1277137603798	4.630918	12.340035	1.7570249	3.490305	0.0	3.5625	-44.1875	-13.5625	-1.1632525	0.13252497	-0.35901254
1277137603828	3.255263	11.34575	1.334794	2.0720901	0.0	4.5	-44.1875	-14.125	-1.0531611	0.112606145	-0.27940917
1277137603868	2.4516625	12.067628	-2.3426998	2.728362	0.0	5.5	-43.9375	-15.375	-0.55217737	-0.18799795	-0.20043242
1277137603898	-0.53119355	12.489859	-2.4516625	2.9326353	0.0	5.75	-43.4375	-17.125	-0.15348497	-0.19365716	0.042504374
1277137603938	-2.3018389	13.6748295	0.7627395	4.081517	0.0	5.25	-42.4375	-19.9375	0.10592154	0.054947738	0.16676341
1277137603978	0.27240697	9.302697	-0.08172209	-0.4996071	0.0	5.0	-41.625	-23.8125	-0.25167564	-0.008780784	-0.029274216
1277137604018	2.4925237	3.7864566	0.42223078	-5.253826	0.0	3.3125	-40.375	-27.375	-0.7989601	0.092873864	-0.58216935
1277137604048	1.3756552	2.7240696	1.1168685	-6.5569763	0.0	1.8125	-38.3125	-30.6875	-0.8279634	0.35083959	-0.46763963
1277137604088	-0.10896278	1.3756552	2.7649305	-6.7164817	0.0	0.375	-37.5625	-33.5	3.0029068	1.1078726	0.07904289
1277137604123	-0.9125633	3.568531	2.7921712	-5.1845937	0.0	-1.125	-36.5625	-34.5	1.01786	0.64863247	0.2503598
1277137604158	-0.10896278	7.5865335	4.5628166	-0.9530258	0.0	-2.0625	-35.75	-34.75	0.22272159	0.54142934	0.01436167
1277137604198	1.1849703	15.976667	6.2789803	7.4004307	0.0	-3.5625	-35.5	-35.25	0.046771593	0.37353265	-0.07403325
1277137604228	4.862464	10.61025	7.014479	3.8103943	0.0	-4.5	-34.25	-36.0625	-0.63186795	0.54115343	-0.42971808
1277137604258	3.568531	6.0882955	8.117727	0.949708	0.0	-5.75	-33.0	-36.8125	-1.5306036	0.8551831	-0.5301584
1277137604298	0.23154591	9.00305	5.366417	0.67700195	0.0	-6.25	-31.6875	-37.8125	0.32386142	0.5373769	-0.02571294
1277137604338	1.334794	10.119919	-0.3405087	0.40659523	0.0	-6.25	-31.4375	-38.5625	0.052603263	-0.033346094	-0.13114071
1277137604378	-0.14982383	10.038197	-0.10896278	0.23325539	0.0	-6.9375	-31.1875	-38.8125	0.18687744	-0.010853182	0.0149242645
1277137604420	-1.525479	10.079058	2.3018389	0.6438503	0.0	-6.9375	-31.9375	-39.375	0.3520641	0.22208217	0.1502113
1277137604458	0.6946377	8.539958	1.0351465	-1.1761847	0.0	-7.1875	-33.25	-38.0625	0.13165285	0.12023044	-0.08116103
1277137604498	0.84446156	7.6954966	1.607201	-1.8998885	0.0	-7.9375	-34.5	-35.25	0.14966941	0.20469564	-0.1092972
1277137604538	1.607201	5.829509	1.1849703	-3.6446357	0.0	-7.9375	-36.5625	-32.1875	-0.08445029	0.19350782	-0.26901773
1277137604578	2.070293	5.6660647	1.0351465	-3.6860347	0.0	-8.4375	-38.3125	-27.875	-0.24493879	0.16994138	-0.35031423
1277137604618	0.53119355	8.158588	3.1463003	-1.0462885	0.0	-9.1875	-40.375	-24.3125	0.685329	0.36735898	-0.06501675
1277137604658	1.3756552	8.921328	2.152015	-0.52690506	0.0	-9.1875	-41.625	-21.75	0.23776631	0.23403513	-0.1529935
1277137604698	-0.27240697	9.302697	1.3075534	-0.4085617	0.0	-8.6875	-42.9375	-19.6875	0.63258106	0.13958253	0.029274214
1277137604738	-4.1814466	11.985906	1.7978859	3.0143805	0.0	-8.6875	-43.6875	-18.1875	1.061233	0.14069313	0.3356621
1277137604768	-1.9885708	12.912089	2.5333846	3.5010347	0.0	-8.1875	-44.4375	-16.875	1.0540154	0.19153908	0.15280786
1277137604808	1.879608	13.6748295	2.7240696	4.2629776	0.0	-7.6875	-45.1875	-16.125	0.20744151	0.194844	-0.13659428
1277137604838	1.7978859	12.762266	-0.14982383	3.0825033	0.0	-6.9375	-44.9375	-16.125	0.036074612	-0.011624286	-0.13995415
1277137604878	0.7218784	11.141444	-1.3075534	1.4344616	0.0	-5.75	-44.6875	-17.125	0.12739708	-0.11658277	-0.06470174
1277137604908	0.84446156	11.563675	-2.070293	1.9712029	0.0	-5.0	-43.9375	-19.6875	0.065716065	-0.1766965	-0.07289769
1277137604938	0.040861044	13.021052	-0.29964766	3.2179136	0.0	-4.5	-42.9375	-22.25	0.18572997	-0.023008378	-0.0031380649
1277137604968	-0.8036005	13.021052	-0.6537767	3.2555475	0.0	-5.5	-41.375	-24.5625	0.29365316	-0.05007197	0.061637305
1277137605008	1.3756552	9.534244	-0.5720546	-0.156703	0.0	-6.5	-39.625	-27.375	0.026070826	-0.059315372	-0.14329676
1277137605048	1.607201	1.8387469	1.1441092	-7.109787	0.0	-7.6875	-37.3125	-30.1875	-0.95527977	0.43811914	-0.71830535
1277137605088	-0.23154591	2.3018389	1.4165162	-7.093977	0.0	-9.4375	-35.0	-32.6875	0.9021865	0.54941064	0.100254476
1277137605118	-0.53119355	1.920469	1.6889231	-7.1945953	0.0	-10.875	-33.75	-35.5	1.1844957	0.7031031	0.26984915
1277137605158	-0.38136974	4.2904096	2.1792557	-4.9794135	0.0	-12.5625	-32.1875	-37.0625	0.6774144	0.4683896	0.08865588
1277137605198	2.1111538	8.921328	5.434519	0.850791	0.0	-13.8125	-31.4375	-36.8125	0.4055452	0.5351001	-0.23236673
1277137605228	3.2961242	14.982383	7.504812	7.2713604	0.0	-15.0625	-31.4375	-37.0625	0.4085575	0.45497847	-0.2165503
1277137605258	2.4516625	12.489859	8.921328	5.7367506	0.0	-16.0	-30.4375	-36.8125	0.7192545	0.61133647	-0.1938279
1277137605298	2.2609777	9.724928	9.997335	4.322503	0.0	-16.5	-30.6875	-36.5625	1.3504189	0.78605056	-0.22843485
1277137605338	-1.0351465	13.293459	1.334794	3.5936956	0.0	-17.75	-30.6875	-37.5625	0.5275111	0.09977438	0.077712044
1277137605378	2.982856	6.238119	-2.5606253	-2.4331598	0.0	-17.5	-29.9375	-38.3125	0.059877653	-0.35466316	-0.44602826
1277137605418	3.990762	8.117727	-0.53119355	-0.74542236	0.0	-17.5	-30.4375	-38.0625	0.05677627	-0.058656316	-0.4569137
1277137605458	-1.4982382	11.264028	1.1168685	1.6113367	0.0	-17.75	-30.6875	-37.0625	0.5649947	0.09797325	0.13223471
1277137605498	-1.607201	9.915613	2.8330324	0.63023376	0.0	-17.0	-32.1875	-35.0	0.7045225	0.27489334	0.16069037
1277137605538	-2.1792557	5.053149	1.9477097	-3.9690952	0.0	-17.0	-34.75	-31.9375	0.93433934	0.34017453	0.40716672
1277137605578	1.2258313	4.3312707	-0.7218784	-5.2477384	0.0	-15.5	-37.3125	-28.875	0.13549894	-0.15901373	-0.27580586
1277137605618	4.5219555	5.366417	-0.6946377	-2.7547684	0.0	-15.0625	-39.625	-25.3125	-0.44842264	-0.098663874	-0.70020545
1277137605658	2.6014864	9.915613	6.1700177	2.1581411	0.0	-14.8125	-41.125	-22.0	2.3176842	0.54180247	-0.25657982
1277137605688	1.56634	9.152874	1.4982382	-0.4006281	0.0	-14.5625	-41.875	-19.4375	0.5377842	0.15996636	-0.16948913
1277137605728	-2.7921712	10.61025	2.2201166	1.3872118	0.0	-15.0625	-42.125	-17.9375	1.1852922	0.19965725	0.2573237
1277137605758	-5.09401	12.871228	0.5720546	4.047761	0.0	-15.0625	-42.6875	-17.6875	1.0700353	0.041302174	0.3768521
1277137605798	-1.9477097	13.211738	1.4573772	3.6271706	0.0	-14.3125	-42.6875	-17.4375	1.0038184	0.10869961	0.14636838
1277137605828	3.445948	14.056199	-0.040861044	4.665839	0.0	-13.3125	-42.9375	-16.875	0.1578388	-0.0028233633	-0.24041352
1277137605868	3.6774938	12.571581	-1.334794	3.3596048	0.0	-12.375	-43.1875	-17.125	-0.011485757	-0.1015544	-0.28458437
1277137605908	2.4925237	12.980191	-1.0351465	3.4511614	0.0	-10.625	-42.6875	-18.4375	0.108887784	-0.078157775	-0.18971585
1277137605938	0.19068487	13.484144	-0.84446156	3.7052565	0.0	-9.4375	-41.875	-21.5	0.35195577	-0.06253834	-0.014140472
1277137605968	-0.7218784	11.985906	-1.334794	2.2749357	0.0	-9.4375	-40.375	-25.0625	0.38426974	-0.1107077	0.06015461
1277137606008	0.61291564	7.7363577	-1.1441092	-1.9621692	0.0	-9.6875	-39.375	-28.375	0.19074783	-0.14637102	-0.07906021
1277137606038	0.92618364	0.50395286	1.3075534	-8.126924	0.0	-10.625	-37.5625	-31.6875	-1.6190809	0.89216465	-1.0724806
1277137606068	0.08172209	0.27240697	2.070293	-7.716914	0.0	-12.8125	-35.75	-33.75	3.0810363	1.4342784	-0.29145682
1277137606108	-0.9125633	1.334794	2.7921712	-6.5800934	0.0	-14.5625	-34.25	-35.0	1.5649117	1.045892	0.59968436
1277137606148	-0.6946377	3.5276701	3.8681788	-4.5255723	0.0	-16.25	-32.4375	-35.5	1.429613	0.82192844	0.1944238
1277137606188	-0.61291564	9.112013	6.8237944	1.5937271	0.0	-18.0	-31.9375	-35.0	1.1217365	0.64170057	0.0671634
1277137606228	2.152015	17.733692	6.701211	9.27269	0.0	-18.6875	-31.4375	-34.25	0.6284421	0.35888305	-0.12076129
1277137606258	4.3312707	7.6954966	8.471856	2.430708	0.0	-19.9375	-31.1875	-34.0	2.0389106	0.76466393	-0.5126415
1277137606298	2.1111538	6.851035	5.7886477	-0.59241676	0.0	-21.125	-30.9375	-34.0	1.2266111	0.67927474	-0.29891798
1277137606338	2.3699405	13.293459	-2.4516625	3.9171734	0.0	-21.375	-29.625	-34.5	0.37863335	-0.17960691	-0.17642514
1277137606378	3.214402	10.61025	1.3756552	1.3648415	0.0	-22.375	-29.625	-35.0	0.3986937	0.12345315	-0.29416332
1277137606418	-0.9125633	11.454713	-0.6537767	1.70294	0.0	-22.125	-29.375	-34.75	0.5921223	-0.05683337	0.07949916
1277137606459	-0.5720546	9.343558	0.23154591	-0.44273376	0.0	-22.375	-30.1875	-33.5	0.635528	0.024729984	0.061148167
1277137606498	-0.23154591	7.3141265	2.2609777	-2.147533	0.0	-22.375	-32.1875	-30.6875	0.8624176	0.2996657	0.031646788
1277137606538	0.8036005	5.053149	1.9477097	-4.3318295	0.0	-20.875	-34.0	-27.625	0.87699825	0.3637247	-0.15770897
1277137606578	2.9147544	3.336985	-1.3075534	-5.1870227	0.0	-19.6875	-36.5625	-24.3125	-0.25928384	-0.2869654	-0.7179625
1277137606618	1.879608	5.6660647	-0.3405087	-3.8272552	0.0	-18.4375	-38.3125	-21.25	0.22626288	-0.056977842	-0.32030755
1277137606658	1.1168685	10.56939	4.862464	1.8810768	0.0	-18.4375	-39.625	-19.1875	1.5532901	0.42907697	-0.10527941
1277137606688	-0.50395286	10.501288	2.4925237	0.9981499	0.0	-18.6875	-40.625	-17.4375	1.2085029	0.23278335	0.04795283
1277137606728	-5.597963	11.032481	2.7240696	2.8611593	0.0	-18.6875	-41.125	-16.375	1.2965441	0.21673147	0.46955594
1277137606758	-4.671779	12.9529505	-0.29964766	3.9663029	0.0	-18.4375	-41.625	-16.375	1.0733272	-0.021757957	0.34615123
1277137606788	0.95342433	14.206022	1.9477097	4.5639324	0.0	-17.75	-42.4375	-15.875	0.9867002	0.13595293	-0.0670136
1277137606828	2.4516625	14.206022	-0.38136974	4.614416	0.0	-17.25	-42.9375	-15.875	0.51669353	-0.026448404	-0.17089574
1277137606878	5.597963	12.4489975	-1.0760075	3.8854103	0.0	-16.25	-42.9375	-17.125	-0.13408959	-0.07866735	-0.42258096
1277137606908	3.568531	13.375181	-2.3699405	4.2377977	0.0	-15.0625	-42.4375	-19.1875	0.13559613	-0.169557	-0.26072916
1277137606938	-0.9942854	14.941522	-0.10896278	5.168314	0.0	-13.5625	-41.375	-22.75	0.61506784	-0.0072763944	0.06644715
1277137606968	-3.3642259	13.0619135	-0.08172209	3.6818	0.0	-12.375	-39.875	-26.875	0.68051463	-0.0060587088	0.25208116
1277137607008	-0.50395286	4.8216033	0.61291564	-4.92019	0.0	-12.5625	-38.0625	-30.1875	0.5753832	0.12576267	0.10414164
1277137607048	0.61291564	0.313268	0.27240697	-9.066375	0.0	-13.3125	-36.5625	-32.4375	-0.9320732	0.37683615	-1.0982994
1277137607088	0.6537767	-0.29964766	0.95342433	-8.612401	0.0	-15.0625	-34.5	-34.0	-1.061493	0.92454416	-2.0005586
1277137607128	-0.23154591	1.879608	2.6423476	-6.5557213	0.0	-17.25	-33.25	-34.25	1.8095396	0.9489386	0.122570865
1277137607168	0.61291564	6.3198414	4.1814466	-2.2039828	0.0	-19.4375	-32.4375	-33.5	1.0552433	0.58236104	-0.096680395
1277137607208	1.6480621	14.818938	6.3607025	6.4037037	0.0	-20.875	-31.9375	-32.6875	0.80047166	0.40322328	-0.110758096
1277137607238	3.1054392	14.818938	8.430995	7.5232773	0.0	-22.125	-32.4375	-31.9375	0.97138494	0.5080783	-0.20656961
1277137607278	3.636633	7.9270425	9.00305	2.7280226	0.0	-22.875	-32.1875	-31.4375	2.2532856	0.80128634	-0.4301172
1277137607318	2.6014864	13.947236	3.405087	4.7840233	0.0	-23.375	-31.9375	-31.9375	0.6456476	0.23554628	-0.18440439
1277137607358	1.7297841	7.6954966	-3.214402	-1.2893028	0.0	-24.0625	-31.1875	-31.9375	0.36877322	-0.38698137	-0.22110385
1277137607398	3.568531	8.349273	-1.7978859	-0.55045414	0.0	-24.0625	-30.4375	-31.9375	0.25745338	-0.1954785	-0.40390697
1277137607428	-0.61291564	14.47843	0.040861044	4.684805	0.0	-24.3125	-30.6875	-31.9375	0.6767595	0.0028196683	0.042307757
1277137607468	-0.9125633	11.604536	2.6014864	2.1208706	0.0	-23.5625	-31.1875	-30.9375	0.8280004	0.21987526	0.078477
1277137607508	-0.9942854	4.9850473	3.3778462	-3.7034426	0.0	-22.375	-33.0	-29.625	1.2579708	0.5865059	0.19687007
1277137607538	-0.88532263	5.134871	1.4165162	-4.406908	0.0	-21.375	-35.0	-27.625	0.9687063	0.26543635	0.17073521
1277137607568	0.5720546	5.7477865	1.9477097	-3.7109246	0.0	-19.6875	-36.8125	-25.3125	0.93947077	0.3252235	-0.0991994
1277137607608	0.95342433	6.0201936	3.9090397	-2.5656319	0.0	-18.4375	-38.8125	-23.5625	1.7673898	0.570255	-0.15706655
1277137607648	-0.42223078	8.962189	1.8387469	-0.6480427	0.0	-17.5	-40.125	-22.75	0.93131876	0.20214088	0.04707765
1277137607678	3.0645783	6.891896	-0.7218784	-2.2296472	0.0	-16.0	-40.375	-22.5	-0.067169465	-0.09541701	-0.41840768
1277137607718	0.5720546	7.668256	5.597963	-0.29525757	0.0	-15.25	-40.625	-22.75	2.036167	0.62926835	-0.07446243
1277137607758	-3.2961242	15.431854	3.8273177	6.4308033	0.0	-15.0625	-40.875	-22.5	1.0552403	0.2379483	0.2104302
1277137607788	-2.8738933	16.3989	1.9885708	6.9605083	0.0	-14.8125	-41.375	-20.1875	0.9507949	0.11887896	0.17348741
1277137607828	-0.42223078	14.9006605	0.92618364	5.1287365	0.0	-14.8125	-42.125	-17.6875	0.81537205	0.062052518	0.028328799
1277137607858	5.325556	14.9006605	0.84446156	6.0396223	0.0	-14.5625	-42.9375	-14.375	-0.061722677	0.05331612	-0.34325552
1277137607888	2.1792557	12.912089	-0.8036005	3.312686	0.0	-14.5625	-43.1875	-12.5625	0.43844986	-0.0612915	-0.16720067
1277137607918	-1.7978859	10.079058	-2.070293	0.6387272	0.0	-14.8125	-43.1875	-12.8125	0.8251732	-0.19952302	0.17652176
1277137607948	-4.372132	10.337844	0.50395286	1.4290304	0.0	-15.75	-42.9375	-14.125	1.1869887	0.044867955	0.40011173
1277137607988	-1.525479	10.501288	-1.4573772	0.90447044	0.0	-16.75	-42.125	-16.875	0.7981342	-0.13648543	0.14425682
1277137608028	4.9850473	11.413852	-3.2961242	3.0771055	0.0	-17.25	-41.125	-20.1875	-0.021082211	-0.25871202	-0.41178426
1277137608068	4.2086873	4.2086873	0.95342433	-3.7787886	0.0	-18.4375	-39.0625	-24.5625	-0.685802	0.15883662	-0.7853982
1277137608108	-0.27240697	-0.84446156	0.88532263	-8.553208	0.0	-19.4375	-37.0625	-28.125	-0.1441966	0.7842765	2.8295505
1277137608148	-1.7978859	1.334794	0.27240697	-7.55093	0.0	-21.125	-34.5	-30.6875	0.9303531	0.1210582	0.93216133
1277137608188	-0.46309182	1.879608	2.9147544	-6.307626	0.0	-23.125	-32.6875	-31.9375	1.7073944	0.9845426	0.24156572
1277137608228	0.27240697	4.0588636	4.630918	-3.6427245	0.0	-24.0625	-32.1875	-31.6875	1.7706192	0.8500201	-0.06701361
1277137608258	0.313268	8.662541	5.09401	0.24753761	0.0	-24.8125	-31.9375	-31.6875	1.1459979	0.5313011	-0.03614777
1277137608298	2.9147544	15.636159	7.205164	7.654726	0.0	-25.0625	-31.9375	-31.9375	0.9221291	0.4253442	-0.18429586
1277137608338	3.9499009	9.507003	10.18802	4.6771536	0.0	-25.0625	-31.9375	-31.6875	2.0001802	0.7801806	-0.3937734
1277137608378	1.920469	10.337844	6.5513873	2.5820503	0.0	-25.3125	-31.1875	-31.6875	1.1654731	0.55720913	-0.1836769
1277137608418	1.0760075	13.375181	-2.1383946	3.781065	0.0	-26.0625	-30.4375	-31.9375	0.5709802	-0.15803404	-0.080275185
1277137608449	2.070293	8.349273	1.0760075	-1.137495	0.0	-26.75	-30.6875	-31.4375	0.6079357	0.12443999	-0.24305856
1277137608488	0.84446156	9.80665	-0.23154591	0.039014816	0.0	-27.75	-30.4375	-31.4375	0.6609169	-0.023519717	-0.08589921
1277137608528	0.61291564	8.771504	-0.3405087	-1.0071669	0.0	-28.25	-31.1875	-30.1875	0.69103265	-0.038706105	-0.06976238
1277137608558	0.6946377	8.349273	2.4516625	-1.0771866	0.0	-28.0	-32.4375	-27.875	0.97696906	0.28467876	-0.083006226
1277137608598	-0.9125633	6.782933	3.7864566	-1.9850001	0.0	-27.5	-33.75	-25.3125	1.3319702	0.5053337	0.13373514
1277137608638	1.9885708	3.6774938	-0.0	-5.6259356	0.0	-26.3125	-35.5	-22.5	0.2713448	-0.0	-0.4957066
1277137608678	3.990762	4.3312707	-0.7627395	-3.8679752	0.0	-25.3125	-37.3125	-19.1875	-0.2630992	-0.12879172	-0.74450445
1277137608718	1.1849703	9.234595	5.243834	0.8788395	0.0	-25.3125	-38.8125	-16.875	1.8494575	0.5129428	-0.12762119
1277137608758	-0.42223078	8.499097	0.38136974	-1.2885303	0.0	-24.8125	-39.625	-15.875	1.0844353	0.04478656	0.049638677
1277137608788	-3.405087	9.466142	3.336985	0.7923088	0.0	-24.5625	-40.375	-14.625	1.448046	0.32028896	0.34530082
1277137608828	-6.1700177	12.367276	1.3075534	4.0760136	0.0	-24.3125	-40.375	-14.875	1.267976	0.09432587	0.46276614
1277137608858	-1.6480621	14.246883	1.2666923	4.591069	0.0	-23.125	-40.625	-14.875	1.1765007	0.088092566	0.11516689
1277137608888	1.7978859	14.437569	-0.23154591	4.744274	0.0	-22.125	-40.875	-14.125	0.85126746	-0.01591347	-0.12389052
1277137608918	4.2495484	14.941522	-1.1168685	5.7675314	0.0	-21.125	-41.625	-14.375	0.46909425	-0.07177442	-0.2770953
1277137608948	6.742072	14.410328	-1.7570249	6.199606	0.0	-19.9375	-41.875	-15.625	0.015183066	-0.109992795	-0.43760985
1277137608988	5.47538	13.593107	-1.56634	4.9312525	0.0	-18.9375	-41.875	-17.125	0.087419644	-0.10648081	-0.38292265
1277137609028	-1.525479	14.206022	0.23154591	4.4829187	0.0	-18.6875	-41.375	-20.5	0.85841566	0.016204553	0.10697264
1277137609058	-1.7297841	7.7772183	0.7218784	-1.8067513	0.0	-19.1875	-39.625	-24.3125	0.91341037	0.09035885	0.21885437
1277137609098	-0.040861044	1.1441092	1.0760075	-8.23552	0.0	-20.1875	-37.8125	-26.875	1.8341526	0.7544149	0.035699114
1277137609128	0.08172209	0.23154591	0.5720546	-9.184124	0.0	-21.625	-36.0625	-29.125	2.83362	1.1653465	-0.33929262
1277137609168	-0.3405087	-0.61291564	1.9477097	-7.7365813	0.0	-23.125	-35.0	-29.9375	-0.064914435	1.2252522	2.634494
1277137609208	-0.7218784	0.08172209	2.152015	-7.5353165	0.0	-23.5625	-34.0	-29.375	0.9163394	1.2452234	1.4580687
1277137609238	-0.5720546	4.903325	2.7921712	-4.135137	0.0	-24.8125	-33.75	-28.625	1.239346	0.51474744	0.11614163
1277137609268	0.10896278	13.6748295	6.973618	5.544056	0.0	-25.8125	-33.5	-28.125	1.2063924	0.47157112	-0.007967959
1277137609308	6.0201936	16.167353	10.95076	10.627272	0.0	-25.8125	-33.25	-27.625	1.4289904	0.5655862	-0.3564606
1277137609348	3.8681788	1.6889231	8.049625	-0.7175503	0.0	-26.75	-33.75	-27.125	-2.3767447	1.0878599	-1.159125
1277137609388	-0.14982383	10.228881	5.2165933	1.676611	0.0	-26.75	-33.75	-27.125	-2.3767447	1.0878599	-1.159125
1277137609418	2.1111538	17.474907	-0.10896278	7.795656	0.0	-26.75	-33.25	-27.125	0.68993676	-0.0061902953	-0.12022793
1277137609448	0.42223078	8.894087	-0.8036005	-0.8663578	0.0	-27.75	-32.4375	-27.125	0.71676177	-0.09000674	-0.047437582
1277137609488	1.920469	10.269742	-2.1111538	0.8522787	0.0	-27.5	-32.1875	-27.625	0.55121446	-0.19938277	-0.18486746
1277137609518	3.718355	11.645397	0.08172209	2.4182472	0.0	-27.5	-32.4375	-26.625	0.55461514	0.006684939	-0.30906624
1277137609548	1.2258313	8.921328	1.7978859	-0.62377834	0.0	-27.5	-34.0	-25.3125	0.91237915	0.19705981	-0.13654952
1277137609578	-1.1441092	9.302697	3.1054392	0.06719971	0.0	-27.0	-36.0625	-22.75	1.2211951	0.31994197	0.12237231
1277137609618	-1.7978859	7.3141265	2.4108016	-1.8983755	0.0	-26.3125	-37.8125	-19.6875	1.30344	0.3097762	0.24103132
1277137609658	3.486809	2.982856	-1.6889231	-4.917097	0.0	-24.8125	-39.625	-17.6875	-0.41180706	-0.35268056	-0.86313593
1277137609688	3.7864566	2.6014864	-0.7627395	-5.149746	0.0	-23.5625	-40.375	-15.375	-0.7340923	-0.16452809	-0.9688144
1277137609718	1.1849703	5.597963	4.2904096	-2.6548004	0.0	-22.875	-40.875	-14.125	2.4110198	0.64337873	-0.20859958
1277137609758	-1.6889231	9.847511	3.0237172	0.6321621	0.0	-22.375	-41.125	-13.3125	1.4986414	0.29387268	0.16985504
1277137609788	-2.6832085	11.34575	2.6014864	2.1387835	0.0	-22.375	-41.125	-13.0625	1.4072646	0.21954016	0.23222786
1277137609818	-4.630918	10.991621	2.1111538	2.306075	0.0	-22.125	-41.625	-13.0625	1.3638464	0.17518695	0.398744
1277137609858	-2.7921712	11.182305	3.568531	2.2587795	0.0	-21.375	-42.125	-12.0625	1.5395749	0.30025616	0.24469204
1277137609888	0.38136974	13.443283	1.4573772	3.7207756	0.0	-20.875	-42.6875	-10.75	1.2732952	0.107944496	-0.028361188
1277137609918	4.399372	14.941522	0.14982383	5.769806	0.0	-20.1875	-42.9375	-9.75	0.66141874	0.009618756	-0.2863475
1277137609948	3.636633	14.137921	-1.6480621	4.8842325	0.0	-19.1875	-43.1875	-9.75	0.48305574	-0.11241929	-0.25176743
1277137609978	2.5606253	13.484144	-2.0294318	4.0676985	0.0	-18.1875	-43.4375	-11.3125	0.4986866	-0.14679891	-0.18766445
1277137610018	3.173541	12.367276	-2.982856	3.3051128	0.0	-17.25	-43.1875	-14.375	0.23927008	-0.2295041	-0.25118816
1277137610048	1.334794	12.571581	-0.08172209	2.8358574	0.0	-17.0	-42.4375	-17.9375	0.5984407	-0.0064641177	-0.10577921
1277137610088	-2.2201166	11.073342	0.3405087	1.4921894	0.0	-17.25	-41.125	-21.5	0.8868781	0.030141171	0.1978686
1277137610118	-1.9885708	4.944186	-0.040861044	-4.4773855	0.0	-18.0	-39.625	-25.0625	0.8940579	-0.00766737	0.3824048
1277137610158	-1.3075534	2.0294318	-1.0760075	-7.1635303	0.0	-19.9375	-37.5625	-27.875	0.83021533	-0.41927412	0.57235444
1277137610198	0.5720546	0.3405087	-0.6946377	-8.84451	0.0	-21.875	-36.0625	-29.625	-0.3957851	-0.806647	-1.0338856
1277137610238	0.38136974	1.879608	1.8387469	-7.149705	0.0	-23.8125	-34.75	-29.9375	1.8793143	0.76432914	-0.20018107
1277137610268	0.88532263	4.903325	5.8567495	-2.1171827	0.0	-25.5625	-33.75	-29.375	2.0403788	0.86586905	-0.17863102
1277137610308	0.7627395	11.304889	9.112013	4.7333307	0.0	-26.3125	-33.5	-28.625	1.5603696	0.6772942	-0.06736778
