#timestamp	accel_x	accel_y	accel_z	accel_mag	temperature	mag_x	mag_y	mag_z	azimuth	pitch	roll
1277137834879	2.0294318	1.4982382	10.337844	0.83451176	0.0	-25.6875	-1.625	-40.8125	2.2533603	1.3314612	-0.9348545
1277137834909	1.9885708	1.56634	9.80665	0.3214407	0.0	-25.4375	-1.875	-41.5625	2.186082	1.3181825	-0.9036183
1277137834939	1.9885708	0.92618364	9.084772	-0.46077824	0.0	-26.6875	-1.125	-41.0625	2.5211086	1.333864	-1.1349194
1277137834969	3.5276701	-0.10896278	9.425281	0.25775433	0.0	-28.4375	0.375	-39.8125	-3.1018977	1.2125028	-1.6016746
1277137835009	4.140586	-0.3405087	6.66035	-1.9567676	0.0	-29.6875	0.875	-38.8125	-2.8159482	1.013078	-1.6528485
1277137835049	2.4516625	0.38136974	9.915613	0.4146738	0.0	-30.9375	1.125	-37.5	2.861359	1.3256049	-1.4164776
1277137835089	2.6832085	0.88532263	10.841797	1.3972759	0.0	-31.9375	0.625	-37.25	2.6493118	1.3158559	-1.2520945
1277137835129	3.568531	0.6537767	8.240311	-0.80306435	0.0	-31.9375	0.375	-38.0625	2.7115672	1.156067	-1.3895997
1277137835161	3.2961242	0.7627395	10.079058	0.8250761	0.0	-31.6875	-0.375	-37.8125	2.768438	1.2469455	-1.3433939
1277137835199	2.3018389	1.1168685	10.147159	0.65808487	0.0	-30.6875	-1.375	-38.3125	2.547146	1.3238063	-1.119053
1277137835249	3.7864566	0.6537767	9.275456	0.23320961	0.0	-29.4375	-2.375	-39.0625	2.9266648	1.1780543	-1.3998202
1277137835292	2.070293	1.9885708	10.269742	0.8567505	0.0	-28.4375	-3.875	-39.3125	2.1783662	1.29823	-0.80552965
1277137835329	1.9885708	2.3018389	10.528529	1.1524925	0.0	-27.4375	-5.125	-40.3125	2.0820644	1.2895396	-0.7125116
1277137835369	2.070293	2.0294318	9.575105	0.19771576	0.0	-26.6875	-5.875	-40.3125	2.1977413	1.2767972	-0.7953646
1277137835409	1.9885708	1.7978859	9.302697	-0.12538052	0.0	-26.1875	-6.625	-40.5625	2.3173897	1.2902213	-0.8357154
1277137835449	1.920469	1.9477097	9.575105	0.15148258	0.0	-25.6875	-6.875	-40.8125	2.2485726	1.2925409	-0.7783561
1277137835489	1.8387469	2.1111538	9.697687	0.2870655	0.0	-25.1875	-6.625	-41.0625	2.1368604	1.2897469	-0.7165417
1277137835529	1.6889231	2.3699405	9.997335	0.6056404	0.0	-24.625	-6.875	-42.0625	1.9994516	1.2875297	-0.61916137
1277137835569	1.7297841	2.2609777	9.765789	0.3656063	0.0	-23.875	-7.125	-42.0625	2.0492191	1.2871505	-0.6530702
1277137835609	1.5390993	2.4925237	9.765789	0.3890419	0.0	-23.625	-7.875	-42.3125	1.9385059	1.2793694	-0.553178
1277137835650	1.334794	2.5333846	9.575105	0.18746567	0.0	-24.125	-8.625	-42.5625	1.898531	1.2802036	-0.48492098
1277137835699	1.1441092	2.5333846	9.152874	-0.24097633	0.0	-23.625	-9.375	-42.8125	1.8485229	1.2759461	-0.42419443
1277137835740	2.0294318	2.1792557	9.507003	0.1558218	0.0	-23.125	-9.625	-43.0625	2.2797523	1.2672467	-0.7498145
1277137835779	1.5390993	2.3018389	10.419566	0.9745674	0.0	-23.125	-9.625	-42.8125	2.154316	1.3110509	-0.58936685
1277137835809	1.1849703	2.1792557	9.765789	0.26925945	0.0	-22.125	-9.125	-43.0625	2.027674	1.322049	-0.49803206
1277137835849	1.0760075	2.152015	9.112013	-0.38233376	0.0	-22.375	-8.875	-43.0625	1.9479905	1.3126386	-0.4636476
1277137835879	1.1441092	2.1792557	9.534244	0.04017353	0.0	-22.625	-8.375	-43.3125	1.9556063	1.3181558	-0.48344702
1277137835919	1.1849703	1.9885708	9.724928	0.18998909	0.0	-22.875	-7.875	-43.8125	2.0353334	1.3371116	-0.53739226
1277137835960	1.3075534	1.920469	9.915613	0.3775177	0.0	-23.625	-7.625	-43.8125	2.108539	1.3406376	-0.59775835
1277137835999	1.1849703	1.879608	9.888372	0.32828903	0.0	-23.625	-7.125	-43.5625	2.0603046	1.3497638	-0.5624979
1277137836039	1.3756552	1.7297841	9.507003	-0.046133995	0.0	-23.875	-6.875	-43.3125	2.173254	1.3423818	-0.67185354
1277137836069	1.4982382	1.7978859	9.615966	0.0900116	0.0	-23.875	-7.125	-43.3125	2.1950717	1.3320589	-0.6947383
1277137836100	1.8387469	1.607201	9.507003	0.009010315	0.0	-23.625	-7.375	-43.5625	2.4081223	1.3193542	-0.852491
1277137836139	1.920469	1.8387469	9.888372	0.43293476	0.0	-23.875	-7.125	-43.3125	2.3005521	1.3081278	-0.8071339
1277137836169	1.4982382	2.2609777	10.147159	0.6967573	0.0	-24.125	-7.125	-43.3125	2.0012708	1.3096032	-0.58521706
1277137836199	0.88532263	2.4108016	10.310603	0.81899357	0.0	-23.875	-6.875	-43.0625	1.7601156	1.3266783	-0.35194272
1277137836240	1.1168685	1.920469	10.147159	0.580863	0.0	-23.875	-6.375	-42.3125	2.003786	1.3552573	-0.5267505
1277137836269	2.4108016	1.2666923	8.894087	-0.5049696	0.0	-24.375	-6.625	-43.0625	2.6788752	1.2736661	-1.0870172
1277137836299	2.1111538	1.6480621	8.539958	-0.85656834	0.0	-24.875	-7.375	-42.3125	2.4006732	1.2668958	-0.90796906
1277137836329	2.152015	2.7649305	9.00305	-0.14585781	0.0	-25.1875	-8.375	-41.8125	1.92284	1.1996613	-0.66138417
1277137836369	2.2609777	3.7864566	9.466142	0.63639164	0.0	-25.4375	-9.875	-42.0625	1.6743448	1.1348113	-0.5383009
1277137836399	2.4925237	3.759216	8.962189	0.22655487	0.0	-25.6875	-10.625	-41.3125	1.6999288	1.1045295	-0.58549005
1277137836449	2.6423476	3.636633	8.853226	0.12243366	0.0	-25.1875	-10.625	-41.5625	1.7147744	1.1009675	-0.6283508
1277137836489	2.1792557	3.2961242	8.158588	-0.74154377	0.0	-25.4375	-10.375	-41.8125	1.7111526	1.1197677	-0.58417857
1277137836534	1.2666923	3.486809	8.281172	-0.73250294	0.0	-25.6875	-9.875	-41.5625	1.5459114	1.1496271	-0.34845728
1277137836579	1.3075534	3.1054392	8.049625	-1.0802584	0.0	-24.625	-9.875	-42.0625	1.6221049	1.174368	-0.39852247
1277137836619	1.56634	3.336985	8.730643	-0.32967663	0.0	-23.625	-9.875	-42.3125	1.6303288	1.171277	-0.4388593
1277137836659	1.3756552	3.759216	7.8180795	-1.0233421	0.0	-22.375	-10.125	-42.8125	1.3354495	1.0975788	-0.35080588
1277137836697	0.5720546	3.718355	8.430995	-0.5743656	0.0	-20.625	-9.875	-43.3125	1.269291	1.151088	-0.15264934
1277137836761	0.38136974	3.0645783	9.765789	0.43579674	0.0	-19.375	-8.875	-44.0625	1.4279946	1.2645189	-0.12380795
1277137836803	0.313268	2.9556155	10.337844	0.9499674	0.0	-18.875	-8.125	-45.3125	1.4133923	1.2908428	-0.105596535
1277137836840	1.0760075	2.7921712	10.651112	1.2568111	0.0	-17.625	-7.875	-46.3125	1.6184896	1.2969161	-0.36782742
1277137836889	0.8036005	1.56634	9.425281	-0.21837044	0.0	-16.875	-7.125	-47.0625	1.9844128	1.386144	-0.47402784
1277137836921	-0.040861044	-0.46309182	8.962189	-0.83241177	0.0	-15.875	-6.375	-47.3125	-0.98200715	1.5189706	3.0535853
1277137836962	0.19068487	1.0760075	8.471856	-1.2646074	0.0	-15.625	-4.625	-47.5625	1.6485714	1.4425162	-0.17539422
1277137836999	0.8036005	2.9147544	9.575105	0.23447514	0.0	-17.625	-3.625	-47.0625	1.1924127	1.2649378	-0.26901776
1277137837031	1.2258313	1.9477097	12.067628	2.4784575	0.0	-20.125	-5.125	-46.8125	1.9692677	1.3823541	-0.56173605
1277137837069	2.3699405	0.7218784	12.871228	3.3008375	0.0	-21.875	-7.625	-46.5625	-3.0756285	1.3806427	-1.2751268
1277137837109	1.8387469	-0.08172209	12.4489975	2.7776737	0.0	-22.625	-11.625	-46.0625	-2.4458878	1.4240115	-1.6152115
1277137837214	0.3405087	0.38136974	11.032481	1.2376709	0.0	-22.125	-14.1875	-45.8125	2.8460405	1.5244877	-0.7288547
1277137837274	0.38136974	2.152015	9.80665	0.24058819	0.0	-20.125	-16.6875	-44.8125	2.0925303	1.3515162	-0.1753942
1277137837311	-1.607201	3.0645783	11.223166	1.9378891	0.0	-18.625	-19.9375	-43.5625	1.408046	1.2717136	0.48301136
1277137837353	0.10896278	4.372132	14.47843	5.31791	0.0	-17.375	-22.6875	-42.8125	2.0963593	1.2774421	-0.024916958
1277137837389	-0.29964766	3.568531	8.580819	-0.50855064	0.0	-15.625	-25.4375	-42.3125	1.8920588	1.1754347	0.08377295
1277137837419	0.6946377	4.7126403	8.812365	0.21079826	0.0	-15.125	-26.4375	-42.5625	1.9717681	1.0752342	-0.14634505
1277137837455	0.14982383	4.7126403	10.119919	1.3577652	0.0	-14.5625	-25.6875	-43.5625	1.9386171	1.1347867	-0.031781204
1277137837489	-0.5720546	3.718355	10.691973	1.5278854	0.0	-14.8125	-24.1875	-43.8125	1.8816125	1.2324634	0.15264934
1277137837520	-0.38136974	2.8738933	13.102775	3.6130152	0.0	-15.625	-22.4375	-45.0625	2.0666578	1.3530467	0.13193062
1277137837550	1.56634	3.173541	9.765789	0.5806217	0.0	-16.375	-19.4375	-46.5625	2.4495077	1.2231256	-0.4584841
1277137837579	0.92618364	2.9147544	7.1234417	-2.0544229	0.0	-17.875	-16.4375	-47.5625	1.620931	1.1652567	-0.307667
1277137837613	-0.42223078	1.56634	5.7477865	-3.8343182	0.0	-18.625	-13.6875	-48.5625	1.3367237	1.2957122	0.26330656
1277137837649	-2.2201166	-0.10896278	10.61025	1.0339308	0.0	-18.625	-11.375	-48.3125	0.34959534	1.3642887	1.6198367
1277137837679	0.10896278	0.53119355	11.985906	2.191516	0.0	-18.375	-10.625	-47.8125	2.2153645	1.5255849	-0.20232163
1277137837719	0.50395286	1.1168685	11.182305	1.442586	0.0	-18.125	-10.875	-47.5625	2.357644	1.4616569	-0.4238676
1277137837769	0.6537767	2.4108016	9.697687	0.20756626	0.0	-17.875	-10.375	-47.8125	1.7278135	1.3187015	-0.2648173
1277137837807	1.3756552	0.46309182	9.888372	0.18768787	0.0	-18.125	-9.625	-48.0625	-2.8911438	1.4250474	-1.2460785
1277137837841	1.6889231	1.1168685	11.917805	2.2819366	0.0	-18.625	-9.375	-48.5625	2.9443858	1.4025053	-0.98652506
1277137837870	1.334794	1.334794	11.182305	1.5338659	0.0	-18.625	-8.875	-48.0625	2.588768	1.4035629	-0.7853982
1277137837909	1.0760075	0.88532263	9.656827	-0.049811363	0.0	-19.375	-9.125	-47.3125	2.7769458	1.4274924	-0.8823158
1277137837949	0.7627395	-0.95342433	11.032481	1.293189	0.0	-20.375	-8.625	-47.0625	-1.6074001	1.4605733	-2.4668517
1277137837990	1.4982382	-0.7627395	9.234595	-0.42026424	0.0	-22.125	-7.125	-45.8125	-2.025554	1.390712	-2.04169
1277137838029	1.920469	-0.95342433	8.962189	-0.5915518	0.0	-24.125	-5.125	-45.5625	-2.0621915	1.3359702	-2.031603
1277137838069	2.1792557	-1.7570249	10.882658	1.4302769	0.0	-25.4375	-2.875	-45.3125	-1.89623	1.3190256	-2.2493367
1277137838109	1.7978859	-0.88532263	10.56939	0.9510546	0.0	-26.1875	-1.375	-44.8125	-2.405712	1.3834125	-2.028365
1277137838149	0.95342433	-1.4165162	7.8180795	-1.8042812	0.0	-26.4375	-0.625	-45.0625	-1.7614582	1.3557693	-2.5491652
1277137838189	2.2201166	-0.88532263	9.956474	0.43269062	0.0	-26.4375	-0.125	-44.8125	-2.5039122	1.3351967	-1.9502445
1277137838229	3.173541	-0.9942854	13.484144	4.0815506	0.0	-27.1875	-1.125	-44.3125	-2.5682628	1.3289876	-1.8744142
1277137838269	2.3426998	2.6832085	8.158588	-0.90437984	0.0	-27.1875	-1.375	-43.5625	1.566002	1.1591456	-0.71775085
1277137838309	2.4925237	5.597963	9.112013	1.174181	0.0	-28.1875	-1.375	-42.3125	1.0926393	0.97876865	-0.41890138
1277137838342	1.879608	-0.53119355	9.343558	-0.2611189	0.0	-28.6875	-1.875	-41.3125	-2.652972	1.364719	-1.8462224
1277137838379	1.7297841	-0.7627395	9.888372	0.2608137	0.0	-28.1875	-1.625	-41.0625	-2.493357	1.3818936	-1.9860946
1277137838419	1.56634	-0.08172209	10.528529	0.838068	0.0	-28.9375	-2.625	-41.0625	-2.9592776	1.4229107	-1.622923
1277137838449	1.1441092	0.61291564	10.419566	0.69344616	0.0	-27.1875	-3.875	-42.0625	2.7088451	1.4468668	-1.0789871
1277137838489	0.42223078	1.7978859	10.269742	0.6278248	0.0	-26.1875	-4.875	-42.3125	1.6962545	1.3928689	-0.23066838
1277137838529	-0.38136974	2.4516625	11.917805	2.3666887	0.0	-24.125	-6.125	-43.0625	1.3149413	1.3655398	0.15431878
1277137838569	0.38136974	2.4516625	9.956474	0.45431805	0.0	-21.625	-7.625	-44.0625	1.5649326	1.3265715	-0.15431878
1277137838609	1.1441092	2.9147544	10.310603	0.9689388	0.0	-19.625	-9.875	-44.0625	1.7629886	1.275955	-0.37404445
1277137838649	1.1849703	8.812365	12.108489	5.215914	0.0	-17.625	-14.1875	-43.8125	0.88658315	0.937397	-0.13366501
1277137838689	2.7240696	12.980191	12.217452	8.225878	0.0	-17.375	-20.4375	-41.3125	0.7263627	0.74438953	-0.20686156
1277137838729	8.349273	13.865514	12.026767	10.357822	0.0	-19.375	-27.1875	-36.25	0.27149788	0.63905036	-0.542007
1277137838769	8.499097	13.756551	11.073342	9.791723	0.0	-25.1875	-31.6875	-29.5	1.241968	0.60044944	-0.5534208
1277137838809	2.6014864	9.888372	9.575105	4.2015715	0.0	-33.6875	-29.1875	-22.5	1.904851	0.75259423	-0.2572559
1277137838849	-3.336985	4.9850473	9.112013	1.102747	0.0	-41.5	-19.1875	-16.75	1.2466335	0.988577	0.58989173
1277137838889	-1.4165162	1.3075534	0.92618364	-7.6679516	0.0	-44.5	-4.125	-15.0	0.8979362	0.44788432	0.82537687
1277137838929	-1.879608	-5.366417	-6.5922484	-1.1009569	0.0	-41.5	12.375	-16.75	-1.356907	-0.859068	2.8046918
1277137838969	-4.630918	-3.7864566	2.6832085	-3.250564	0.0	-34.6875	24.1875	-20.75	-1.0440836	0.4216537	2.2562053
1277137839019	4.099725	-3.1054392	9.956474	1.3997259	0.0	-28.9375	29.1875	-25.5	2.9089186	1.0939898	-2.2190642
1277137839059	6.0201936	-1.1441092	11.073342	2.849203	0.0	-27.1875	28.9375	-29.0	2.112583	1.0653493	-1.7586019
1277137839099	7.0553403	0.14982383	11.645397	3.8100882	0.0	-28.9375	24.6875	-31.0	1.8852825	1.025988	-1.549564
1277137839139	5.325556	1.2666923	9.00305	0.7299986	0.0	-32.1875	19.9375	-32.0	1.7973948	1.0244932	-1.3372837
1277137839179	5.9793324	1.6889231	7.8589406	0.21172428	0.0	-35.75	15.9375	-31.25	1.7372289	0.90181315	-1.2955078
1277137839219	6.2108784	2.6832085	7.246025	0.10695171	0.0	-38.25	11.125	-30.25	1.6414173	0.8196654	-1.1629968
1277137839259	6.891896	2.2609777	8.240311	1.1711893	0.0	-40.0	6.125	-30.25	1.9415481	0.84901714	-1.2537963
1277137839299	7.6273947	1.6480621	7.3549876	0.91664696	0.0	-41.0	0.125	-29.5	2.1703355	0.75582415	-1.3579962
1277137839342	9.112013	0.95342433	7.8589406	2.2640066	0.0	-40.5	-5.625	-30.5	-2.7618139	0.709004	-1.4665419
1277137839379	6.4424243	1.4982382	7.273266	0.024419785	0.0	-39.25	-8.375	-31.5	3.0554667	0.83280945	-1.3422997
1277137839419	4.862464	1.7978859	8.921328	0.5115881	0.0	-38.25	-8.875	-32.0	2.8679404	1.0443882	-1.2166382
1277137839459	3.636633	1.3075534	9.765789	0.69598866	0.0	-37.5	-7.625	-33.25	2.9061208	1.1939818	-1.2256386
1277137839499	3.759216	0.6946377	9.425281	0.3643942	0.0	-37.0	-4.875	-34.25	3.0527718	1.1854751	-1.3880748
1277137839539	4.2904096	0.7218784	9.193735	0.36455917	0.0	-37.0	-2.875	-34.5	2.9662976	1.1287962	-1.4041036
1277137839579	3.6774938	1.1441092	9.00305	-0.014415741	0.0	-36.75	-1.625	-35.0	2.6823869	1.1665704	-1.2691773
1277137839609	3.173541	2.3699405	9.234595	0.24151993	0.0	-36.5	-0.875	-35.25	2.1379168	1.1656191	-0.9293585
1277137839649	3.718355	2.7240696	9.234595	0.5144186	0.0	-35.1875	-0.3125	-34.125	2.0364153	1.1078318	-0.93852407
1277137839689	4.099725	1.8387469	8.240311	-0.42094517	0.0	-35.6875	-0.5625	-33.875	2.2993531	1.0715925	-1.1491864
1277137839729	3.759216	1.9477097	7.246025	-1.414382	0.0	-35.6875	0.1875	-33.25	2.1356688	1.0420036	-1.0927613
1277137839779	4.5219555	1.334794	7.8180795	-0.67691135	0.0	-35.9375	0.4375	-33.25	2.4280949	1.0281229	-1.2837667
1277137839809	4.3312707	1.4573772	8.812365	0.120162964	0.0	-35.1875	1.6875	-33.75	2.3853498	1.0923983	-1.2462182
1277137839839	3.990762	1.0351465	9.00305	0.0955019	0.0	-34.375	2.9375	-35.0	2.4889038	1.1413618	-1.3170038
1277137839869	3.636633	0.6946377	9.043911	-0.03424263	0.0	-33.125	3.6875	-36.5	2.5802267	1.1822314	-1.3820586
1277137839909	2.6423476	0.8036005	9.193735	-0.20703888	0.0	-30.875	5.1875	-37.5	2.4263787	1.2789682	-1.2755606
1277137839949	2.7240696	0.50395286	9.466142	0.056531906	0.0	-29.375	6.1875	-38.5625	2.5157287	1.2860937	-1.3878646
1277137839989	3.0645783	1.0351465	10.378705	1.0644436	0.0	-27.375	6.4375	-39.8125	2.2057683	1.2686722	-1.2450511
1277137840029	3.214402	1.3756552	10.800936	1.5461035	0.0	-26.125	6.9375	-40.5625	2.0068352	1.2577293	-1.166416
1277137840069	2.4108016	1.3756552	10.419566	0.97628784	0.0	-25.625	6.6875	-41.8125	1.9576795	1.3104515	-1.0522588
1277137840109	2.2609777	1.2258313	10.119919	0.63497066	0.0	-25.125	6.6875	-42.3125	1.987173	1.3219224	-1.0739856
1277137840149	2.3426998	0.95342433	9.575105	0.096879005	0.0	-25.375	6.4375	-42.0625	2.1261573	1.3125434	-1.18429
1277137840189	2.1111538	0.5720546	9.043911	-0.50199795	0.0	-25.625	6.4375	-42.3125	2.3381314	1.3335011	-1.3061827
1277137840229	2.6423476	0.46309182	8.499097	-0.8942375	0.0	-25.875	6.6875	-41.5625	2.3396256	1.265057	-1.3973006
1277137840269	2.7240696	0.6537767	9.765789	0.35300636	0.0	-25.875	7.1875	-41.8125	2.27395	1.2914366	-1.3352513
1277137840309	2.6423476	0.88532263	11.686258	2.2072763	0.0	-25.125	7.1875	-42.3125	2.2160196	1.3367068	-1.2475002
1277137840339	2.4516625	1.0760075	11.604536	2.102745	0.0	-24.5625	6.6875	-42.5625	2.1172361	1.3440446	-1.1572207
1277137840379	2.5606253	1.1849703	10.732834	1.2908573	0.0	-23.8125	6.1875	-43.0625	2.0153491	1.3137265	-1.137377
1277137840419	2.7921712	1.0351465	9.80665	0.4421606	0.0	-23.5625	5.9375	-43.0625	2.0212138	1.2759864	-1.215773
1277137840459	2.4108016	1.1441092	9.575105	0.13334846	0.0	-24.0625	5.9375	-42.8125	1.9903882	1.2990005	-1.1276938
1277137840509	1.879608	0.46309182	9.343558	-0.2646656	0.0	-24.3125	6.4375	-42.8125	2.390416	1.3665044	-1.3292307
1277137840549	1.7570249	0.040861044	9.043911	-0.5935545	0.0	-25.125	6.9375	-43.0625	2.708978	1.378859	-1.5475447
1277137840589	2.070293	-0.14982383	9.343558	-0.23530579	0.0	-25.125	6.9375	-42.8125	2.8265517	1.3521928	-1.6430389
1277137840629	2.070293	-0.10896278	9.724928	0.13680077	0.0	-24.5625	7.4375	-42.5625	2.7645876	1.3607603	-1.6233793
1277137840669	2.152015	-0.040861044	9.724928	0.15362358	0.0	-24.5625	7.6875	-42.3125	2.6923892	1.3529794	-1.5897814
1277137840709	2.3018389	0.23154591	9.724928	0.18966389	0.0	-24.3125	7.6875	-42.0625	2.4838142	1.3372483	-1.4705418
1277137840749	2.3699405	0.3405087	10.079058	0.55288506	0.0	-24.3125	7.6875	-42.0625	2.4838142	1.3372483	-1.4705418
1277137840789	2.7921712	0.84446156	10.528529	1.1185169	0.0	-24.8125	6.9375	-42.0625	2.1837096	1.3005121	-1.2771034
1277137840819	2.4925237	0.9942854	10.61025	1.1376953	0.0	-24.8125	6.6875	-42.0625	2.129354	1.3230735	-1.1912324
1277137840849	1.9885708	0.88532263	10.228881	0.65127563	0.0	-24.8125	6.4375	-42.3125	2.1654723	1.3611206	-1.1519367
1277137840879	2.0294318	0.6946377	9.697687	0.12543201	0.0	-24.5625	5.9375	-42.3125	2.2811997	1.3531121	-1.2410139
1277137840919	2.1111538	0.6537767	9.615966	0.060020447	0.0	-24.3125	6.4375	-42.8125	2.2686558	1.3448868	-1.2704849
1277137840959	2.3699405	0.6946377	9.765789	0.2665701	0.0	-24.5625	5.9375	-42.5625	2.2790494	1.3231025	-1.2856786
1277137840999	2.4925237	0.8036005	10.079058	0.6070833	0.0	-24.5625	6.1875	-42.3125	2.2180185	1.3165855	-1.2589139
1277137841049	2.2201166	0.88532263	10.147159	0.6182022	0.0	-24.8125	6.1875	-42.8125	2.1783876	1.3394666	-1.1913481
1277137841089	2.4108016	0.5720546	9.765789	0.26855946	0.0	-24.8125	6.1875	-42.3125	2.3502595	1.3223228	-1.3378171
1277137841129	2.3018389	0.3405087	9.466142	-0.058714867	0.0	-24.8125	5.9375	-42.5625	2.5040815	1.3297637	-1.4239324
1277137841169	2.4925237	0.23154591	9.302697	-0.17303848	0.0	-24.8125	5.6875	-42.0625	2.5717301	1.3079334	-1.478166
1277137841209	2.6014864	0.50395286	9.956474	0.49641132	0.0	-24.8125	5.9375	-41.8125	2.4077237	1.3106827	-1.3794491
1277137841249	2.152015	0.84446156	10.651112	1.092453	0.0	-24.8125	5.6875	-42.5625	2.2467103	1.3570664	-1.1968544
1277137841289	2.2609777	0.8036005	10.528529	0.9918556	0.0	-24.8125	6.4375	-42.3125	2.2365901	1.3467152	-1.2292997
1277137841319	2.070293	0.8036005	10.147159	0.5806837	0.0	-24.8125	6.4375	-42.5625	2.2137027	1.3553361	-1.2005402
1277137841360	2.070293	0.6946377	9.656827	0.09400368	0.0	-25.375	6.4375	-42.0625	2.281041	1.3484044	-1.2470734
1277137841399	2.4108016	0.88532263	9.384419	-0.07715416	0.0	-24.8125	6.4375	-41.3125	2.143915	1.3036681	-1.2188536
1277137841439	2.7649305	0.7218784	9.466142	0.081412315	0.0	-25.125	5.9375	-41.8125	2.2495446	1.2776185	-1.3154135
1277137841479	2.6423476	0.19068487	9.234595	-0.19956398	0.0	-25.125	5.6875	-42.0625	2.5876803	1.2914195	-1.4987563
1277137841519	2.6423476	-0.08172209	9.275456	-0.1618185	0.0	-25.125	4.9375	-42.5625	2.8235621	1.2931466	-1.6017143
1277137841559	3.0237172	0.23154591	9.656827	0.3151474	0.0	-25.875	4.6875	-42.3125	2.62093	1.2665148	-1.4943689
1277137841629	2.9147544	1.1441092	10.528529	1.1776438	0.0	-25.875	4.1875	-41.8125	2.1990976	1.28172	-1.1967518
1277137841669	2.3018389	1.56634	10.732834	1.281434	0.0	-26.875	3.4375	-41.0625	2.04963	1.3169798	-0.97329605
1277137841709	2.7649305	1.7570249	10.18802	0.895113	0.0	-27.625	3.6875	-40.3125	1.9892538	1.2596867	-1.0047048
1277137841749	2.7921712	1.3756552	9.888372	0.5600538	0.0	-28.375	3.9375	-40.0625	2.1533978	1.265836	-1.1130195
1277137841789	2.6832085	1.1849703	9.656827	0.28582573	0.0	-29.125	3.9375	-40.0625	2.2468317	1.2759068	-1.1549294
1277137841819	3.1054392	0.9942854	9.534244	0.26976585	0.0	-28.875	4.4375	-40.0625	2.3056343	1.2412645	-1.2609342
1277137841861	3.405087	0.7627395	9.00305	-0.15101433	0.0	-29.125	4.6875	-39.5625	2.3700101	1.201036	-1.350434
1277137841899	3.568531	0.42223078	8.689782	-0.40319347	0.0	-29.375	4.9375	-39.8125	2.500996	1.1786871	-1.4530233
1277137841939	3.0645783	0.50395286	9.425281	0.11713505	0.0	-28.875	5.6875	-39.3125	2.5033438	1.2524896	-1.4078106
1277137841979	3.2961242	0.88532263	10.119919	0.8732834	0.0	-29.375	6.4375	-38.8125	2.3210225	1.2455243	-1.3083944
1277137842019	3.7864566	1.0351465	9.888372	0.83236694	0.0	-29.625	6.9375	-39.0625	2.1950078	1.1929035	-1.3039356
1277137842059	3.8273177	0.38136974	9.112013	0.083880424	0.0	-29.625	6.9375	-38.8125	2.4308295	1.1713759	-1.47148
1277137842099	3.486809	-0.10896278	8.471856	-0.64466095	0.0	-30.125	7.6875	-39.3125	2.6661053	1.1801794	-1.6020361
1277137842139	3.5957718	-0.14982383	8.921328	-0.18676853	0.0	-29.875	7.6875	-39.5625	2.6871974	1.1873593	-1.6124389
1277137842179	3.214402	0.040861044	9.425281	0.15176201	0.0	-29.375	7.6875	-39.5625	2.646743	1.2421006	-1.5580852
1277137842219	3.214402	0.23154591	9.656827	0.3737383	0.0	-29.125	7.6875	-39.3125	2.5519042	1.2486926	-1.4988866
1277137842259	3.3778462	0.42223078	9.697687	0.4711542	0.0	-28.625	7.1875	-38.8125	2.457661	1.2332084	-1.4464413
1277137842299	3.214402	0.46309182	9.997335	0.7049408	0.0	-28.875	7.4375	-39.0625	2.458466	1.2567044	-1.427713
1277137842339	3.173541	0.38136974	9.956474	0.65031815	0.0	-28.625	7.4375	-39.3125	2.4913342	1.2601551	-1.4511982
1277137842379	3.214402	0.27240697	9.724928	0.43936443	0.0	-28.625	7.9375	-39.3125	2.5080712	1.2505012	-1.4862525
1277137842419	3.214402	0.19068487	9.507003	0.23087215	0.0	-29.125	8.1875	-39.8125	2.5363488	1.2442205	-1.5115438
1277137842449	3.0645783	0.10896278	9.534244	0.20860386	0.0	-28.875	7.9375	-39.3125	2.6080265	1.2596139	-1.5352558
1277137842489	3.1054392	-0.040861044	9.425281	0.117126465	0.0	-28.875	8.4375	-39.3125	2.6548557	1.2524922	-1.5839535
1277137842529	3.0237172	-0.14982383	9.384419	0.054011345	0.0	-28.625	8.4375	-39.0625	2.7195666	1.2587352	-1.6203054
1277137842569	2.7921712	-0.14982383	9.575105	0.1683836	0.0	-28.625	8.4375	-38.5625	2.7577162	1.2866702	-1.6244035
1277137842599	2.9147544	0.10896278	9.656827	0.28106403	0.0	-28.875	8.6875	-39.0625	2.5943196	1.2774647	-1.5334306
1277137842629	2.9556155	0.23154591	9.425281	0.073895454	0.0	-28.875	8.4375	-39.3125	2.5245693	1.26605	-1.492615
1277137842667	2.7921712	0.3405087	9.507003	0.10774708	0.0	-29.125	7.9375	-39.8125	2.5074313	1.2831308	-1.4494443
1277137842699	3.0645783	0.5720546	9.724928	0.40575027	0.0	-29.375	7.1875	-39.5625	2.420309	1.260577	-1.3862535
1277137842739	3.2961242	0.46309182	10.228881	0.9501562	0.0	-29.875	6.1875	-38.8125	2.54993	1.2562011	-1.4312141
1277137842779	3.445948	1.4165162	10.079058	0.93897533	0.0	-30.625	4.4375	-38.0625	2.2133925	1.2167239	-1.1807859
1277137842820	3.5957718	2.070293	9.724928	0.76642513	0.0	-31.875	3.6875	-37.5	2.0111086	1.1675255	-1.0483929
1277137842862	3.990762	1.8387469	9.234595	0.42002678	0.0	-32.875	2.4375	-36.5	2.1461506	1.1266803	-1.1390381
1277137842899	4.7943625	1.6889231	8.894087	0.4375267	0.0	-33.875	0.4375	-35.75	2.27313	1.0515815	-1.2320982
1277137842939	4.7535014	1.9477097	8.730643	0.32318115	0.0	-34.875	-1.8125	-34.25	2.333674	1.0389545	-1.1819199
1277137842979	3.5957718	2.3426998	8.894087	0.0687027	0.0	-35.1875	-5.3125	-32.75	2.362096	1.1212281	-0.9933567
1277137843019	3.405087	2.8738933	8.730643	-0.004711151	0.0	-35.1875	-8.5625	-32.25	2.292327	1.0988952	-0.86979586
1277137843059	4.5628166	2.6832085	9.193735	0.8020096	0.0	-34.875	-12.625	-31.5	2.7372742	1.048399	-1.0392027
1277137843099	5.2165933	2.6832085	9.193735	1.099184	0.0	-34.125	-15.625	-31.0	3.0273008	1.0028561	-1.0957266
1277137843129	4.671779	2.6832085	8.281172	0.07277012	0.0	-33.875	-17.625	-30.75	3.0375986	0.99401903	-1.0494552
1277137843169	3.8273177	2.3699405	7.5865335	-0.9850588	0.0	-33.625	-18.875	-30.75	3.046997	1.0352619	-1.0163664
1277137843209	4.0180025	2.5333846	6.8237944	-1.4924116	0.0	-33.375	-19.625	-30.75	3.057272	0.962698	-1.0082457
1277137843249	5.938472	2.8330324	7.9270425	0.49526787	0.0	-33.625	-20.625	-29.75	-2.7873204	0.8780148	-1.1256651
1277137843289	7.273266	3.8681788	8.390134	1.9516468	0.0	-34.125	-22.375	-28.5	-2.749682	0.7945524	-1.0820061
1277137843329	6.1291566	3.1054392	6.0201936	-0.6713867	0.0	-34.875	-24.125	-26.25	-2.5143604	0.7194964	-1.1018296
1277137843362	4.630918	5.175732	3.9499009	-1.8169494	0.0	-35.6875	-25.125	-24.0	1.5869507	0.5171146	-0.72989964
1277137843399	4.6036777	5.2165933	11.304889	3.4676561	0.0	-36.4375	-25.875	-22.25	2.759674	1.0191004	-0.7230657
1277137843439	4.2086873	5.09401	9.00305	1.361022	0.0	-36.6875	-26.125	-21.25	2.664091	0.9376514	-0.6905156
1277137843479	3.9499009	4.5628166	6.0201936	-1.2823467	0.0	-36.1875	-26.125	-21.25	2.5607288	0.7841714	-0.71352214
1277137843519	4.0588636	4.4810944	5.6660647	-1.5205851	0.0	-35.4375	-26.375	-21.25	2.5969727	0.75296664	-0.7359966
1277137843559	4.671779	4.671779	8.580819	1.0230083	0.0	-34.875	-26.875	-22.25	2.878735	0.9146423	-0.7853982
1277137843599	4.2904096	4.862464	8.076866	0.5512905	0.0	-34.875	-27.625	-22.5	2.7675576	0.89430684	-0.7229794
1277137843639	4.1814466	5.134871	6.973618	-0.18985558	0.0	-34.625	-28.125	-22.25	2.6341476	0.8112521	-0.683414
1277137843679	3.9090397	5.175732	7.7363577	0.28889465	0.0	-34.875	-28.375	-22.0	2.6347787	0.8730841	-0.646861
1277137843709	4.8216033	5.2165933	7.8180795	0.7566385	0.0	-34.625	-28.625	-22.0	2.822559	0.8332457	-0.7460697
1277137843739	4.862464	5.053149	7.43671	0.41501904	0.0	-34.125	-28.875	-21.75	2.885281	0.8147347	-0.7661697
1277137843779	4.4810944	4.9850473	7.205164	0.034350395	0.0	-33.875	-28.875	-22.0	2.8137884	0.8214843	-0.73221093
1277137843819	4.7126403	5.243834	7.43671	0.4408579	0.0	-33.875	-28.875	-22.25	2.8024712	0.8120646	-0.7320971
1277137843862	4.7126403	5.243834	7.668256	0.61011124	0.0	-33.625	-28.625	-22.75	2.8055384	0.8273581	-0.7320971
1277137843899	4.372132	4.9850473	7.3549876	0.09597969	0.0	-33.125	-28.875	-23.25	2.8053484	0.8371394	-0.7199894
1277137843939	4.099725	5.053149	7.43671	0.07498455	0.0	-33.375	-30.125	-23.25	2.7759418	0.8519697	-0.6816058
1277137843979	4.1814466	4.9850473	7.668256	0.25005627	0.0	-33.125	-30.125	-23.5	2.8290415	0.86717105	-0.69795454
1277137844019	4.0588636	4.9850473	7.504812	0.07501316	0.0	-33.375	-30.375	-23.0	2.8012996	0.8624957	-0.6833443
1277137844059	4.140586	5.053149	7.5865335	0.20505619	0.0	-33.375	-29.875	-22.75	2.78894	0.8598831	-0.68646294
1277137844099	4.3312707	4.9850473	7.43671	0.13896465	0.0	-33.125	-29.125	-22.75	2.8176293	0.84464824	-0.7153376
1277137844129	4.2086873	4.862464	7.5456724	0.10767174	0.0	-32.875	-29.375	-22.75	2.8463757	0.864989	-0.7134505
1277137844169	4.2495484	4.8216033	7.504812	0.074074745	0.0	-32.625	-29.625	-22.75	2.882869	0.8626066	-0.7224185
1277137844209	4.3312707	4.7126403	7.504812	0.05697441	0.0	-32.625	-29.875	-22.25	2.944912	0.8646334	-0.7432545
1277137844249	4.2086873	4.7126403	7.504812	0.0037641525	0.0	-32.875	-30.375	-22.25	2.9278564	0.8710168	-0.7289696
1277137844279	4.2086873	4.7535014	7.4639506	-0.007701874	0.0	-33.125	-30.125	-22.25	2.8986092	0.86594725	-0.72468257
1277137844309	4.372132	4.7943625	7.6273947	0.20726967	0.0	-33.375	-29.875	-22.0	2.915429	0.86590075	-0.7393683
1277137844349	4.8216033	4.8216033	8.008764	0.7117157	0.0	-33.625	-29.625	-22.25	2.998487	0.8654817	-0.7853982
1277137844379	4.630918	4.7126403	8.281172	0.7873192	0.0	-33.625	-28.875	-22.25	2.9621377	0.8973668	-0.77665204
1277137844419	4.630918	4.6036777	7.7772183	0.34836674	0.0	-33.625	-28.375	-22.25	2.9578164	0.872362	-0.78834796
1277137844449	4.5219555	4.2904096	7.014479	-0.42269516	0.0	-34.125	-27.875	-23.0	2.9577653	0.8442862	-0.81166726
1277137844489	4.671779	3.9499009	7.273266	-0.30256462	0.0	-34.125	-26.875	-23.25	3.0590787	0.8714729	-0.8689316
1277137844529	4.7126403	3.8273177	7.9270425	0.17810535	0.0	-34.375	-26.625	-23.5	3.092027	0.9172203	-0.8886974
1277137844569	4.862464	3.9499009	7.8180795	0.2117157	0.0	-34.375	-26.625	-23.75	3.0887854	0.8952649	-0.8885852
1277137844599	4.8216033	4.0588636	8.008764	0.38464642	0.0	-33.625	-26.375	-23.5	3.0641282	0.9040589	-0.8710775
1277137844629	4.7943625	4.1814466	8.076866	0.47469997	0.0	-33.625	-26.875	-23.75	3.0451145	0.90363973	-0.8535776
1277137844669	4.630918	4.0180025	7.8861814	0.18242359	0.0	-33.625	-27.375	-23.75	3.0724826	0.90996253	-0.85614604
1277137844709	4.399372	4.0588636	7.4639506	-0.23902702	0.0	-33.625	-27.375	-23.75	3.0724826	0.90996253	-0.85614604
1277137844749	4.5219555	4.140586	7.8589406	0.16107178	0.0	-34.125	-27.375	-24.25	2.9962013	0.9082671	-0.8293949
1277137844789	4.5628166	4.1814466	7.9679036	0.28251648	0.0	-33.625	-27.375	-24.25	3.0110106	0.9103988	-0.82898426
1277137844819	4.6036777	4.2904096	7.8861814	0.28261757	0.0	-32.625	-27.125	-24.25	3.0089612	0.8972919	-0.8206057
1277137844849	4.440233	4.2495484	7.8589406	0.170187	0.0	-32.625	-27.125	-24.25	3.0089612	0.8972919	-0.8206057
1277137844890	4.6036777	4.2904096	7.7772183	0.19767857	0.0	-32.625	-27.625	-23.5	3.0315907	0.89049834	-0.8206057
1277137844929	4.5219555	4.099725	7.6273947	-0.037670135	0.0	-33.125	-27.625	-23.75	3.0470672	0.8959084	-0.83433217
1277137844969	4.7535014	3.9090397	7.7363577	0.07907677	0.0	-33.625	-27.125	-23.75	3.1202173	0.898797	-0.8825754
1277137845009	4.7943625	3.9090397	7.8180795	0.16274643	0.0	-34.125	-27.125	-23.5	3.1139803	0.9014185	-0.88677096
1277137845049	4.7943625	3.9090397	7.7772183	0.1307354	0.0	-33.625	-26.625	-24.0	3.1086924	0.8988671	-0.88677096
1277137845089	4.8216033	3.9090397	8.117727	0.41225147	0.0	-33.625	-26.375	-23.5	3.106619	0.9179921	-0.8895442
1277137845119	4.7943625	3.9090397	8.158588	0.4319563	0.0	-33.625	-26.375	-23.5	3.106619	0.9179921	-0.8895442
1277137845159	4.7943625	3.7864566	8.19945	0.41852188	0.0	-33.375	-26.375	-23.5	-3.1409538	0.9304496	-0.90232277
1277137845199	4.7943625	3.8273177	8.117727	0.3684063	0.0	-33.625	-26.625	-23.25	3.1331708	0.92364836	-0.8970956
1277137845239	4.7943625	3.9499009	8.117727	0.41514683	0.0	-34.125	-26.375	-23.5	3.074417	0.9176217	-0.8816728
1277137845279	4.7126403	4.0180025	8.076866	0.3712225	0.0	-34.375	-26.625	-23.5	3.0406945	0.91665566	-0.8647941
1277137845309	4.7126403	4.140586	8.049625	0.398736	0.0	-34.125	-26.875	-23.75	3.023118	0.90879315	-0.84992385
1277137845349	4.7126403	4.099725	7.7772183	0.16841125	0.0	-34.375	-26.375	-23.75	3.0012274	0.89413255	-0.85483813
1277137845379	4.903325	3.8681788	7.5865335	0.019890785	0.0	-34.125	-26.375	-23.5	3.1182566	0.8820527	-0.9028672
1277137845419	5.053149	3.636633	7.6273947	0.03898716	0.0	-34.375	-25.625	-23.0	-3.1030824	0.8862372	-0.9469864
1277137845459	5.175732	3.405087	7.3141265	-0.22128296	0.0	-35.1875	-25.375	-23.0	-3.0398374	0.86802083	-0.9888912
1277137845499	5.284695	3.2961242	7.3958488	-0.13757515	0.0	-35.4375	-25.375	-22.5	-2.9947948	0.8708818	-1.0131242
1277137845539	5.2165933	3.568531	7.8589406	0.2784977	0.0	-35.9375	-25.375	-22.25	-3.109492	0.8934823	-0.97083974
1277137845579	4.7535014	3.9090397	8.430995	0.63164616	0.0	-36.4375	-25.625	-22.5	2.994439	0.94023794	-0.8825754
1277137845619	4.7943625	4.2904096	8.19945	0.6156578	0.0	-36.1875	-25.125	-22.25	2.885541	0.9054793	-0.84081364
1277137845659	4.9850473	3.990762	7.6273947	0.14091396	0.0	-35.9375	-25.125	-22.0	2.9961808	0.87377864	-0.89572227
1277137845699	5.175732	3.990762	7.5865335	0.2068348	0.0	-35.6875	-24.875	-22.5	3.0273523	0.8596769	-0.9139571
1277137845739	5.134871	3.990762	7.4639506	0.09302902	0.0	-35.6875	-25.125	-22.25	3.0291288	0.8540678	-0.9101205
1277137845779	5.2165933	3.990762	7.3549876	0.05412388	0.0	-35.9375	-25.375	-22.25	3.0482657	0.8418601	-0.9177559
1277137845809	5.325556	3.718355	7.273266	-0.055336952	0.0	-36.9375	-25.375	-22.5	3.1231341	0.8418483	-0.96127284
1277137845849	5.284695	3.568531	7.273266	-0.1338625	0.0	-37.4375	-25.625	-22.0	-3.127011	0.8509858	-0.9768697
1277137845889	5.284695	3.3778462	7.164303	-0.2848282	0.0	-37.4375	-25.625	-22.0	-3.127011	0.8509858	-0.9768697
1277137845919	5.407278	3.2961242	7.0553403	-0.32609558	0.0	-37.4375	-25.375	-21.75	-3.0278416	0.83932245	-1.0233685
1277137845959	5.5571017	3.255263	7.246025	-0.11216736	0.0	-36.9375	-25.375	-21.5	-2.9745407	0.84419715	-1.0408951
1277137845999	5.6660647	3.405087	7.4639506	0.16377926	0.0	-36.6875	-25.125	-21.5	-3.0034704	0.84596115	-1.0296701
1277137846039	5.5571017	3.5957718	7.5865335	0.26144028	0.0	-36.9375	-25.125	-22.0	-3.0880806	0.8534039	-0.9964915
1277137846079	5.5571017	3.7864566	7.7772183	0.47458363	0.0	-36.9375	-25.625	-22.25	-3.1221893	0.85786504	-0.97268176
1277137846109	5.434519	3.990762	7.8861814	0.56889915	0.0	-36.9375	-25.125	-22.5	3.0583277	0.86342645	-0.9373959
1277137846149	5.284695	3.9090397	7.8861814	0.4598217	0.0	-36.9375	-25.125	-23.0	3.051532	0.87594527	-0.9339259
1277137846189	5.366417	3.718355	7.8180795	0.3789749	0.0	-36.6875	-25.125	-22.5	3.1292677	0.87502587	-0.9648558
1277137846229	5.325556	3.5276701	7.43671	-0.0030460358	0.0	-36.4375	-24.875	-21.75	-3.1096828	0.86111414	-0.9857505
1277137846269	5.134871	3.445948	7.3141265	-0.22865963	0.0	-36.4375	-25.375	-21.5	-3.103362	0.8689307	-0.97973937
1277137846299	5.012288	3.568531	7.43671	-0.15459919	0.0	-36.4375	-25.625	-20.5	3.1294458	0.8795934	-0.9520909
1277137846329	5.012288	3.636633	7.4639506	-0.10826492	0.0	-36.1875	-25.625	-20.0	3.1176937	0.8782263	-0.94313204
1277137846359	5.09401	3.7864566	7.668256	0.14766216	0.0	-36.1875	-25.875	-20.5	3.1028435	0.8793822	-0.93158704
1277137846389	5.053149	3.990762	7.8589406	0.35324383	0.0	-36.1875	-26.125	-20.5	3.0522447	0.88438576	-0.9023322
1277137846419	4.944186	4.1814466	8.19945	0.6413374	0.0	-35.9375	-26.125	-21.0	2.9929152	0.90235317	-0.86878645
1277137846449	4.944186	4.5219555	8.240311	0.8138857	0.0	-35.9375	-26.375	-21.0	2.9186792	0.8881161	-0.8299729
1277137846479	4.9850473	4.7943625	7.8180795	0.63169193	0.0	-35.6875	-26.125	-20.5	2.8437293	0.84651697	-0.8048943
1277137846519	5.053149	4.8216033	7.273266	0.27712727	0.0	-35.4375	-26.125	-20.5	2.8305254	0.8056541	-0.8088421
1277137846559	5.134871	4.7943625	7.246025	0.2858076	0.0	-35.4375	-26.125	-20.75	2.8499775	0.80087346	-0.81967825
1277137846599	5.2165933	4.6036777	7.014479	0.07310772	0.0	-35.4375	-26.375	-21.5	2.9174876	0.78947675	-0.84773064
1277137846629	5.284695	4.2086873	6.932757	-0.1265583	0.0	-35.4375	-26.875	-21.5	3.079094	0.7983235	-0.89825946
1277137846689	5.434519	3.5276701	6.932757	-0.31762695	0.0	-35.4375	-26.875	-21.5	3.079094	0.7983235	-0.89825946
1277137846729	5.284695	3.173541	7.43671	-0.14725018	0.0	-35.6875	-27.125	-20.75	-2.9138632	0.8786744	-1.029998
1277137846769	5.053149	3.1463003	7.6954966	-0.07761192	0.0	-35.6875	-26.875	-20.25	-2.9700658	0.91241276	-1.0138949
1277137846799	5.053149	3.255263	7.9679036	0.17425919	0.0	-35.4375	-26.875	-20.75	-2.9941738	0.9244911	-0.99850583
1277137846839	5.053149	3.636633	8.076866	0.39115238	0.0	-35.4375	-27.375	-20.5	-3.0754468	0.91411114	-0.9469863
1277137846869	5.134871	4.2495484	7.8861814	0.5189209	0.0	-35.1875	-27.625	-21.0	3.0857158	0.86910665	-0.8794594
1277137846909	5.09401	4.5219555	7.6954966	0.470397	0.0	-34.625	-27.875	-20.75	3.0322478	0.84625614	-0.84481823
1277137846949	5.053149	4.8216033	7.273266	0.27712727	0.0	-35.1875	-27.625	-20.5	2.9058137	0.8056541	-0.8088421
1277137846989	5.012288	4.7943625	7.205164	0.19451618	0.0	-35.1875	-27.375	-20.5	2.8909664	0.8044256	-0.8076167
1277137847029	5.053149	4.4810944	7.082581	-0.02005291	0.0	-34.875	-27.625	-20.5	3.0052054	0.8091519	-0.84532636
1277137847069	5.243834	4.0180025	7.082581	-0.12134743	0.0	-35.4375	-27.625	-21.0	-3.1213973	0.82018346	-0.91698635
1277137847099	5.284695	3.759216	7.3958488	0.029929161	0.0	-35.4375	-27.625	-20.75	-3.0437803	0.85089684	-0.9524999
1277137847129	5.175732	3.6774938	7.43671	-0.028265	0.0	-34.625	-27.375	-21.0	-3.0284247	0.8641218	-0.95304066
1277137847169	5.053149	3.7864566	7.6954966	0.14785862	0.0	-34.375	-26.875	-21.0	-3.097814	0.88366115	-0.9277266
1277137847209	4.944186	3.6774938	7.43671	-0.14882469	0.0	-34.625	-26.625	-20.5	-3.1076012	0.878871	-0.931274
1277137847249	5.012288	3.759216	7.205164	-0.2583971	0.0	-34.375	-26.625	-20.75	-3.106434	0.85505265	-0.9272952
1277137847279	5.175732	4.099725	7.246025	-0.0035467148	0.0	-35.4375	-26.375	-20.5	3.071139	0.8318168	-0.9008878
1277137847309	5.284695	4.2495484	7.273266	0.13754654	0.0	-35.6875	-26.375	-20.25	3.0447118	0.82038444	-0.893546
1277137847339	5.284695	4.3312707	7.4639506	0.31256294	0.0	-35.1875	-26.625	-20.75	3.0493417	0.8295119	-0.8842253
1277137847379	5.134871	4.399372	7.5865335	0.3558731	0.0	-35.4375	-26.875	-21.0	3.0043478	0.84281737	-0.86238855
1277137847419	5.053149	4.2495484	7.6954966	0.33305645	0.0	-35.1875	-26.875	-21.5	3.0357306	0.8616939	-0.8715679
1277137847449	4.9850473	4.2904096	7.7363577	0.34763718	0.0	-35.1875	-26.875	-21.75	3.010431	0.866212	-0.8601485
1277137847489	5.09401	4.372132	7.8861814	0.5498133	0.0	-35.4375	-26.625	-21.5	2.996932	0.8655847	-0.8615098
1277137847529	5.134871	4.4810944	7.8861814	0.6163511	0.0	-35.4375	-26.375	-21.75	2.9639888	0.858118	-0.85328233
1277137847569	5.175732	4.372132	7.6954966	0.44636917	0.0	-35.6875	-26.875	-21.75	3.011526	0.84890765	-0.8693657
1277137847599	5.012288	3.9499009	7.3141265	-0.099889755	0.0	-35.9375	-27.125	-21.75	3.0937788	0.8533825	-0.90338856
1277137847629	4.944186	3.759216	7.0553403	-0.40694237	0.0	-36.1875	-27.125	-22.0	3.1256196	0.8489567	-0.92071635
1277137847669	4.7535014	3.5957718	7.164303	-0.4871769	0.0	-35.9375	-27.125	-22.0	3.1392705	0.8768773	-0.9231819
1277137847709	4.671779	3.568531	7.3958488	-0.35897732	0.0	-35.4375	-26.875	-22.75	3.1341355	0.89918864	-0.918491
1277137847749	4.630918	3.568531	7.8180795	-0.044365883	0.0	-34.875	-26.625	-22.75	3.1324153	0.9287054	-0.9142484
1277137847789	4.372132	3.636633	8.349273	0.29537868	0.0	-34.375	-26.625	-23.25	3.0754285	0.97285205	-0.87697804
1277137847821	4.5219555	3.486809	8.499097	0.432518	0.0	-34.375	-26.625	-24.0	-3.1374433	0.97921056	-0.9139373
1277137847859	4.3312707	2.9556155	8.430995	0.121956825	0.0	-34.625	-26.125	-24.0	-3.0562649	1.0143964	-0.9719872
1277137847899	3.9090397	2.5606253	10.337844	1.5383224	0.0	-34.375	-25.125	-25.75	-3.0642354	1.1462529	-0.9908776
1277137847929	2.7240696	3.5957718	8.730643	0.020569801	0.0	-33.625	-24.125	-27.75	2.641408	1.0938792	-0.648332
1277137847969	8.19945	2.7240696	5.366417	0.36438465	0.0	-32.125	-22.875	-28.75	-1.1977428	0.5557935	-1.2500428
1277137848009	4.440233	1.2258313	7.8861814	-0.67373276	0.0	-30.875	-21.875	-30.25	-2.4476414	1.0421486	-1.3014323
1277137848049	5.407278	1.920469	8.430995	0.3918066	0.0	-31.125	-21.625	-30.25	-2.4955037	0.973205	-1.2295288
1277137848089	3.5957718	2.1111538	10.419566	1.4162683	0.0	-31.375	-22.125	-28.75	-3.013693	1.1901337	-1.0399003
1277137848119	4.5628166	2.152015	10.378705	1.7331934	0.0	-32.375	-22.875	-28.5	-2.8467674	1.1183493	-1.1300915
1277137848159	5.5571017	2.2609777	8.894087	0.92173195	0.0	-32.875	-23.625	-27.75	-2.6349666	0.9773601	-1.1843878
1277137848199	4.903325	2.6423476	9.112013	0.87292767	0.0	-33.125	-23.625	-27.5	-2.8938897	1.0221255	-1.0765237
1277137848239	5.012288	2.5333846	8.076866	0.030871391	0.0	-33.125	-23.625	-28.0	-2.7955632	0.96320677	-1.1028104
1277137848293	6.238119	2.1792557	8.049625	0.60775185	0.0	-33.625	-22.875	-28.0	-2.4466355	0.88344944	-1.2347052
1277137848378	5.09401	1.879608	8.240311	0.061712265	0.0	-33.875	-22.875	-28.5	-2.6332107	0.9881748	-1.2173103
1277137848663	4.4810944	2.1792557	8.430995	-0.013232231	0.0	-34.125	-22.875	-28.25	-2.8747602	1.0370041	-1.1181507
1277137848709	3.9499009	2.982856	8.19945	-0.2290659	0.0	-34.125	-22.125	-29.25	2.9943423	1.0276916	-0.9239931
1277137848770	4.4810944	1.1441092	5.7886477	-2.397356	0.0	-33.375	-22.375	-30.0	-2.2511673	0.89669544	-1.3208177
1277137848809	5.938472	2.5333846	7.4639506	0.062191963	0.0	-31.875	-23.125	-30.25	-2.3830752	0.85766137	-1.1675667
1277137848840	4.399372	3.759216	7.8180795	-0.07995701	0.0	-29.625	-25.125	-31.25	3.1302023	0.9336147	-0.8637018
1277137848869	3.3778462	4.372132	8.430995	0.2733822	0.0	-27.875	-28.125	-29.75	2.8559825	0.9906921	-0.6577999
1277137848909	2.4516625	4.903325	9.997335	1.5951023	0.0	-26.125	-31.125	-27.75	2.7243297	1.0692173	-0.4636476
1277137848939	2.4516625	6.2789803	8.921328	1.3748674	0.0	-24.8125	-34.125	-26.0	2.576811	0.9237431	-0.3722514
1277137848969	2.7649305	6.3198414	8.349273	1.0236588	0.0	-23.5625	-36.375	-23.5	2.7704263	0.88028014	-0.4124104
1277137849009	2.4516625	6.973618	8.430995	1.4060068	0.0	-22.5625	-38.4375	-22.25	2.7035027	0.8509661	-0.3380661
1277137849054	1.4982382	7.43671	7.5865335	0.92204285	0.0	-21.0625	-39.9375	-21.5	2.450422	0.78542477	-0.198804
1277137849089	2.1111538	7.504812	5.597963	-0.20892334	0.0	-20.0625	-40.9375	-19.75	2.4585695	0.6227353	-0.27422
1277137849119	2.3018389	7.0553403	3.405087	-1.6414251	0.0	-19.3125	-42.4375	-17.75	2.1212351	0.43016753	-0.31536642
1277137849159	2.2201166	6.5922484	2.4108016	-2.4446788	0.0	-18.0625	-42.9375	-15.5	1.7355787	0.33362138	-0.3248465
1277137849199	1.3756552	7.014479	2.4925237	-2.2364445	0.0	-17.8125	-44.1875	-12.1875	1.9804803	0.33551386	-0.19365866
1277137849240	-0.0	9.466142	4.1814466	0.541893	0.0	-17.8125	-44.9375	-8.4375	2.1009138	0.41595247	0.0
1277137849285	-1.4165162	11.686258	5.012288	2.9878092	0.0	-16.5625	-45.6875	-4.4375	2.1024833	0.40253785	0.12062367
1277137849319	-1.1168685	10.61025	3.6774938	1.478241	0.0	-15.0625	-46.9375	0.3125	2.2166545	0.33193994	0.10487694
1277137849366	0.53119355	9.697687	1.3756552	0.0025148392	0.0	-12.0	-47.9375	4.0625	2.428736	0.14070565	-0.0547206
1277137849409	1.9477097	9.615966	1.7570249	0.16067123	0.0	-7.75	-48.6875	6.5625	-3.0057607	0.1772045	-0.19984587
1277137849452	0.08172209	11.032481	3.445948	1.7517614	0.0	-5.25	-49.1875	7.5625	2.9220476	0.30273646	-0.0074072727
1277137849489	-0.9125633	10.923519	2.7240696	1.4883308	0.0	-3.9375	-49.4375	6.5625	2.725053	0.24357663	0.08334761
1277137849519	1.0351465	9.765789	2.4108016	0.3054285	0.0	-4.6875	-49.4375	4.5625	-3.1078207	0.24072638	-0.105602905
1277137849549	3.718355	9.234595	1.920469	0.33199406	0.0	-7.75	-49.4375	2.3125	-2.3662567	0.19057211	-0.38279298
1277137849579	4.1814466	9.302697	0.27240697	0.39623547	0.0	-11.25	-48.4375	-0.9375	-1.6088654	0.026702186	-0.42242768
1277137849619	2.8738933	9.112013	2.2609777	0.011703491	0.0	-16.0625	-46.4375	-3.1875	2.978518	0.23236617	-0.3055211
1277137849649	1.2666923	9.193735	8.580819	2.8329592	0.0	-21.8125	-43.4375	-5.9375	2.6134398	0.7462406	-0.13691576
1277137849689	5.8567495	8.962189	7.8180795	3.450224	0.0	-26.875	-39.4375	-10.1875	3.0952652	0.6307341	-0.5788286
1277137849731	11.34575	7.7363577	4.1814466	4.5482016	0.0	-31.625	-33.875	-15.5	-1.4092367	0.29557663	-0.97234017
1277137849769	7.6954966	4.7943625	2.2609777	-0.4622078	0.0	-35.1875	-26.375	-21.25	-0.3607595	0.24438499	-1.0136302
1277137849809	2.1792557	4.140586	5.284695	-2.7482076	0.0	-37.1875	-17.625	-26.25	1.8560734	0.84610724	-0.4844779
1277137849849	-1.9885708	3.8681788	11.372991	2.3696432	0.0	-37.1875	-9.3125	-30.25	1.1010633	1.2055261	0.47485164
1277137849897	-0.08172209	3.568531	12.789507	3.4716244	0.0	-37.4375	-3.3125	-32.0	1.4059721	1.2986286	0.022896763
1277137849929	4.2495484	2.6832085	7.668256	-0.6382036	0.0	-37.1875	-0.3125	-33.75	1.9557936	0.99063575	-1.0076007
1277137849969	3.5957718	2.1792557	6.4015636	-2.1477504	0.0	-36.6875	0.1875	-34.0	1.9426163	0.98964894	-1.0259324
1277137850010	5.47538	2.1111538	7.273266	-0.46121502	0.0	-37.1875	0.4375	-33.75	1.9621545	0.89190495	-1.2027893
1277137850049	6.469665	1.7978859	7.7363577	0.43738174	0.0	-37.6875	-0.0625	-33.0	2.095373	0.8559688	-1.2997409
1277137850089	6.782933	1.4982382	7.5456724	0.44957066	0.0	-37.6875	-0.0625	-31.75	2.1759582	0.8267242	-1.3534034
1277137850119	7.3141265	1.7570249	7.6954966	0.95458794	0.0	-38.1875	0.1875	-31.0	2.060574	0.7967851	-1.3350401
1277137850159	6.973618	1.7297841	7.246025	0.39768124	0.0	-38.9375	-0.5625	-30.0	2.152768	0.7896304	-1.3276567
1277137850199	6.238119	1.9885708	7.6273947	0.24549866	0.0	-38.9375	-0.3125	-30.25	2.2071567	0.86144185	-1.2622029
1277137850229	5.829509	2.6423476	9.084772	1.3063269	0.0	-39.4375	-0.5625	-30.0	2.2322729	0.9570432	-1.1452255
1277137850269	5.597963	2.7240696	8.771504	0.94960594	0.0	-38.6875	-0.3125	-30.25	2.1535194	0.9535568	-1.1179115
1277137850299	4.440233	2.3426998	6.932757	-1.2470341	0.0	-38.1875	0.1875	-31.5	2.026251	0.94404614	-1.0853075
1277137850340	4.440233	2.3426998	7.0553403	-1.1474504	0.0	-37.6875	0.4375	-32.0	2.0098011	0.9523491	-1.0853075
1277137850380	4.5628166	2.5606253	8.499097	0.17386818	0.0	-36.9375	0.1875	-33.25	2.068956	1.0189704	-1.0593996
1277137850419	4.0588636	2.6423476	8.962189	0.38045883	0.0	-36.4375	-0.0625	-35.0	2.048129	1.0753525	-0.9937137
1277137850449	3.8681788	2.7921712	8.730643	0.14237785	0.0	-35.9375	-0.0625	-35.75	1.9540625	1.070702	-0.9455685
1277137850479	3.8681788	2.4108016	8.62168	-0.054309845	0.0	-34.875	0.4375	-36.5	2.012685	1.0844846	-1.013464
1277137850519	3.6774938	2.7921712	8.19945	-0.3964882	0.0	-33.875	1.1875	-36.5	1.7988106	1.0579263	-0.9213956
1277137850549	5.597963	2.7921712	8.580819	0.8123827	0.0	-33.125	1.4375	-36.5	1.6904455	0.940852	-1.1081225
1277137850579	4.5219555	2.6423476	8.812365	0.44458675	0.0	-32.625	1.6875	-37.5	1.8076066	1.034563	-1.0419731
1277137850619	2.8738933	2.7649305	8.962189	0.0027809143	0.0	-31.875	1.1875	-38.3125	1.7710083	1.1521248	-0.80471945
1277137850659	4.2904096	2.4108016	7.7363577	-0.63763714	0.0	-31.375	0.4375	-39.8125	1.6675768	1.0042325	-1.0588591
1277137850699	4.1814466	1.8387469	8.62168	-0.04965973	0.0	-31.125	-0.3125	-39.8125	2.068317	1.083584	-1.1565077
1277137850729	3.568531	2.7649305	9.80665	0.98916626	0.0	-30.125	-0.5625	-39.5625	1.8622185	1.1393814	-0.9116055
1277137850761	4.630918	2.4108016	9.697687	1.2070913	0.0	-30.125	-0.8125	-39.5625	1.9400463	1.0769327	-1.0908141
1277137850799	4.6036777	1.8387469	8.894087	0.37566948	0.0	-30.625	-0.0625	-38.8125	2.0565486	1.0623119	-1.1908002
1277137850849	5.09401	1.56634	7.6954966	-0.44593334	0.0	-31.625	0.6875	-38.5625	1.838502	0.96509933	-1.2724853
1277137850891	5.597963	1.5390993	7.504812	-0.31833076	0.0	-33.875	-0.0625	-36.25	1.9608705	0.9123644	-1.3024867
1277137850921	6.8237944	3.990762	5.7477865	-0.032837868	0.0	-36.4375	-1.0625	-33.5	1.1282649	0.62868327	-1.0416057
1277137850959	7.504812	3.6774938	4.4810944	-0.323699	0.0	-39.4375	-3.0625	-29.5	1.0372044	0.4921731	-1.1151661
1277137850999	6.3607025	5.09401	4.140586	-0.6659756	0.0	-42.4375	-6.8125	-24.25	1.3533823	0.47011042	-0.8955333
1277137851029	9.193735	6.701211	2.0294318	1.7497158	0.0	-44.6875	-10.0625	-18.5	1.033796	0.17652698	-0.94094384
1277137851059	7.9270425	7.4639506	0.95342433	1.1230154	0.0	-46.0	-13.125	-12.1875	1.2043548	0.08734372	-0.8154776
1277137851089	6.6331096	8.430995	0.42223078	0.92918205	0.0	-46.5	-15.625	-6.4375	1.3934371	0.039339263	-0.6666111
1277137851119	8.008764	7.3141265	-0.14982383	1.040432	0.0	-46.75	-16.625	-0.6875	1.5023799	-0.013812802	-0.8307005
1277137851149	7.9270425	6.0882955	-1.607201	0.31700706	0.0	-46.5	-17.625	3.3125	1.2803142	-0.15943152	-0.9158485
1277137851179	7.5456724	6.2789803	-3.2961242	0.5484066	0.0	-46.25	-18.375	7.0625	1.0749308	-0.32394683	-0.8767686
1277137851219	8.158588	5.597963	-5.6660647	1.5952816	0.0	-45.75	-18.875	10.8125	0.6130607	-0.5200678	-0.9694307
1277137851259	6.851035	5.47538	-4.903325	0.241189	0.0	-43.9375	-19.625	14.375	0.87131333	-0.5097946	-0.89654046
1277137851289	6.742072	5.434519	-5.134871	0.26094246	0.0	-42.4375	-20.375	17.875	0.9319811	-0.5352309	-0.8923708
1277137851320	5.434519	5.053149	-4.9850473	-0.8669071	0.0	-40.9375	-20.875	21.625	1.0821062	-0.591525	-0.82174575
1277137851360	4.0588636	5.8976107	-5.8976107	-0.530983	0.0	-38.1875	-21.875	24.375	1.2463589	-0.6890643	-0.60277724
1277137851409	2.9147544	5.47538	-6.851035	-0.5647745	0.0	-36.1875	-22.375	27.375	1.1782006	-0.8350104	-0.48918232
1277137851449	4.6036777	5.6252036	-7.205164	0.42815113	0.0	-33.625	-22.375	30.375	1.1287092	-0.78099537	-0.6858614
1277137851489	2.4108016	5.243834	-8.19945	0.22035027	0.0	-30.375	-23.375	33.125	1.118017	-0.95746845	-0.4309244
1277137851529	1.4165162	6.0474343	-7.04172	-0.41709232	0.0	-27.875	-23.125	36.125	1.6730242	-0.8479899	-0.23008616
1277137851559	0.92618364	5.829509	-7.014479	-0.6391039	0.0	-24.3125	-23.625	38.1875	1.7565665	-0.8712626	-0.15756156
1277137851599	-0.6537767	5.5162406	-8.62168	0.4495535	0.0	-21.0625	-24.125	39.9375	1.7201712	-0.9984468	0.11796823
1277137851629	-0.08172209	4.862464	-8.471856	-0.038202286	0.0	-17.8125	-23.875	41.6875	1.5878353	-1.0496869	0.016805142
1277137851660	-0.3405087	5.8567495	-8.812365	0.7799082	0.0	-14.75	-24.125	42.9375	1.840564	-0.98344386	0.058074158
1277137851699	-2.6423476	4.2904096	-6.0882955	-1.9036789	0.0	-12.75	-23.875	43.9375	2.213516	-0.8794378	0.55200917
1277137851739	-2.6423476	6.0474343	-9.997335	2.1725063	0.0	-9.5	-24.375	45.4375	2.0487912	-0.9873352	0.41193777
1277137851779	-3.255263	3.568531	-7.6546354	-0.75542927	0.0	-5.25	-23.625	46.4375	2.1522245	-1.0078793	0.7395222
1277137851819	-5.407278	2.3426998	-5.8567495	-1.4983158	0.0	0.0625	-21.875	47.9375	2.5173502	-0.7823169	1.1619592
1277137851859	-3.214402	-0.50395286	-2.9147544	-5.438339	0.0	5.625	-18.125	49.1875	2.6468027	-0.7305102	1.72631
1277137851889	-4.2495484	0.27240697	-6.66035	-1.9013906	0.0	10.125	-13.625	49.6875	2.5050206	-1.0019469	1.5067813
1277137851929	-5.706926	1.334794	-6.6331096	-0.95516396	0.0	14.125	-10.3125	49.4375	2.822661	-0.8471223	1.3410363
1277137851959	-6.469665	0.9942854	-3.2961242	-2.4779668	0.0	17.1875	-8.5625	48.4375	2.9760852	-0.46649286	1.4183052
1277137851999	-5.407278	1.1849703	-6.428804	-1.323	0.0	19.6875	-9.3125	47.6875	2.8275583	-0.85991555	1.3550631
1277137852039	-6.2789803	2.4108016	-5.7886477	-0.9327555	0.0	20.6875	-10.0625	47.1875	3.046811	-0.7106456	1.204204
1277137852069	-5.243834	0.95342433	-6.5922484	-1.3293533	0.0	20.1875	-12.0625	47.6875	2.5707803	-0.8908964	1.3909428
1277137852099	-6.4015636	2.152015	-7.8180795	0.5245428	0.0	19.6875	-14.625	47.6875	2.6302564	-0.85831946	1.2464948
1277137852129	-6.891896	1.4165162	-7.164303	0.23486328	0.0	19.4375	-16.125	46.9375	2.5312696	-0.79443586	1.3680856
1277137852170	-5.012288	1.7978859	-2.9556155	-3.716405	0.0	20.1875	-17.875	46.1875	2.8008919	-0.5067099	1.226396
1277137852209	-5.325556	2.3018389	-2.8738933	-3.332141	0.0	21.4375	-19.875	43.4375	2.791718	-0.45992196	1.1628219
1277137852249	-5.5571017	3.214402	-3.2961242	-2.590128	0.0	22.9375	-23.125	40.6875	2.7691112	-0.47433493	1.0463871
1277137852279	-2.4516625	3.486809	-8.008764	-0.734231	0.0	24.4375	-27.625	37.125	-0.26835886	-1.0817037	0.61282015
1277137852319	-4.630918	5.6252036	-3.9499009	-1.5187054	0.0	26.0	-31.875	32.625	3.1211064	-0.49676478	0.6887546
1277137852359	-4.0588636	6.742072	-2.2609777	-1.6187363	0.0	27.25	-34.875	29.625	-2.8247387	-0.27977145	0.5419036
1277137852389	-0.88532263	1.2666923	-3.1054392	-6.3379245	0.0	28.75	-36.125	26.875	-0.09770179	-1.1090325	0.610004
1277137852429	-2.5606253	2.8330324	-1.7978859	-5.5858364	0.0	30.0	-36.625	23.375	1.9827495	-0.44001958	0.734936
1277137852469	-4.372132	8.158588	-0.53119355	-0.53517437	0.0	30.75	-38.6875	19.125	-2.645344	-0.057324704	0.49194816
1277137852509	-9.493382	7.7772183	0.23154591	2.4678383	0.0	30.0	-41.4375	14.125	2.4277062	0.018865116	0.8844421
1277137852539	-10.147159	12.108489	-1.6889231	6.081484	0.0	26.5	-44.6875	8.0625	1.8676021	-0.10650214	0.69749796
1277137852579	-11.073342	12.14935	-0.040861044	6.631941	0.0	21.6875	-48.4375	4.3125	1.8178856	-0.0024856806	0.73909694
1277137852609	-11.536434	12.871228	0.50395286	7.4853077	0.0	15.4375	-50.6875	1.8125	1.7136289	0.029147899	0.73076504
1277137852639	-12.912089	13.906375	-0.8036005	9.186903	0.0	10.125	-52.6875	-0.6875	1.479181	-0.04232175	0.7483404
1277137852669	-9.656827	14.137921	-1.879608	7.417404	0.0	6.875	-53.6875	-0.6875	1.3337358	-0.10934469	0.59925544
1277137852709	-5.7886477	9.534244	4.1814466	2.1053076	0.0	4.5625	-54.1875	-0.1875	2.1803954	0.35867018	0.545655
1277137852749	-6.3607025	11.182305	5.284695	4.1012793	0.0	4.3125	-54.4375	0.5625	2.2656503	0.38977155	0.51717633
1277137852779	-4.862464	8.499097	3.405087	0.5602598	0.0	3.5625	-54.1875	1.5625	2.204636	0.33466977	0.5196637
1277137852810	-5.325556	12.14935	-3.336985	3.8719358	0.0	2.5625	-54.1875	2.8125	1.1101607	-0.24644393	0.41311595
1277137852849	-2.4516625	8.390134	-1.4165162	-0.95162296	0.0	2.8125	-53.9375	3.8125	1.2131598	-0.16065767	0.28429273
1277137852899	-2.9556155	12.258313	-5.434519	3.9241867	0.0	3.3125	-53.4375	5.3125	0.5270503	-0.4069272	0.2365953
1277137852939	-5.9793324	5.5571017	0.9942854	-1.5833664	0.0	5.375	-52.4375	8.8125	1.9423332	0.12120755	0.82198155
1277137852979	-2.9556155	5.175732	0.23154591	-3.8419642	0.0	8.625	-51.1875	11.0625	2.1971073	0.038829222	0.51886266
1277137853009	-3.6774938	5.706926	-0.50395286	-2.9987922	0.0	11.625	-50.6875	12.3125	2.026111	-0.07409294	0.5724223
1277137853039	-4.862464	5.407278	-0.61291564	-2.508851	0.0	13.375	-49.9375	13.375	1.9542329	-0.08408542	0.73239744
1277137853079	-5.053149	6.0474343	-1.3075534	-1.818191	0.0	14.375	-49.4375	13.125	1.8186252	-0.16442013	0.696066
1277137853130	-5.175732	6.1700177	-1.4982382	-1.6150665	0.0	14.125	-49.9375	13.375	1.7788862	-0.18393509	0.69798636
1277137853169	-5.243834	6.5922484	-1.0351465	-1.3197746	0.0	12.125	-49.6875	13.125	1.9015836	-0.12227473	0.67196316
1277137853199	-4.9850473	7.8180795	0.88532263	-0.49231339	0.0	10.875	-50.4375	11.8125	2.3098648	0.09519316	0.5676305
1277137853239	-4.0588636	7.8180795	1.4165162	-0.8845844	0.0	9.0	-49.6875	9.0625	2.4101036	0.15944016	0.47886086
1277137853269	-3.568531	10.528529	1.3756552	1.3949909	0.0	8.0	-50.6875	5.8125	2.5137827	0.12311917	0.3267873
1277137853314	-5.325556	11.645397	-0.9125633	3.031169	0.0	7.75	-51.4375	3.3125	1.5533577	-0.071143985	0.42891622
1277137853363	-5.202973	9.724928	2.982856	1.6188736	0.0	7.25	-52.1875	2.3125	2.2639065	0.26413	0.4912649
1277137853411	-4.862464	8.430995	2.8738933	0.3414774	0.0	6.5	-51.9375	1.8125	2.2193544	0.28712326	0.52313846
1277137853449	-5.012288	10.378705	-3.3642259	2.199955	0.0	6.75	-51.4375	1.5625	0.92404807	-0.2840003	0.44990644
1277137853479	-3.636633	9.765789	-5.243834	1.8592634	0.0	7.0	-51.4375	2.0625	0.49852616	-0.46620607	0.35647607
1277137853509	-3.0237172	8.19945	-3.759216	-0.29321003	0.0	7.75	-51.4375	3.0625	0.54617137	-0.40622887	0.35329825
1277137853558	-3.568531	8.281172	-3.5957718	-0.09882927	0.0	7.75	-50.9375	5.3125	0.76705027	-0.37943906	0.40687507
1277137853599	-3.2961242	6.3198414	-0.46309182	-2.6638713	0.0	8.0	-50.6875	7.8125	1.8475132	-0.064879075	0.48073995
1277137853640	-5.6252036	7.3958488	0.50395286	-0.5009823	0.0	8.75	-50.1875	9.0625	2.0272553	0.05418198	0.6502439
1277137853670	-4.140586	3.8681788	4.6036777	-2.5058894	0.0	9.75	-49.9375	7.8125	2.3920105	0.68229395	0.8193987
1277137853699	-4.0588636	8.689782	1.2258313	-0.13766098	0.0	11.0	-50.4375	4.8125	2.3463843	0.12712176	0.43697032
1277137853739	-5.47538	11.495573	-2.8330324	3.2376614	0.0	12.5	-50.4375	0.8125	0.7921544	-0.21892998	0.4445112
1277137853784	-7.9679036	10.460427	-0.29964766	3.3462124	0.0	13.0	-50.9375	-1.6875	1.4357021	-0.022783905	0.650959
1277137853819	-6.891896	8.240311	4.099725	1.6915531	0.0	14.0	-50.1875	-1.9375	2.1845658	0.36457634	0.69652396
1277137853859	-5.8976107	8.117727	3.336985	0.76760006	0.0	14.75	-49.9375	-1.4375	2.2520375	0.32106417	0.6282973
1277137853899	-5.8976107	11.182305	-1.9477097	2.984727	0.0	14.75	-50.1875	0.0625	0.9290871	-0.15286201	0.48533097
1277137853929	-5.243834	10.378705	-3.8681788	2.4480686	0.0	15.8125	-49.9375	2.5625	0.54429686	-0.3211396	0.4678383
1277137853959	-5.366417	9.80665	-2.5333846	1.6557608	0.0	15.8125	-49.9375	4.3125	0.9545554	-0.22285685	0.50070804
1277137853999	-5.5571017	10.760075	-3.5276701	2.8070345	0.0	17.0625	-49.1875	6.5625	0.74027884	-0.28345048	0.47672534
1277137854039	-4.944186	8.349273	-2.4516625	0.20164585	0.0	19.0625	-47.6875	9.5625	1.1901511	-0.24748155	0.53464204
1277137854079	-6.8237944	7.3549876	-2.1383946	0.45165157	0.0	21.5625	-45.1875	12.0625	1.693123	-0.20999503	0.74795175
1277137854109	-6.510526	4.8216033	0.9942854	-1.6443338	0.0	24.8125	-42.6875	14.625	2.3688896	0.122117415	0.9333476
1277137854139	-5.434519	3.214402	2.2201166	-3.1137218	0.0	27.375	-39.6875	16.375	2.5479295	0.33811647	1.036666
1277137854179	-6.3198414	4.2086873	-1.3075534	-2.1019025	0.0	29.375	-36.875	17.375	2.153902	-0.17053285	0.98329127
1277137854219	-7.164303	0.313268	1.4982382	-2.4806628	0.0	30.375	-34.875	17.375	2.1828237	0.20596318	1.527098
1277137854259	-7.6954966	2.6832085	-3.173541	-1.0607004	0.0	30.875	-33.875	17.125	1.6317755	-0.37133348	1.2353046
1277137854299	-8.430995	1.920469	-1.7978859	-0.974761	0.0	31.375	-33.125	18.125	1.9475081	-0.20500039	1.346831
1277137854339	-7.7363577	1.4165162	-0.38136974	-1.9324393	0.0	31.375	-32.625	18.875	2.1441631	-0.048451714	1.3897036
1277137854369	-6.932757	2.3426998	-1.0351465	-2.4159203	0.0	31.875	-32.375	19.375	2.153991	-0.14052212	1.2449257
1277137854409	-7.43671	2.2609777	-0.53119355	-2.0157042	0.0	31.625	-31.625	20.125	2.2610161	-0.06823382	1.275647
1277137854439	-7.7772183	2.0294318	-0.7218784	-1.7366543	0.0	30.875	-31.875	20.375	2.2035515	-0.08957186	1.3155426
1277137854469	-7.6954966	2.7921712	-2.4925237	-1.2492228	0.0	30.125	-32.625	20.125	1.9345115	-0.29555437	1.222736
1277137854509	-6.66035	3.1054392	-2.6423476	-1.9972959	0.0	28.875	-33.875	19.375	1.8111346	-0.34517008	1.134505
1277137854549	-7.164303	2.9556155	-2.6014864	-1.63165	0.0	28.125	-35.875	17.375	1.7404809	-0.32385617	1.1795201
1277137854579	-7.164303	4.440233	-2.1383946	-1.1109247	0.0	27.375	-37.6875	14.625	1.7708653	-0.24846183	1.0159655
1277137854609	-7.3141265	5.5571017	-3.0645783	-0.123187065	0.0	26.875	-39.1875	11.3125	1.3379495	-0.32201165	0.9210676
1277137854639	-8.430995	4.862464	-2.4925237	0.2401352	0.0	26.125	-40.6875	8.3125	1.4539548	-0.25070983	1.0476578
1277137854679	-8.499097	5.243834	-2.2201166	0.42376328	0.0	25.375	-41.1875	5.8125	1.4018732	-0.21875189	1.0179799
1277137854719	-6.6331096	7.7772183	-3.6774938	1.0564632	0.0	25.125	-42.4375	4.0625	0.58821654	-0.34535465	0.7061693
1277137854759	-6.701211	6.0474343	0.38136974	-0.77209854	0.0	24.5625	-42.6875	4.0625	1.9480106	0.042224906	0.83663535
1277137854789	-6.742072	6.973618	0.23154591	-0.104047775	0.0	24.3125	-42.9375	4.3125	1.9860138	0.023866575	0.7685179
1277137854829	-9.152874	8.730643	-2.1383946	3.0219107	0.0	24.0625	-43.4375	6.3125	1.4582222	-0.16747189	0.80900383
1277137854859	-8.580819	9.00305	-2.1383946	2.8130999	0.0	24.0625	-43.4375	8.5625	1.5945014	-0.1702698	0.7613904
1277137854899	-7.3958488	9.112013	-3.173541	2.3505993	0.0	23.5625	-43.6875	11.3125	1.3772398	-0.2641005	0.6818099
1277137854939	-6.6331096	9.193735	-0.7627395	1.5557737	0.0	23.8125	-42.9375	14.625	2.6672728	-0.06717875	0.62499803
1277137854969	-7.7772183	8.19945	1.4573772	1.5880871	0.0	24.8125	-41.6875	16.625	2.6989014	0.12825045	0.7589763
1277137855009	-8.008764	6.4015636	1.1441092	0.5098076	0.0	25.375	-39.9375	18.125	2.5525358	0.11112996	0.8964703
1277137855049	-8.539958	7.8589406	-4.0180025	2.4749699	0.0	26.125	-38.6875	19.125	1.8605181	-0.3332921	0.82690257
1277137855079	-4.2086873	1.3756552	-0.95342433	-5.277357	0.0	26.375	-37.125	20.375	1.994301	-0.21208824	1.2548822
1277137855109	-2.3699405	1.4573772	-0.53119355	-6.974207	0.0	25.875	-36.625	21.125	2.206473	-0.1886561	1.019462
1277137855139	-5.8567495	2.8330324	-1.6889231	-3.0850396	0.0	25.625	-36.125	21.625	2.053049	-0.25398967	1.1202565
1277137855179	-10.7192135	4.903325	-5.053149	3.0182648	0.0	25.625	-36.125	20.625	1.7427571	-0.40499082	1.1417781
1277137855219	-10.269742	5.7886477	1.607201	2.0912132	0.0	25.875	-36.875	18.625	2.4602163	0.13549739	1.0575258
1277137855259	-8.580819	5.829509	0.42223078	0.5756378	0.0	26.375	-37.375	17.375	2.4414508	0.04067959	0.9740539
1277137855299	-6.2789803	5.284695	-1.1168685	-1.5240784	0.0	26.875	-38.4375	16.625	2.2789266	-0.13525765	0.87117064
1277137855339	-6.2108784	5.9793324	-0.040861044	-1.1852179	0.0	27.375	-38.6875	16.375	2.6387477	-0.0047394903	0.8043903
1277137855369	-7.246025	6.5922484	-0.6537767	0.011192322	0.0	28.125	-38.9375	16.375	2.499616	-0.06663999	0.83260715
1277137855399	-8.158588	5.7886477	-1.8387469	0.3644848	0.0	28.625	-39.1875	16.375	2.038971	-0.18178038	0.9537124
1277137855429	-8.853226	6.4015636	-1.9477097	1.2907906	0.0	28.875	-38.4375	16.125	2.0730636	-0.1764236	0.9447498
1277137855459	-8.853226	6.0474343	-1.1168685	0.97288895	0.0	29.625	-37.9375	16.875	2.2595236	-0.10379632	0.97151864
1277137855489	-5.053149	6.4015636	-0.7218784	-1.619132	0.0	29.875	-37.375	18.125	-3.1204574	-0.088282794	0.66822046
1277137855529	-5.175732	5.706926	-2.1111538	-1.8182726	0.0	30.125	-36.125	19.375	2.8393426	-0.2674554	0.73662585
1277137855569	-6.428804	5.09401	-3.0237172	-1.0647211	0.0	30.125	-36.125	20.125	1.8693497	-0.3531837	0.9007234
1277137855629	-6.6331096	7.014479	-2.4516625	0.15385723	0.0	29.875	-36.375	20.625	2.7700403	-0.24869397	0.7574613
1277137855669	-6.66035	4.399372	-3.9771416	-0.8885565	0.0	29.875	-36.125	20.875	1.4751638	-0.4622501	0.98705304
1277137855709	-9.234595	3.5276701	-3.486809	0.6757183	0.0	30.125	-36.375	20.625	1.8143308	-0.33909696	1.2058977
1277137855749	-7.04172	5.09401	-3.8681788	-0.29362965	0.0	30.375	-36.375	20.375	1.5655042	-0.4187507	0.94453496
1277137855789	-8.117727	5.47538	-1.6889231	0.12963486	0.0	30.375	-36.875	19.125	2.2541373	-0.17080462	0.97739255
1277137855829	-6.742072	6.3607025	-1.0351465	-0.48004246	0.0	30.125	-37.9375	17.625	2.6253078	-0.11121767	0.814496
1277137855869	-7.5456724	6.66035	-2.3426998	0.5270653	0.0	29.375	-38.9375	16.375	2.0537634	-0.22869274	0.8476379
1277137855909	-7.6273947	6.4424243	-0.42223078	0.18636036	0.0	28.875	-40.1875	15.375	2.4059207	-0.04226519	0.8694206
1277137855949	-6.510526	4.2495484	-2.5333846	-1.629631	0.0	28.875	-40.1875	15.125	1.575494	-0.3150012	0.9925116
1277137855989	-7.4639506	5.175732	-2.1111538	-0.48164463	0.0	28.875	-40.4375	14.125	1.7575225	-0.22837709	0.9644929
1277137856029	-6.469665	5.284695	-0.7627395	-1.4181852	0.0	28.875	-41.1875	13.125	2.1371844	-0.09105295	0.8858698
1277137856059	-4.9850473	6.1291566	-1.8387469	-1.6950378	0.0	27.875	-41.4375	13.125	1.8929889	-0.22866842	0.6828183
1277137856099	-3.0645783	7.5456724	-1.0760075	-1.5916271	0.0	25.875	-43.1875	11.8125	-2.1629336	-0.1313579	0.38578585
1277137856129	-6.1291566	6.510526	0.10896278	-0.8643141	0.0	22.8125	-45.1875	11.0625	2.2523668	0.012185348	0.7552349
1277137856169	-7.4639506	7.8180795	-0.0	1.0022783	0.0	20.0625	-46.6875	10.3125	2.0976512	-0.0	0.7622294
1277137856209	-7.6546354	8.921328	0.88532263	1.9817905	0.0	18.0625	-48.1875	8.0625	2.1544533	0.07517169	0.709129
1277137856239	-5.7886477	6.932757	0.6537767	-0.75132084	0.0	16.5625	-48.6875	7.3125	2.0977104	0.07226087	0.6957037
1277137856279	-4.4810944	7.205164	-0.46309182	-1.3090591	0.0	15.0625	-49.1875	6.8125	1.8717362	-0.054523848	0.5563873
1277137856319	-5.597963	7.7772183	0.19068487	-0.2223568	0.0	13.5	-49.9375	6.5625	1.9625127	0.01989687	0.6238846
1277137856359	-3.173541	10.038197	-0.23154591	0.7237997	0.0	11.75	-50.4375	7.5625	2.5847144	-0.021989996	0.3062035
1277137856399	-4.0588636	9.384419	0.08172209	0.4182396	0.0	10.25	-51.1875	8.0625	2.2308664	0.007992552	0.4082152
1277137856439	-4.0588636	8.689782	0.10896278	-0.21506214	0.0	9.25	-51.4375	8.8125	2.1822598	0.011360488	0.43697032
1277137856479	-4.2086873	8.390134	-0.46309182	-0.408679	0.0	8.25	-51.6875	9.0625	1.9660646	-0.049295686	0.46494547
1277137856509	-3.9499009	8.117727	-0.0	-0.7789583	0.0	8.25	-51.6875	9.3125	2.1205788	-0.0	0.45285183
1277137856549	-4.099725	7.8861814	-0.50395286	-0.90420246	0.0	8.0	-51.4375	9.3125	1.9437131	-0.05663863	0.47941053
1277137856579	-4.372132	7.1234417	0.08172209	-1.4480829	0.0	8.5	-51.4375	8.3125	1.9909433	0.0097772	0.55048066
1277137856609	-4.862464	8.921328	-0.7627395	0.3823347	0.0	9.0	-51.4375	8.3125	1.8385729	-0.07492931	0.49902576
1277137856639	-5.202973	10.079058	0.50395286	1.5473051	0.0	9.0	-51.4375	8.0625	2.1529317	0.044400252	0.47653624
1277137856679	-3.8273177	7.43671	0.313268	-1.4369936	0.0	9.25	-51.4375	8.0625	2.1459506	0.03743776	0.4753004
1277137856719	-3.6774938	8.539958	-0.10896278	-0.50790215	0.0	9.0	-51.1875	8.3125	2.143227	-0.011718274	0.4066229
1277137856759	-3.3642259	8.19945	-0.3405087	-0.9373245	0.0	8.75	-50.9375	8.0625	2.0693731	-0.03840116	0.38935316
1277137856799	-5.47538	10.732834	-0.0	2.2421465	0.0	8.5	-51.4375	7.3125	2.0041776	-0.0	0.47173643
1277137856839	-5.434519	10.651112	0.53119355	2.1625738	0.0	8.25	-51.9375	6.0625	2.0416982	0.04439453	0.47179824
1277137856869	-4.630918	9.302697	0.42223078	0.5935354	0.0	8.25	-52.4375	5.5625	2.0153246	0.04060955	0.46188912
1277137856899	-4.7126403	8.117727	0.46309182	-0.4087286	0.0	8.75	-52.6875	5.5625	1.9722745	0.049295947	0.5259855
1277137856939	-3.0645783	4.630918	-1.334794	-4.0953703	0.0	9.0	-52.4375	5.8125	1.3095914	-0.23589356	0.5846013
1277137856969	-4.5900574	8.771504	-0.29964766	0.09777832	0.0	9.5	-51.9375	6.5625	1.8817561	-0.030258523	0.48210707
1277137857009	-4.3312707	8.921328	-0.38136974	0.117836	0.0	10.0	-51.9375	7.5625	1.9587526	-0.038436614	0.4519774
1277137857049	-4.2904096	8.349273	-0.9125633	-0.37528038	0.0	9.75	-51.1875	7.8125	1.7678497	-0.096909925	0.474679
1277137857079	-3.5957718	8.430995	-0.95342433	-0.59143066	0.0	9.75	-51.4375	7.5625	1.7672329	-0.103647396	0.4031357
1277137857109	-3.8273177	8.730643	-0.84446156	-0.23661327	0.0	9.75	-51.4375	7.5625	1.7672329	-0.103647396	0.4031357
1277137857139	-4.0180025	8.499097	-0.84446156	-0.3677883	0.0	9.0	-50.9375	7.3125	1.7746861	-0.08958624	0.44161618
1277137857179	-4.0180025	8.539958	-0.46309182	-0.35732841	0.0	9.25	-51.6875	7.3125	1.910501	-0.049027584	0.43976578
1277137857219	-4.140586	8.471856	-0.42223078	-0.3676319	0.0	9.0	-51.1875	7.3125	1.9096	-0.04474742	0.45460397
1277137857259	-4.399372	7.9679036	-0.23154591	-0.7019491	0.0	8.5	-51.6875	7.3125	1.9031541	-0.025434209	0.5044822
1277137857299	-3.9499009	6.66035	-0.46309182	-2.0493035	0.0	8.5	-52.1875	7.0625	1.7805864	-0.05973271	0.5352914
1277137857339	-4.099725	9.765789	-0.61291564	0.8024988	0.0	7.5	-51.9375	6.5625	1.8384793	-0.05780455	0.39746204
1277137857369	-4.0180025	8.689782	-0.08172209	-0.23255253	0.0	6.5	-52.1875	6.3125	1.923177	-0.008535852	0.43310332
1277137857399	-3.445948	7.6954966	-0.23154591	-1.3716736	0.0	5.5	-52.4375	6.0625	1.8488704	-0.027454138	0.42101255
1277137857429	-3.173541	7.8861814	-0.29964766	-1.3005924	0.0	4.6875	-52.4375	5.3125	1.7988302	-0.03523485	0.38258907
1277137857469	-1.7978859	9.656827	-0.5720546	0.03275776	0.0	3.9375	-53.4375	5.3125	1.9282469	-0.058171935	0.18407026
1277137857499	-2.982856	10.310603	-0.14982383	0.9278002	0.0	3.1875	-53.6875	5.5625	1.9575802	-0.013957743	0.28161147
1277137857539	-3.173541	9.697687	0.10896278	0.39768124	0.0	1.9375	-54.1875	5.5625	1.957821	0.010678294	0.31626308
1277137857569	-2.6832085	8.689782	-0.10896278	-0.71138763	0.0	0.9375	-54.4375	6.0625	1.9149607	-0.011980455	0.2994899
1277137857609	-2.8738933	9.112013	-0.19068487	-0.2502699	0.0	0.4375	-54.1875	6.0625	1.8773726	-0.019954996	0.30552113
1277137857649	-3.336985	10.119919	0.23154591	0.85176563	0.0	-0.0625	-54.4375	5.5625	1.9432709	0.021725943	0.3185169
1277137857689	-3.173541	9.997335	0.38136974	0.6892309	0.0	-0.0625	-53.6875	5.3125	1.9850038	0.03634318	0.30737785
1277137857719	-3.214402	10.337844	-0.040861044	1.0194788	0.0	-0.3125	-53.9375	5.0625	1.8608164	-0.0037743074	0.30145887
1277137857759	-2.9556155	9.915613	0.040861044	0.5401716	0.0	-0.5625	-53.4375	4.5625	1.863583	0.00394915	0.28969157
1277137857799	-2.6423476	8.240311	-0.38136974	-1.1446552	0.0	0.1875	-53.6875	4.3125	1.6968569	-0.04404217	0.3103026
1277137857839	-2.6423476	8.158588	-0.3405087	-1.2240801	0.0	1.1875	-53.6875	4.5625	1.7327418	-0.03968486	0.31321236
1277137857869	-2.9147544	8.662541	-0.38136974	-0.658926	0.0	1.6875	-53.1875	4.3125	1.7120584	-0.041702207	0.32457805
1277137857909	-3.0645783	8.894087	-0.14982383	-0.39820385	0.0	1.9375	-53.6875	4.3125	1.790322	-0.015925068	0.33182347
1277137857949	-3.173541	9.112013	0.23154591	-0.1550312	0.0	1.6875	-53.1875	4.5625	1.9194393	0.023992673	0.3351426
1277137857979	-2.8738933	9.152874	0.27240697	-0.2093296	0.0	0.9375	-53.1875	4.0625	1.9219433	0.02838746	0.30424
1277137858019	-3.255263	8.730643	-0.10896278	-0.4882412	0.0	1.6875	-53.6875	3.8125	1.7559633	-0.011693548	0.3568887
1277137858049	-2.7921712	8.430995	0.10896278	-0.9246588	0.0	2.1875	-53.6875	3.5625	1.8470175	0.01226814	0.3198107
1277137858079	-2.4108016	8.771504	0.10896278	-0.70922565	0.0	2.4375	-53.6875	3.5625	1.9099293	0.011977608	0.26822186
1277137858109	-3.636633	8.62168	0.46309182	-0.43792915	0.0	2.9375	-54.1875	3.8125	1.9030291	0.04944972	0.3991579
1277137858139	-2.6014864	8.62168	0.3405087	-0.79459953	0.0	2.4375	-53.9375	3.5625	1.9667333	0.037792705	0.2930503
1277137858199	-3.568531	9.234595	0.50395286	0.106277466	0.0	2.1875	-53.6875	3.8125	1.9245827	0.05085987	0.36875427
1277137858239	-2.2201166	8.580819	0.42223078	-0.9332266	0.0	1.6875	-53.9375	3.5625	2.0428262	0.047601726	0.25317824
1277137858279	-3.5957718	8.962189	0.19068487	-0.14814281	0.0	0.9375	-53.6875	3.0625	1.7796443	0.019743968	0.38155404
1277137858319	-3.8681788	9.765789	0.10896278	0.6978874	0.0	-0.3125	-53.6875	3.8125	1.7833183	0.010373111	0.37713534
1277137858359	-2.7240696	9.112013	0.27240697	-0.29226398	0.0	-1.0625	-53.6875	4.0625	1.8958178	0.028634973	0.29049656
1277137858399	-2.2609777	8.539958	0.313268	-0.9669075	0.0	-1.8125	-53.4375	4.5625	1.9625608	0.03544601	0.25881472
1277137858439	-3.0645783	9.384419	-0.08172209	0.06581879	0.0	-2.3125	-53.6875	5.3125	1.8247215	-0.008277871	0.31564245
1277137858479	-2.1383946	9.425281	-0.0	-0.14183521	0.0	-2.0625	-53.9375	5.5625	1.9503354	-0.0	0.22310181
1277137858519	-2.3699405	9.152874	0.19068487	-0.350008	0.0	-2.5625	-54.4375	6.0625	1.9861064	0.020165486	0.2533642
1277137858559	-2.5333846	9.615966	0.14982383	0.13856411	0.0	-2.0625	-54.9375	6.3125	1.9888799	0.0150654875	0.25760257
1277137858599	-1.4165162	8.349273	-0.0	-1.338069	0.0	-2.0625	-54.6875	6.3125	2.0847647	-0.0	0.1680572
1277137858629	-4.140586	10.119919	-0.14982383	1.1285982	0.0	-2.5625	-54.1875	6.0625	1.8019643	-0.013701428	0.3883711
1277137858669	-2.7921712	9.765789	0.23154591	0.35309696	0.0	-2.5625	-53.9375	5.8125	1.9543104	0.022792492	0.27848387
1277137858709	-2.6423476	9.193735	-0.10896278	-0.2401123	0.0	-3.3125	-53.4375	6.0625	1.8675737	-0.011390237	0.27986428
1277137858749	-2.5333846	9.084772	-0.14982383	-0.37407017	0.0	-3.3125	-53.4375	6.3125	1.8750061	-0.015884321	0.27195176
1277137858789	-2.3426998	9.152874	-0.08172209	-0.35836887	0.0	-3.0625	-53.4375	6.8125	1.9451306	-0.0086495215	0.25057298
1277137858819	-2.6014864	9.615966	-0.10896278	0.15559864	0.0	-3.0625	-53.1875	6.5625	1.9134423	-0.010937787	0.26421344
1277137858859	-2.7240696	10.147159	-0.0	0.69979477	0.0	-3.0625	-53.1875	6.3125	1.9312407	-0.0	0.26227257
1277137858889	-2.7240696	9.697687	-0.040861044	0.26645088	0.0	-3.3125	-52.9375	6.0625	1.8937967	-0.0040564626	0.27384207
1277137858929	-2.7513103	8.689782	-0.10896278	-0.69106483	0.0	-3.3125	-52.9375	6.0625	1.8937967	-0.0040564626	0.27384207
1277137858969	-2.4925237	8.771504	0.040861044	-0.687788	0.0	-3.0625	-52.9375	6.0625	1.9172246	0.004480952	0.27686346
1277137859009	-2.4516625	8.240311	-0.3405087	-1.2026215	0.0	-2.0625	-53.1875	5.8125	1.7896812	-0.039585833	0.2891806
1277137859049	-2.7240696	9.193735	0.27240697	-0.21396923	0.0	-1.3125	-53.6875	5.0625	1.9464623	0.028401194	0.28805545
1277137859079	-2.5333846	9.275456	0.10896278	-0.19082928	0.0	-0.8125	-53.9375	4.5625	1.9015838	0.011331857	0.26662478
1277137859119	-2.4516625	9.193735	0.10896278	-0.29101658	0.0	-0.5625	-54.1875	4.8125	1.927781	0.011451173	0.26060238
1277137859159	-2.3018389	9.193735	0.10896278	-0.3285122	0.0	-1.0625	-53.9375	4.5625	1.920961	0.011496476	0.2453272
1277137859199	-2.4516625	9.152874	0.19068487	-0.32919693	0.0	-1.5625	-53.6875	4.8125	1.9336438	0.020121202	0.26171347
1277137859239	-2.6423476	8.812365	0.50395286	-0.5928707	0.0	-2.0625	-53.4375	4.5625	1.9707308	0.054722868	0.29131502
1277137859279	-2.9147544	8.853226	0.08172209	-0.48559475	0.0	-1.8125	-53.1875	4.0625	1.8112435	0.008767584	0.31805372
1277137859319	-2.4108016	9.80665	0.46309182	0.30259323	0.0	-2.0625	-53.4375	4.3125	1.9948133	0.04582479	0.24105328
1277137859359	-2.4108016	9.234595	0.10896278	-0.26193523	0.0	-1.5625	-53.6875	4.8125	1.914847	0.011416281	0.25536254
1277137859389	-2.3018389	9.384419	0.10896278	-0.14343834	0.0	-1.5625	-53.4375	5.0625	1.9479222	0.011276281	0.24053426
1277137859419	-2.3018389	9.234595	0.14982383	-0.28831768	0.0	-2.0625	-53.1875	5.3125	1.9611346	0.015741205	0.2442845
1277137859449	-2.3699405	8.853226	0.10896278	-0.641057	0.0	-1.8125	-53.1875	5.3125	1.9353882	0.011888522	0.2615597
1277137859489	-2.2201166	9.193735	0.10896278	-0.34802723	0.0	-1.3125	-52.9375	5.3125	1.9774796	0.011520197	0.23694529
1277137859519	-2.4925237	9.152874	0.19068487	-0.31854534	0.0	-1.3125	-53.6875	5.0625	1.9482954	0.020098608	0.26587427
1277137859549	-2.4925237	9.193735	0.10896278	-0.28040695	0.0	-1.3125	-53.9375	5.0625	1.9230567	0.011438419	0.26474714
1277137859579	-2.2201166	9.275456	0.10896278	-0.2685747	0.0	-1.0625	-53.9375	4.8125	1.9495941	0.011424229	0.23493399
1277137859619	-2.3426998	9.193735	0.10896278	-0.31850624	0.0	-1.5625	-53.9375	4.5625	1.9054637	0.011484351	0.24950507
1277137859659	-2.5333846	10.18802	0.313268	0.69629765	0.0	-1.3125	-53.4375	4.5625	1.9772003	0.029831098	0.24372001
1277137859699	-2.3426998	9.234595	0.10896278	-0.27890873	0.0	-1.0625	-53.4375	4.8125	1.9349879	0.011436621	0.24844606
1277137859739	-2.5606253	8.662541	0.14982383	-0.7723341	0.0	-1.0625	-53.1875	4.8125	1.9085269	0.01658462	0.2874129
1277137859779	-2.5606253	9.00305	0.3405087	-0.44034576	0.0	-1.0625	-52.9375	4.3125	1.9484417	0.03636266	0.27710038
1277137859809	-2.6423476	9.043911	0.38136974	-0.3769226	0.0	-0.8125	-52.9375	4.3125	1.9570518	0.04045438	0.2842567
1277137859849	-2.4925237	9.193735	0.23154591	-0.27821636	0.0	-0.8125	-52.9375	4.0625	1.9180884	0.024302913	0.26474717
1277137859881	-2.4516625	9.275456	0.3405087	-0.2066145	0.0	-0.8125	-53.1875	4.3125	1.9736116	0.035476968	0.25840762
1277137859919	-2.4108016	9.234595	0.27240697	-0.2586708	0.0	-1.3125	-53.1875	4.5625	1.9593359	0.0285342	0.2553625
1277137859949	-2.3699405	9.275456	0.3405087	-0.22715855	0.0	-1.0625	-53.4375	4.3125	1.977474	0.03555308	0.2501546
1277137859979	-2.4516625	9.193735	0.3405087	-0.28554916	0.0	-1.3125	-53.6875	4.0625	1.9434264	0.035771213	0.26060238
1277137860009	-2.4925237	9.193735	0.3405087	-0.2749462	0.0	-1.3125	-53.4375	4.0625	1.939393	0.035731405	0.26474714
1277137860089	-2.1383946	9.302697	0.38136974	-0.25372696	0.0	-1.0625	-53.6875	3.8125	1.9943178	0.0399324	0.22594324
1277137860119	-2.2201166	9.724928	0.53119355	0.18260956	0.0	-2.3125	-53.4375	4.0625	2.0188198	0.053201564	0.22444496
1277137860149	-2.3699405	8.894087	0.46309182	-0.5905857	0.0	-2.5625	-53.4375	3.5625	1.9312559	0.0502695	0.26041177
1277137860189	-2.3699405	9.193735	0.50395286	-0.2990036	0.0	-3.5625	-53.6875	3.5625	1.9267977	0.053029858	0.25228542
1277137860229	-1.6889231	9.615966	0.313268	-0.038467407	0.0	-4.8125	-53.6875	3.8125	1.9432093	0.032075744	0.17386405
1277137860269	-1.334794	9.765789	0.3405087	0.05581665	0.0	-5.375	-53.6875	3.5625	1.9739103	0.034532577	0.1358389
1277137860309	-1.2666923	9.656827	0.3405087	-0.06115055	0.0	-6.625	-53.4375	4.0625	1.9811416	0.03494721	0.13042603
1277137860349	-1.4982382	9.384419	0.14982383	-0.30220413	0.0	-6.875	-53.1875	3.8125	1.8665154	0.015764207	0.1583156
1277137860382	-1.4165162	9.234595	0.10896278	-0.46341038	0.0	-7.125	-52.6875	3.5625	1.8406135	0.01166247	0.15220597
1277137860419	-1.607201	9.193735	0.42223078	-0.4639454	0.0	-6.875	-52.6875	3.8125	1.9383186	0.045209035	0.17306598
1277137860449	-1.7570249	8.730643	0.27240697	-0.89679813	0.0	-6.625	-52.6875	3.8125	1.8775567	0.030578444	0.19859532
1277137860489	-1.3075534	9.466142	0.42223078	-0.2413063	0.0	-6.875	-52.9375	4.0625	1.9940989	0.04415607	0.13726093
1277137860519	-1.3075534	9.507003	0.23154591	-0.20735836	0.0	-6.625	-53.4375	4.3125	1.9530902	0.024123484	0.13667831
1277137860549	-1.56634	9.084772	0.313268	-0.5825167	0.0	-6.625	-53.4375	4.3125	1.9530902	0.024123484	0.13667831
1277137860580	-1.920469	9.507003	0.3405087	-0.101638794	0.0	-6.125	-53.4375	4.3125	1.9235173	0.03509306	0.1993234
1277137860619	-1.7978859	9.534244	0.313268	-0.0993166	0.0	-5.875	-53.4375	4.0625	1.9206765	0.032276876	0.18638279
1277137860649	-1.879608	9.384419	0.3405087	-0.2297926	0.0	-5.875	-53.1875	4.0625	1.9184804	0.03556286	0.19767466
1277137860689	-1.7570249	9.507003	0.27240697	-0.13481236	0.0	-5.875	-53.4375	4.0625	1.9126256	0.02816869	0.18275169
1277137860759	-1.920469	10.119919	0.313268	0.49864483	0.0	-6.125	-53.1875	4.3125	1.9234456	0.030403426	0.1875411
1277137860799	-2.1383946	10.56939	0.50395286	0.98865986	0.0	-5.625	-52.9375	3.5625	1.9254342	0.04669955	0.19962493
1277137860839	-1.7978859	9.534244	0.040861044	-0.104286194	0.0	-4.5625	-52.9375	3.8125	1.8454859	0.004211465	0.18638279
1277137860881	-2.4925237	8.471856	0.23154591	-0.972702	0.0	-3.8125	-52.4375	3.8125	1.8404514	0.026213922	0.2861385
1277137860919	-2.6014864	8.471856	0.14982383	-0.9431	0.0	-2.8125	-52.6875	3.5625	1.8085405	0.01690417	0.29793397
1277137860959	-2.4108016	8.962189	0.38136974	-0.51804256	0.0	-2.3125	-52.9375	4.3125	1.9507287	0.04106934	0.26277673
1277137860989	-2.3426998	9.193735	0.313268	-0.31396103	0.0	-2.0625	-52.9375	4.8125	1.9772182	0.03300697	0.24950509
1277137861029	-2.3018389	9.302697	0.3405087	-0.21735477	0.0	-1.8125	-53.4375	4.8125	1.9975362	0.035516717	0.24256572
1277137861059	-2.2201166	9.234595	0.313268	-0.30376625	0.0	-1.8125	-53.4375	4.5625	1.9845585	0.032971546	0.23593543
1277137861089	-2.2201166	9.275456	0.27240697	-0.26530743	0.0	-1.8125	-53.1875	4.5625	1.973526	0.02855405	0.23493397
1277137861119	-2.2201166	9.343558	0.3405087	-0.19691849	0.0	-1.8125	-53.4375	3.5625	1.9353826	0.035441156	0.23328328
1277137861149	-2.2201166	9.343558	0.313268	-0.19784546	0.0	-2.3125	-53.1875	4.0625	1.9460654	0.03260796	0.2332833
1277137861189	-2.0294318	9.384419	0.14982383	-0.20413113	0.0	-2.3125	-52.6875	4.0625	1.9186645	0.015603188	0.21297581
1277137861229	-2.0294318	9.275456	0.14982383	-0.3105917	0.0	-2.3125	-52.6875	3.5625	1.8831655	0.01577813	0.2154015
1277137861259	-1.9885708	9.302697	0.19068487	-0.2918749	0.0	-2.3125	-52.4375	3.8125	1.9209945	0.020042263	0.21059336
1277137861299	-1.920469	9.302697	0.10896278	-0.30716324	0.0	-1.5625	-52.4375	3.0625	1.8628683	0.011470637	0.20358223
1277137861339	-1.9477097	9.343558	0.10896278	-0.26162434	0.0	-1.5625	-52.4375	3.0625	1.8628683	0.011470637	0.20358223
1277137861369	-1.879608	9.302697	0.19068487	-0.31404972	0.0	-0.8125	-52.1875	3.3125	1.9422371	0.020089088	0.19936574
1277137861399	-1.9477097	9.384419	0.313268	-0.21712303	0.0	-0.5625	-52.1875	2.8125	1.952391	0.032673534	0.2046418
1277137861429	-2.070293	9.193735	0.38136974	-0.37498474	0.0	-0.3125	-51.9375	2.3125	1.9268407	0.040446065	0.22149068
1277137861459	-2.5333846	8.812365	0.42223078	-0.62764835	0.0	-0.3125	-51.6875	2.0625	1.8601801	0.046015877	0.279932
1277137861499	-2.0294318	9.234595	0.3405087	-0.3455572	0.0	-1.0625	-51.9375	2.3125	1.8974562	0.035998195	0.21632521
1277137861529	-2.3426998	9.302697	0.42223078	-0.20421886	0.0	-1.0625	-52.4375	2.3125	1.8875189	0.04398542	0.24670042
1277137861559	-2.2609777	8.853226	0.27240697	-0.6652155	0.0	-1.8125	-52.6875	3.3125	1.8857048	0.02980356	0.25004008
1277137861589	-2.4516625	8.430995	0.27240697	-1.0222025	0.0	-1.8125	-52.9375	2.8125	1.8294717	0.031015113	0.28298745
1277137861619	-2.3018389	9.275456	0.46309182	-0.2386303	0.0	-2.0625	-53.1875	2.3125	1.8832068	0.04841888	0.24325037
1277137861649	-1.879608	9.384419	0.23154591	-0.23304749	0.0	-2.5625	-53.1875	2.5625	1.8568274	0.024188228	0.19767468
1277137861689	-2.1792557	9.343558	0.50395286	-0.19909096	0.0	-2.8125	-53.4375	1.5625	1.849473	0.05247787	0.22913978
1277137861729	-1.6480621	9.534244	0.10896278	-0.13040161	0.0	-2.8125	-53.6875	2.5625	1.8294437	0.011261088	0.17116573
1277137861769	-1.9477097	9.043911	0.14982383	-0.5541725	0.0	-3.3125	-53.6875	3.3125	1.8488402	0.01619354	0.2121216
1277137861799	-1.6889231	9.697687	0.10896278	0.037611008	0.0	-4.0625	-53.6875	3.3125	1.8571014	0.011068887	0.17242791
1277137861829	-1.607201	9.193735	-0.0	-0.47349072	0.0	-4.3125	-53.9375	3.8125	1.8453346	-0.0	0.17306598
1277137861869	-1.6889231	9.656827	0.14982383	-0.0020990372	0.0	-5.125	-54.4375	3.8125	1.8805875	0.015281645	0.17314301
1277137861899	-1.607201	9.193735	0.040861044	-0.47340202	0.0	-5.375	-54.6875	4.0625	1.854793	0.004378023	0.17306596
1277137861939	-1.7297841	9.507003	0.10896278	-0.14294815	0.0	-4.8125	-54.9375	4.0625	1.8804903	0.01127571	0.17997958
1277137861969	-1.607201	9.697687	-0.08172209	0.023654938	0.0	-4.5625	-54.6875	4.5625	1.8681988	-0.008313376	0.16423751
1277137861999	-1.7297841	8.962189	-0.10896278	-0.67840576	0.0	-4.5625	-54.4375	5.0625	1.8619751	-0.011937166	0.19066462
1277137862039	-1.7570249	9.765789	-0.040861044	0.11602306	0.0	-3.8125	-54.4375	5.0625	1.9179114	-0.0041179587	0.1780119
1277137862069	-1.7570249	10.038197	-0.19068487	0.3859396	0.0	-3.0625	-53.9375	6.0625	1.9618198	-0.018709278	0.17327859
1277137862109	-2.1383946	9.724928	0.08172209	0.15094185	0.0	-2.5625	-54.4375	6.0625	1.9999027	0.008207105	0.21644343
1277137862139	-2.1792557	10.95076	0.313268	1.3632393	0.0	-2.3125	-54.6875	6.0625	2.0990047	0.028049435	0.19643863
1277137862179	-1.7570249	12.108489	-0.14982383	2.4295702	0.0	-2.0625	-54.6875	5.5625	2.0308669	-0.012244596	0.14410108
1277137862219	-1.0351465	9.152874	-0.7218784	-0.5671835	0.0	-1.5625	-54.6875	4.5625	1.6119003	-0.07820959	0.112616725
1277137862259	-3.3642259	5.434519	0.14982383	-3.4133368	0.0	-0.5625	-53.9375	4.0625	1.7466351	0.023436604	0.55430746
1277137862299	-3.0237172	9.534244	0.10896278	0.19617653	0.0	0.6875	-53.4375	3.0625	1.8002123	0.010893414	0.30710906
1277137862329	-2.6832085	9.112013	0.3405087	-0.3016863	0.0	0.9375	-53.1875	2.0625	1.8400915	0.03583197	0.2863751
1277137862359	-2.7513103	8.730643	0.42223078	-0.64302063	0.0	0.6875	-52.6875	1.5625	1.8213937	0.04609313	0.30528146
1277137862389	-2.9147544	8.812365	0.53119355	-0.5095682	0.0	-0.0625	-52.4375	1.0625	1.8027837	0.057166647	0.31943038
1277137862429	-3.0645783	9.193735	0.6946377	-0.09073925	0.0	-0.5625	-51.6875	1.0625	1.8342642	0.07155591	0.32175055
1277137862459	-2.7921712	8.894087	0.6537767	-0.46168232	0.0	-0.3125	-51.4375	1.3125	1.8636924	0.070017494	0.3041923
1277137862489	-2.8738933	9.152874	0.84446156	-0.17610073	0.0	-0.0625	-51.6875	1.3125	1.9183003	0.08779847	0.30423996
1277137862529	-2.5606253	9.112013	0.53119355	-0.32678986	0.0	-0.0625	-51.6875	1.3125	1.9183003	0.08779847	0.30423996
1277137862559	-2.4516625	9.084772	0.42223078	-0.38741398	0.0	0.1875	-52.4375	0.3125	1.7601568	0.044841465	0.26358604
1277137862589	-2.3699405	9.00305	0.38136974	-0.48908806	0.0	0.4375	-51.9375	-0.6875	1.6776986	0.040941644	0.2573982
1277137862619	-2.5606253	9.275456	0.7218784	-0.15719414	0.0	0.4375	-51.6875	-1.4375	1.7418083	0.07488023	0.2693557
1277137862649	-2.6423476	9.043911	0.8036005	-0.35042953	0.0	0.9375	-51.1875	-1.9375	1.7377307	0.08508377	0.2842567
1277137862689	-2.5333846	8.771504	0.27240697	-0.67256355	0.0	0.9375	-51.4375	-1.9375	1.5367765	0.029827543	0.2811685
1277137862729	-2.7240696	9.697687	1.1168685	0.3280964	0.0	0.1875	-52.4375	-1.1875	1.8745676	0.1104262	0.27384204
1277137862769	-2.6423476	9.534244	1.0760075	0.14531422	0.0	-0.3125	-53.1875	-0.6875	1.8934054	0.108331874	0.2703573
1277137862809	-2.4516625	9.534244	0.6946377	0.062238693	0.0	-1.5625	-54.1875	-0.9375	1.7508162	0.07044487	0.25168997
1277137862839	-2.3699405	9.193735	0.95342433	-0.26461697	0.0	-2.5625	-54.4375	-0.6875	1.8449336	0.10008537	0.25228542
1277137862869	-2.5333846	8.471856	0.08172209	-0.96374035	0.0	-2.5625	-54.1875	-1.6875	1.5033547	0.009241669	0.29057157
1277137862909	-2.3018389	8.240311	0.7218784	-1.2204819	0.0	-2.3125	-54.1875	-2.1875	1.6983739	0.08417393	0.2723955
1277137862949	-2.1792557	9.724928	1.2666923	0.23963737	0.0	-0.5625	-53.6875	-3.4375	1.8240058	0.12642209	0.2204478
1277137862989	-2.3426998	9.656827	0.7218784	0.15646458	0.0	0.6875	-52.4375	-6.9375	1.3024858	0.07251864	0.2379974
1277137863029	-2.1111538	9.343558	0.95342433	-0.18022442	0.0	-0.0625	-51.1875	-11.1875	1.0713075	0.099205054	0.22221613
1277137863059	-2.3018389	8.921328	0.88532263	-0.5507145	0.0	-2.5625	-49.6875	-16.75	0.8872465	0.09579563	0.25250813
1277137863089	-2.1111538	9.534244	0.84446156	-0.0050239563	0.0	-5.125	-48.6875	-19.75	0.78069097	0.0862622	0.21791251
1277137863119	-2.9556155	9.234595	0.61291564	-0.09124565	0.0	-6.625	-48.4375	-19.75	0.89409333	0.06312892	0.3097565
1277137863149	-2.5606253	8.771504	0.88532263	-0.6262417	0.0	-7.125	-48.1875	-18.25	0.9714921	0.09658619	0.28403258
1277137863189	-2.1383946	8.962189	0.84446156	-0.5542631	0.0	-7.375	-47.6875	-16.5	0.9755071	0.09139678	0.23422253
1277137863229	-2.6423476	9.888372	1.0760075	0.48507977	0.0	-7.875	-47.1875	-15.0	1.0883653	0.10474211	0.2611167
1277137863269	-2.6014864	9.00305	1.1168685	-0.36895752	0.0	-7.875	-45.6875	-14.75	1.1236115	0.11861924	0.28129426
1277137863319	-3.214402	8.539958	1.3756552	-0.57866573	0.0	-5.125	-43.6875	-14.25	1.1821933	0.14963204	0.35999358
1277137863359	-2.4516625	9.152874	0.95342433	-0.28326988	0.0	1.1875	-40.6875	-13.75	0.7678455	0.100282066	0.2617135
1277137863389	-2.0294318	9.343558	1.1168685	-0.18022442	0.0	9.25	-38.9375	-15.0	-0.07538789	0.116282985	0.21387912
1277137863419	-2.070293	9.384419	1.0760075	-0.13652992	0.0	16.3125	-39.4375	-15.75	-0.5952947	0.11150227	0.21713169
1277137863449	-2.2201166	9.234595	1.1441092	-0.2402687	0.0	20.0625	-42.1875	-16.0	-0.746874	0.11988383	0.23593543
1277137863479	-2.6014864	8.962189	1.1849703	-0.3995943	0.0	20.0625	-46.1875	-15.5	-0.61311764	0.12630165	0.28250974
1277137863519	-2.8738933	8.962189	1.1849703	-0.3206482	0.0	17.5625	-48.9375	-13.5	-0.25242025	0.12524496	0.31030938
1277137863549	-2.9556155	8.812365	1.3075534	-0.42032337	0.0	13.75	-50.6875	-11.4375	0.65372694	0.13975859	0.32360414
1277137863579	-3.1054392	8.962189	1.3756552	-0.22244453	0.0	10.75	-50.6875	-9.6875	1.2404495	0.14403103	0.33355746
1277137863619	-2.8738933	9.343558	1.4982382	0.08304405	0.0	8.5	-50.4375	-8.6875	1.4365625	0.15208045	0.2983965
1277137863649	-2.3426998	9.112013	1.334794	-0.30408764	0.0	5.75	-50.4375	-8.9375	1.3206283	0.14093283	0.2516499
1277137863689	-2.2201166	9.275456	1.1849703	-0.19586658	0.0	3.4375	-49.6875	-8.9375	1.2412264	0.123610444	0.23493397
1277137863729	-2.2609777	9.343558	1.334794	-0.10119915	0.0	1.4375	-49.4375	-9.4375	1.3134066	0.13796763	0.23741868
1277137863769	-2.7513103	9.234595	1.6889231	-0.02401638	0.0	-0.0625	-49.1875	-9.4375	1.4887083	0.1735144	0.28956133
1277137863799	-3.214402	9.193735	1.8387469	0.104865074	0.0	-0.0625	-48.6875	-10.1875	1.478777	0.18659718	0.33634478
1277137863830	-3.173541	8.812365	1.7297841	-0.28187847	0.0	0.9375	-48.6875	-11.9375	1.3587061	0.1826224	0.34566504
1277137863869	-3.1054392	8.689782	1.7570249	-0.41286469	0.0	1.9375	-48.6875	-13.75	1.251729	0.18814933	0.3432225
1277137863899	-2.7240696	9.043911	1.56634	-0.23239803	0.0	3.4375	-48.9375	-16.5	0.9079072	0.1643379	0.29256177
1277137863939	-2.4925237	9.084772	1.3756552	-0.28624153	0.0	4.9375	-48.9375	-17.0	0.69525576	0.145003	0.26777372
1277137863979	-2.4108016	8.662541	1.3756552	-0.7102766	0.0	7.25	-48.1875	-16.0	0.6094741	0.15181366	0.27143335
1277137864009	-2.6014864	9.152874	1.607201	-0.15647316	0.0	10.0	-47.6875	-15.25	0.45758912	0.16732597	0.27692333
1277137864049	-2.7921712	9.193735	1.7570249	-0.038942337	0.0	12.25	-46.6875	-14.75	0.30647472	0.18086547	0.2948512
1277137864089	-2.6832085	9.112013	1.8387469	-0.13145638	0.0	13.75	-45.6875	-17.0	-0.0372863	0.1912106	0.2863751
1277137864119	-2.6832085	8.894087	1.8387469	-0.33641338	0.0	13.5	-45.1875	-21.25	0.010841398	0.19540168	0.2930015
1277137864149	-2.7240696	8.853226	1.7978859	-0.37094402	0.0	11.75	-43.9375	-25.0	0.10607338	0.1917129	0.29849896
1277137864189	-2.8330324	9.00305	1.7978859	-0.19866562	0.0	9.0	-43.4375	-27.5	0.23312959	0.18823376	0.30486488
1277137864229	-2.7513103	8.689782	1.7570249	-0.5239153	0.0	5.5	-43.9375	-27.0	0.41361147	0.19042762	0.30662882
1277137864269	-2.7921712	8.921328	1.7297841	-0.29989147	0.0	2.6875	-44.6875	-24.0	0.60201156	0.18297234	0.30331945
1277137864309	-2.7240696	9.112013	1.7570249	-0.13522434	0.0	-0.0625	-45.9375	-21.75	0.7787187	0.18268622	0.29049656
1277137864349	-2.6832085	8.921328	1.7297841	-0.33132172	0.0	-2.0625	-47.4375	-18.5	1.0016558	0.18358615	0.292157
1277137864379	-2.5333846	9.234595	1.7978859	-0.06354141	0.0	-2.3125	-48.1875	-16.5	1.0930926	0.18559259	0.26774904
1277137864409	-2.4108016	9.084772	1.56634	-0.27782726	0.0	-1.0625	-48.6875	-16.25	1.01799	0.16512859	0.25938892
1277137864439	-2.4925237	9.112013	1.5390993	-0.2353239	0.0	2.1875	-49.4375	-15.75	0.9521123	0.16150433	0.26701078
1277137864479	-2.4516625	9.275456	1.5390993	-0.08998585	0.0	5.75	-49.4375	-18.75	0.5837505	0.15906787	0.25840762
1277137864509	-2.6832085	8.921328	1.607201	-0.35293198	0.0	5.75	-47.9375	-23.25	0.51039577	0.17083706	0.29215696
1277137864549	-2.8330324	8.771504	1.879608	-0.39929676	0.0	3.4375	-46.1875	-26.75	0.5653934	0.20115586	0.31240502
1277137864589	-2.9556155	8.894087	1.9477097	-0.23408413	0.0	1.1875	-44.4375	-29.5	0.5672683	0.2048986	0.32083145
1277137864629	-3.0645783	8.921328	1.8387469	-0.19609737	0.0	-1.0625	-43.6875	-27.75	0.66458076	0.19251275	0.33088273
1277137864659	-2.9147544	9.234595	1.9885708	0.07909489	0.0	-1.5625	-44.4375	-24.25	0.7701947	0.20253728	0.3057377
1277137864723	-2.6423476	8.471856	1.3756552	-0.8262949	0.0	-1.5625	-45.1875	-21.75	0.7850557	0.15379046	0.30233553
1277137864759	-2.4108016	9.343558	2.152015	0.0799675	0.0	-2.3125	-45.4375	-20.25	0.92165893	0.21942607	0.2525102
1277137864789	-2.7921712	9.084772	1.5390993	-0.17866325	0.0	-3.0625	-44.9375	-20.5	0.8734083	0.1605456	0.29818282
1277137864819	-3.0237172	8.962189	1.7297841	-0.19125366	0.0	-2.5625	-44.9375	-20.5	0.9250999	0.18088207	0.32539353
1277137864859	-2.9147544	8.812365	1.8387469	-0.34438038	0.0	-1.5625	-45.1875	-20.25	0.93273264	0.19556834	0.31943038
1277137864899	-2.8738933	8.812365	1.5390993	-0.41059494	0.0	-1.0625	-46.4375	-18.5	0.9476912	0.16454421	0.3152451
1277137864939	-3.255263	9.507003	1.6889231	0.38316345	0.0	-0.5625	-48.1875	-16.5	1.0742737	0.16651465	0.3298944
1277137864979	-2.7921712	8.853226	1.6480621	-0.37839794	0.0	-0.5625	-50.9375	-15.0	1.1922449	0.17570303	0.30551067
1277137865009	-2.8738933	8.689782	1.5390993	-0.525465	0.0	-0.8125	-54.1875	-12.4375	1.3615924	0.16659965	0.3193976
1277137865049	-3.1463003	9.343558	1.3756552	0.14793205	0.0	-0.8125	-56.6875	-10.1875	1.4285349	0.13863684	0.32480866
1277137865079	-2.7513103	9.043911	1.1168685	-0.2877512	0.0	-0.3125	-58.9375	-7.9375	1.4977294	0.11760259	0.295321
1277137865119	-2.7240696	8.894087	1.6480621	-0.3598814	0.0	0.4375	-60.4375	-5.4375	1.8390298	0.17535506	0.29720712
1277137865149	-2.7921712	8.894087	1.607201	-0.34704685	0.0	0.9375	-61.1875	-3.4375	1.9316542	0.17072974	0.30419227
1277137865189	-2.8330324	8.962189	1.5390993	-0.2821703	0.0	1.1875	-61.1875	-2.6875	1.9467778	0.16230573	0.30616978
1277137865229	-2.5606253	9.275456	1.4982382	-0.068291664	0.0	0.4375	-59.6875	-2.1875	1.9801466	0.15446264	0.2693557
1277137865269	-2.7513103	8.662541	1.4165162	-0.6079626	0.0	-0.5625	-57.4375	-2.4375	1.8935975	0.15460631	0.3075335
1277137865309	-2.8330324	8.853226	1.6889231	-0.35899734	0.0	-1.0625	-54.9375	-2.9375	1.9170331	0.17973255	0.30970293
1277137865349	-2.7921712	9.00305	1.4982382	-0.26223564	0.0	-1.5625	-52.6875	-4.1875	1.7834032	0.15762733	0.30072987
1277137865379	-2.982856	9.302697	1.7978859	0.12662697	0.0	-1.5625	-50.6875	-5.6875	1.7490395	0.18199933	0.3102872
1277137865409	-2.6423476	8.921328	1.334794	-0.40698147	0.0	-2.5625	-48.1875	-7.1875	1.5301229	0.142486	0.2879515
1277137865439	-2.4925237	9.112013	1.5390993	-0.2353239	0.0	-3.3125	-45.9375	-9.6875	1.4041091	0.16150433	0.26701078
1277137865479	-2.6423476	9.234595	1.7297841	-0.046941757	0.0	-3.8125	-43.1875	-11.6875	1.2991993	0.17817856	0.27868927
1277137865509	-2.982856	8.539958	1.2666923	-0.672493	0.0	-3.3125	-40.9375	-14.25	1.0791119	0.1391248	0.33603528
1277137865549	-2.8738933	8.580819	1.3756552	-0.65339184	0.0	-1.5625	-39.4375	-16.25	0.926608	0.15086292	0.3231784
1277137865579	-3.336985	8.499097	1.2258313	-0.5940075	0.0	0.1875	-38.9375	-17.5	0.843417	0.13345547	0.3741353
1277137865649	-2.9556155	9.656827	1.4982382	0.40288925	0.0	1.9375	-39.4375	-17.75	0.6816866	0.14728074	0.29701158
1277137865679	-2.8330324	9.084772	1.0351465	-0.23425865	0.0	2.6875	-41.6875	-17.25	0.6571973	0.108350635	0.3022872
1277137865720	-3.2961242	9.80665	1.334794	0.6248646	0.0	2.9375	-43.9375	-16.0	0.822101	0.12830961	0.3242485
1277137865759	-2.6832085	8.921328	1.3756552	-0.3895321	0.0	3.4375	-45.6875	-14.5	0.9013308	0.14660487	0.29215696
1277137865799	-2.9556155	8.894087	1.5390993	-0.30879402	0.0	3.6875	-47.1875	-13.5	1.0941632	0.16276474	0.32083145
1277137865829	-3.336985	9.043911	2.1111538	0.0617218	0.0	3.9375	-46.6875	-13.5	1.2952182	0.21559767	0.35347882
1277137865879	-3.0237172	8.962189	1.2666923	-0.26368427	0.0	4.1875	-45.6875	-14.0	0.9288598	0.1331286	0.32539353
1277137865909	-2.8330324	9.084772	1.334794	-0.19723701	0.0	2.9375	-44.9375	-14.75	0.8921752	0.13935545	0.3022872
1277137865949	-2.5333846	8.730643	1.3756552	-0.612381	0.0	1.6875	-43.6875	-14.75	0.9081435	0.15018488	0.2824157
1277137866006	-2.4516625	8.689782	1.4982382	-0.6541815	0.0	0.4375	-42.9375	-13.75	1.0279152	0.16443779	0.27498427
1277137866100	-1.8387469	8.349273	1.7297841	-1.0840645	0.0	0.6875	-42.4375	-12.4375	1.1345344	0.19963433	0.21676815
1277137866339	0.19068487	11.182305	1.56634	1.486433	0.0	1.4375	-41.6875	-11.6875	-0.3548742	0.13914765	-0.017050724
1277137866382	0.50395286	10.119919	1.8387469	0.49129677	0.0	0.6875	-43.4375	-9.4375	-1.0734488	0.17951734	-0.04975701
1277137866419	0.6537767	9.084772	1.6480621	-0.5504837	0.0	-0.0625	-44.9375	-8.1875	-1.5469692	0.17900461	-0.071840174
1277137866459	0.7627395	8.499097	1.8387469	-1.0775375	0.0	-1.8125	-46.6875	-7.9375	-2.2891383	0.21223506	-0.08950382
1277137866509	0.08172209	9.847511	1.920469	0.22671223	0.0	-3.5625	-48.4375	-6.9375	2.2336795	0.1925968	-0.008298565
1277137866549	0.040861044	9.343558	2.1111538	-0.22746849	0.0	-3.8125	-48.4375	-8.6875	2.1202393	0.22221406	-0.0043731504
1277137866589	-0.46309182	9.507003	1.4982382	-0.17118073	0.0	-4.0625	-48.1875	-10.4375	1.1510096	0.15612547	0.048672132
1277137866629	-0.61291564	9.847511	2.1792557	0.29771996	0.0	-4.8125	-47.4375	-12.1875	1.3482436	0.21738261	0.06216048
1277137866669	-0.5720546	9.915613	1.7978859	0.28686333	0.0	-5.125	-46.1875	-14.5	0.90506434	0.17907852	0.05762843
1277137866709	-0.27240697	9.302697	1.6480621	-0.3551693	0.0	-4.5625	-44.4375	-16.5	0.60229844	0.17526673	0.029274214
1277137866749	-0.19068487	9.084772	1.4982382	-0.5971899	0.0	-3.8125	-43.1875	-17.75	0.42221835	0.16341099	0.020986423
1277137866779	-0.10896278	8.894087	1.5390993	-0.77971935	0.0	-3.5625	-42.9375	-18.25	0.36590165	0.17133793	0.012250536
1277137866819	-0.38136974	9.765789	1.4982382	0.08075619	0.0	-3.8125	-43.1875	-18.0	0.45345855	0.15211591	0.039031774
1277137866849	-0.29964766	9.384419	1.6889231	-0.26675606	0.0	-4.3125	-44.1875	-16.75	0.5821305	0.17797601	0.03191949
1277137866891	-0.46309182	9.534244	1.4982382	-0.14430141	0.0	-4.3125	-45.4375	-15.0	0.69475985	0.15568759	0.048533287
1277137866929	-1.1168685	9.80665	1.6889231	0.20685291	0.0	-3.0625	-46.6875	-13.0	1.0257324	0.16947466	0.11340028
1277137866969	-1.4573772	10.378705	1.3756552	0.7637749	0.0	-1.5625	-47.9375	-11.6875	0.9859378	0.13051209	0.1395078
1277137867009	-0.9125633	9.615966	1.4982382	-0.03197384	0.0	-0.3125	-48.1875	-10.1875	1.0610979	0.15388416	0.09461748
1277137867049	0.6537767	7.164303	2.3699405	-2.232267	0.0	-0.0625	-48.6875	-8.4375	-2.5943058	0.31823313	-0.0910027
1277137867079	-0.6537767	9.615966	1.6480621	-0.028596878	0.0	-1.5625	-48.4375	-6.9375	1.830861	0.16935544	0.06788421
1277137867119	-0.6537767	10.079058	1.6480621	0.42716312	0.0	-3.8125	-47.9375	-5.4375	1.8918895	0.16174519	0.064774126
1277137867149	-0.10896278	9.534244	1.56634	-0.1439848	0.0	-6.375	-47.9375	-4.9375	1.9658248	0.16282073	0.011428073
1277137867189	-0.19068487	9.343558	1.4982382	-0.34181213	0.0	-8.875	-47.6875	-4.6875	1.8562995	0.15896381	0.020405332
1277137867219	-0.42223078	9.425281	1.4573772	-0.26002026	0.0	-10.625	-48.1875	-4.4375	1.7934035	0.15325807	0.04476776
1277137867249	-0.53119355	9.084772	1.56634	-0.57254696	0.0	-11.875	-48.6875	-4.4375	1.8208672	0.17044972	0.058404267
1277137867287	-0.7627395	9.466142	1.4573772	-0.19865513	0.0	-12.875	-49.6875	-3.9375	1.7738342	0.15227155	0.08040184
1277137867329	-0.7218784	9.343558	1.4573772	-0.32260418	0.0	-13.625	-50.4375	-3.9375	1.7781645	0.15427746	0.077106304
1277137867359	-0.84446156	9.302697	1.7978859	-0.2942543	0.0	-14.125	-50.1875	-3.9375	1.8502593	0.19014831	0.09052788
1277137867389	-0.88532263	9.302697	1.920469	-0.26661968	0.0	-13.875	-49.9375	-3.4375	1.9019588	0.20269144	0.09488262
1277137867429	-0.9942854	9.302697	2.070293	-0.2246418	0.0	-14.125	-49.4375	-3.1875	1.9271711	0.2177778	0.106477186
1277137867469	-1.1441092	9.343558	2.1111538	-0.15947247	0.0	-14.125	-49.4375	-2.6875	1.9395791	0.22062184	0.12184244
1277137867499	-1.3756552	9.152874	2.3426998	-0.2590971	0.0	-13.875	-50.1875	-2.4375	1.9848896	0.24790314	0.14918101
1277137867529	-1.6480621	9.152874	2.4516625	-0.1888609	0.0	-14.125	-50.6875	-1.6875	1.9990411	0.25775376	0.17815058
1277137867570	-1.920469	9.152874	2.2201166	-0.19456291	0.0	-14.375	-50.9375	-0.4375	1.9720528	0.2330759	0.20682114
1277137867609	-1.4165162	9.112013	1.6889231	-0.43180275	0.0	-14.875	-50.9375	0.5625	1.9589405	0.18114376	0.15422148
1277137867639	-0.50395286	9.043911	0.8036005	-0.7131319	0.0	-15.9375	-50.4375	2.5625	1.9251003	0.08848611	0.055665325
1277137867679	-0.040861044	8.853226	0.08172209	-0.95295334	0.0	-16.6875	-50.1875	4.0625	1.8321234	0.00923041	0.004615352
1277137867720	0.46309182	9.956474	-0.61291564	0.17941475	0.0	-17.1875	-49.9375	6.0625	1.766287	-0.061415695	-0.04647813
1277137867769	-0.46309182	10.923519	0.7218784	1.150486	0.0	-17.6875	-49.4375	7.8125	2.0786445	0.065929785	0.042368643
1277137867799	-2.3018389	8.894087	0.42223078	-0.60982895	0.0	-17.6875	-49.4375	8.5625	1.9140625	0.045926657	0.2532489
1277137867839	-1.0760075	9.043911	-0.38136974	-0.6909733	0.0	-17.4375	-49.1875	9.3125	1.878404	-0.041848905	0.118419245
1277137867879	0.10896278	9.656827	-0.53119355	-0.13461113	0.0	-16.9375	-48.9375	9.8125	1.979696	-0.054948177	-0.011283019
1277137867921	-0.0	9.915613	-0.27240697	0.11270428	0.0	-16.4375	-48.6875	10.3125	2.0704074	-0.02746562	0.0
1277137867959	0.3405087	9.847511	-0.46309182	0.05762291	0.0	-15.6875	-47.9375	10.8125	2.1171238	-0.046963632	-0.034564376
1277137867989	-0.27240697	9.724928	-0.14982383	-0.07675457	0.0	-15.4375	-47.6875	10.8125	2.1122603	-0.015398907	0.028003883
1277137868029	-0.6537767	9.656827	-0.19068487	-0.12583923	0.0	-15.4375	-47.4375	10.3125	2.0385437	-0.019698475	0.06759783
1277137868059	-0.6946377	9.275456	-0.08172209	-0.5048609	0.0	-15.1875	-47.1875	9.3125	2.0160296	-0.008785744	0.074750334
1277137868090	-0.7627395	9.343558	0.08172209	-0.43165588	0.0	-14.875	-47.9375	8.5625	2.0174325	0.008717138	0.08145204
1277137868129	-0.61291564	9.575105	0.14982383	-0.21077919	0.0	-14.875	-47.6875	8.5625	2.0497162	0.015613998	0.06392416
1277137868159	-0.42223078	9.697687	0.08172209	-0.09943199	0.0	-14.625	-47.4375	8.3125	2.0519683	0.008418792	0.04351185
1277137868189	-0.5720546	9.534244	0.19068487	-0.25335693	0.0	-14.375	-47.9375	8.5625	2.0748682	0.019961447	0.059928156
1277137868229	-0.6946377	9.507003	0.23154591	-0.271492	0.0	-14.625	-47.1875	9.0625	2.0847795	0.024285771	0.0729363
1277137868259	-0.6946377	9.466142	0.23154591	-0.31223202	0.0	-14.625	-47.4375	9.0625	2.0844536	0.02439	0.07325
1277137868299	-0.46309182	9.466142	0.27240697	-0.3252735	0.0	-14.875	-48.1875	8.8125	2.1045125	0.028734695	0.048881896
1277137868329	-0.29964766	9.575105	0.3405087	-0.22080803	0.0	-15.1875	-47.9375	9.0625	2.142955	0.035529517	0.031284243
1277137868369	-0.3405087	9.466142	0.3405087	-0.32826805	0.0	-15.1875	-48.4375	8.3125	2.1057723	0.035932504	0.03595572
1277137868409	-0.61291564	9.534244	0.46309182	-0.24150944	0.0	-15.4375	-48.6875	8.3125	2.0907166	0.048433464	0.06419737
1277137868449	-0.53119355	9.534244	0.46309182	-0.24639797	0.0	-14.375	-48.4375	8.5625	2.1378648	0.048458252	0.055656742
1277137868479	-0.50395286	9.466142	0.46309182	-0.31579876	0.0	-14.125	-48.9375	8.3125	2.1383307	0.04881288	0.0531872
1277137868509	-0.61291564	9.507003	0.46309182	-0.2686615	0.0	-14.125	-49.1875	8.5625	2.1337097	0.048571452	0.06438081
1277137868539	-0.7218784	9.507003	0.5720546	-0.25513363	0.0	-13.875	-49.1875	8.3125	2.1374447	0.05992736	0.07578581
1277137868569	-0.7627395	9.507003	0.61291564	-0.24942589	0.0	-14.625	-48.9375	8.5625	2.1309829	0.06417517	0.080057755
1277137868599	-0.6537767	9.575105	0.6537767	-0.18700981	0.0	-14.875	-48.6875	8.8125	2.155735	0.06801513	0.068173
1277137868639	-0.6946377	9.534244	0.61291564	-0.22750664	0.0	-15.1875	-48.1875	9.3125	2.1537824	0.06402813	0.072728634
1277137868679	-0.61291564	9.507003	0.6537767	-0.25750446	0.0	-14.875	-47.9375	9.5625	2.188968	0.06851802	0.06438081
1277137868709	-0.6946377	9.507003	0.53119355	-0.2595148	0.0	-14.875	-48.1875	9.3125	2.1466434	0.0556678	0.07293629
1277137868739	-0.61291564	9.507003	0.50395286	-0.26659107	0.0	-15.4375	-48.1875	9.3125	2.1379442	0.052849516	0.06438081
1277137868769	-0.5720546	9.466142	0.50395286	-0.30985832	0.0	-15.4375	-48.1875	9.5625	2.1527762	0.053090528	0.060358256
1277137868799	-0.6946377	9.507003	0.42223078	-0.26495743	0.0	-15.9375	-48.6875	9.5625	2.1106353	0.044265594	0.07293629
1277137868831	-0.61291564	9.466142	0.53119355	-0.30582523	0.0	-16.1875	-48.1875	9.3125	2.1251295	0.055939425	0.06465795
1277137868859	-0.61291564	9.466142	0.5720546	-0.30345345	0.0	-15.9375	-48.1875	9.5625	2.147773	0.060232434	0.06465794
1277137868891	-0.7627395	9.575105	0.46309182	-0.1900568	0.0	-16.1875	-48.4375	9.0625	2.0860324	0.048174124	0.07949075
1277137868929	-0.6537767	9.507003	0.53119355	-0.26240158	0.0	-15.9375	-48.1875	9.0625	2.1165457	0.055684656	0.06865981
1277137868981	-0.6946377	9.534244	0.53119355	-0.2323885	0.0	-15.6875	-48.4375	9.5625	2.1363525	0.055509914	0.072728634
1277137869019	-0.5720546	9.507003	0.42223078	-0.27309704	0.0	-15.6875	-47.9375	9.5625	2.131105	0.044303413	0.060099456
1277137869059	-0.61291564	9.466142	0.46309182	-0.3093891	0.0	-15.6875	-47.4375	9.5625	2.1336129	0.048779905	0.06465795
1277137869089	-0.61291564	9.534244	0.46309182	-0.24150944	0.0	-15.9375	-46.9375	9.3125	2.1178107	0.048433464	0.06419737
1277137869129	-0.6946377	9.534244	0.46309182	-0.23592472	0.0	-16.4375	-47.1875	8.8125	2.0782359	0.048405185	0.072728634
1277137869159	-0.7218784	9.534244	0.38136974	-0.2375145	0.0	-16.4375	-47.9375	8.8125	2.0603337	0.039864704	0.0755701
1277137869189	-0.7218784	9.507003	0.313268	-0.26713467	0.0	-16.1875	-48.1875	9.0625	2.06236	0.03284489	0.0757858
1277137869219	-0.7627395	9.507003	0.23154591	-0.2662897	0.0	-16.1875	-48.6875	9.5625	2.0616798	0.024272528	0.08005775
1277137869249	-0.6537767	9.534244	0.23154591	-0.24721336	0.0	-15.9375	-48.1875	9.8125	2.0890825	0.024224078	0.06846426
1277137869289	-0.5720546	9.575105	0.19068487	-0.21257687	0.0	-15.6875	-47.6875	9.3125	2.0761766	0.019876586	0.059673026
1277137869319	-0.42223078	9.615966	0.10896278	-0.18080235	0.0	-15.6875	-47.6875	9.0625	2.06596	0.011320054	0.04388116
1277137869349	-0.3405087	9.534244	0.10896278	-0.26570606	0.0	-15.4375	-47.4375	8.8125	2.070523	0.011420794	0.035699114
1277137869379	-0.42223078	9.507003	0.14982383	-0.28909683	0.0	-15.4375	-47.6875	8.8125	2.0694537	0.015742492	0.044383436
1277137869409	-0.42223078	9.507003	0.23154591	-0.28745937	0.0	-15.4375	-47.4375	9.0625	2.097669	0.024326516	0.04438344
1277137869451	-0.53119355	9.507003	0.27240697	-0.2809229	0.0	-15.1875	-47.4375	8.5625	2.077665	0.028600872	0.05581589
1277137869489	-0.6537767	9.534244	0.38136974	-0.24241161	0.0	-15.4375	-47.6875	8.3125	2.0693438	0.039885126	0.06846426
1277137869529	-0.6537767	9.507003	0.38136974	-0.26956654	0.0	-15.4375	-47.4375	8.3125	2.0693235	0.03999875	0.06865981
1277137869559	-0.6537767	9.507003	0.3405087	-0.2711134	0.0	-15.6875	-47.6875	8.3125	2.0556302	0.035717033	0.06865981
1277137869589	-0.6537767	9.507003	0.23154591	-0.27438164	0.0	-15.6875	-47.9375	8.8125	2.0543385	0.024293134	0.06865981
1277137869629	-0.53119355	9.534244	0.27240697	-0.25373554	0.0	-15.4375	-47.6875	9.0625	2.092793	0.028519453	0.055656742
1277137869669	-0.46309182	9.507003	0.23154591	-0.28555965	0.0	-15.1875	-47.6875	8.8125	2.088052	0.02432166	0.04867213
1277137869699	-0.3405087	9.575105	0.23154591	-0.22269535	0.0	-15.1875	-47.4375	8.5625	2.0924356	0.024162097	0.0355469
1277137869729	-0.3405087	9.534244	0.14982383	-0.26515198	0.0	-15.1875	-47.4375	8.8125	2.0857668	0.015702982	0.03569911
1277137869759	-0.29964766	9.507003	0.14982383	-0.293746	0.0	-15.1875	-47.4375	9.3125	2.1132386	0.015750188	0.031508196
1277137869799	-0.27240697	9.575105	0.10896278	-0.22705173	0.0	-15.1875	-47.6875	10.0625	2.1407588	0.011374707	0.028441831
1277137869829	-0.19068487	9.575105	0.14982383	-0.22847462	0.0	-15.1875	-48.1875	10.3125	2.1714482	0.015642848	0.01991202
1277137869859	-0.27240697	9.575105	0.14982383	-0.22649956	0.0	-15.4375	-47.9375	10.0625	2.1424425	0.015639622	0.028441831
1277137869899	-0.19068487	9.656827	0.27240697	-0.14410019	0.0	-15.4375	-48.4375	9.5625	2.1583014	0.028195774	0.019743554
1277137869939	-0.3405087	9.534244	0.313268	-0.2611866	0.0	-15.9375	-48.1875	9.5625	2.1330383	0.032824416	0.035699114
1277137869975	-0.61291564	9.534244	0.38136974	-0.24511719	0.0	-15.9375	-48.1875	9.5625	2.1330383	0.032824416	0.035699114
1277137870009	-0.8036005	9.425281	0.50395286	-0.3337593	0.0	-16.1875	-48.4375	9.5625	2.1074674	0.053224605	0.08505441
1277137870039	-0.9942854	9.507003	0.53119355	-0.23304749	0.0	-16.6875	-48.1875	9.5625	2.081617	0.05551374	0.1042057
1277137870069	-1.1849703	9.384419	0.53119355	-0.3328104	0.0	-16.6875	-48.1875	9.0625	2.0455434	0.056098927	0.12560523
1277137870099	-1.2258313	9.384419	0.53119355	-0.32761192	0.0	-16.4375	-47.9375	9.3125	2.0551326	0.056068134	0.12988867
1277137870139	-1.0760075	9.466142	0.53119355	-0.26475334	0.0	-16.4375	-47.9375	9.3125	2.0551326	0.056068134	0.12988867
1277137870179	-0.6537767	9.534244	0.46309182	-0.23880386	0.0	-15.9375	-47.4375	9.0625	2.1035964	0.04841976	0.06846425
1277137870209	-0.27240697	9.615966	0.42223078	-0.17756557	0.0	-15.4375	-47.6875	9.5625	2.1765938	0.043863587	0.028321037
1277137870249	-0.14982383	9.615966	0.3405087	-0.1834917	0.0	-14.875	-47.6875	9.5625	2.1944776	0.035391685	0.015579476
1277137870289	-0.19068487	9.534244	0.3405087	-0.26442242	0.0	-14.375	-47.6875	10.0625	2.2247763	0.03569198	0.019997332
1277137870319	-0.29964766	9.575105	0.42223078	-0.2175579	0.0	-15.1875	-48.1875	10.5625	2.2195163	0.044046644	0.031284243
1277137870349	-0.46309182	9.575105	0.42223078	-0.21105957	0.0	-15.1875	-48.1875	9.8125	2.1675918	0.044016797	0.048326496
1277137870379	-0.5720546	9.534244	0.42223078	-0.24593258	0.0	-15.9375	-48.1875	9.5625	2.1251168	0.044177454	0.059928156
1277137870409	-0.61291564	9.534244	0.42223078	-0.24340057	0.0	-15.6875	-48.1875	9.0625	2.1066713	0.04416575	0.06419737
1277137870469	-0.5720546	9.534244	0.42223078	-0.24593258	0.0	-15.1875	-47.4375	9.5625	2.143387	0.044177454	0.059928156
1277137870509	-0.5720546	9.575105	0.313268	-0.20935822	0.0	-14.875	-46.9375	9.8125	2.1406367	0.032647092	0.059673022
1277137870549	-0.46309182	9.534244	0.313268	-0.25602722	0.0	-15.1875	-46.6875	9.5625	2.1362185	0.03280668	0.048533287
1277137870589	-0.38136974	9.575105	0.3405087	-0.217906	0.0	-15.4375	-46.4375	9.3125	2.1350663	0.03551876	0.039808262
1277137870619	-0.38136974	9.575105	0.313268	-0.21883488	0.0	-15.4375	-46.9375	9.0625	2.1194246	0.032679368	0.039808262
1277137870649	-0.3405087	9.534244	0.313268	-0.2611866	0.0	-15.1875	-47.4375	8.8125	2.1208885	0.032824416	0.035699114
1277137870679	-0.42223078	9.534244	0.23154591	-0.2602539	0.0	-15.4375	-47.6875	8.5625	2.0760984	0.024257177	0.0442568
1277137870709	-0.42223078	9.575105	0.14982383	-0.22106934	0.0	-15.1875	-47.9375	8.5625	2.064399	0.015630761	0.044068176
1277137870739	-0.46309182	9.575105	0.14982383	-0.21918297	0.0	-14.875	-47.6875	8.3125	2.055837	0.015627686	0.048326496
1277137870769	-0.53119355	9.575105	0.19068487	-0.21492672	0.0	-15.4375	-47.6875	8.3125	2.0438282	0.019881455	0.05541972
1277137870799	-0.53119355	9.534244	0.23154591	-0.25481415	0.0	-15.6875	-46.9375	8.8125	2.068329	0.02424336	0.055656742
1277137870859	-0.5720546	9.534244	0.313268	-0.25012398	0.0	-15.9375	-46.9375	10.3125	2.1336668	0.032786407	0.059928156
1277137870890	-0.61291564	9.575105	0.3405087	-0.20590878	0.0	-16.1875	-47.1875	10.0625	2.1184108	0.035474356	0.06392416
1277137870929	-0.53119355	9.534244	0.313268	-0.25248337	0.0	-15.9375	-47.6875	10.0625	2.128842	0.032794505	0.055656742
1277137870969	-0.53119355	9.534244	0.27240697	-0.25373554	0.0	-15.9375	-47.9375	9.8125	2.111231	0.028519453	0.055656742
1277137871009	-0.42223078	9.575105	0.14982383	-0.22106934	0.0	-16.1875	-47.9375	9.3125	2.073336	0.015630761	0.044068176
1277137871050	-0.29964766	9.534244	0.10896278	-0.2670765	0.0	-15.9375	-48.1875	10.0625	2.1171067	0.011422434	0.03141823
1277137871129	-0.3405087	9.575105	0.14982383	-0.22432137	0.0	-15.6875	-47.9375	10.3125	2.1371474	0.015636066	0.0355469
1277137871159	-0.3405087	9.534244	0.19068487	-0.26442242	0.0	-15.6875	-47.6875	10.3125	2.1453447	0.019984595	0.03569911
1277137871199	-0.38136974	9.507003	0.19068487	-0.29009056	0.0	-15.6875	-47.4375	9.8125	2.1196194	0.020038506	0.040093116
1277137871234	-0.27240697	9.507003	0.19068487	-0.29383373	0.0	-15.1875	-47.4375	9.5625	2.1365323	0.02004639	0.028645458
1277137871302	-0.27240697	9.575105	0.08172209	-0.22732258	0.0	-15.4375	-47.4375	9.5625	2.106592	0.008531191	0.028441831
1277137871379	-0.38136974	9.507003	0.10896278	-0.29137802	0.0	-15.6875	-47.1875	10.0625	2.1135063	0.011451608	0.040093116
1277137871419	-0.5720546	9.507003	0.19068487	-0.28054333	0.0	-15.9375	-47.1875	10.3125	2.1107585	0.020018421	0.060099456
1277137871450	-0.6537767	9.507003	0.3405087	-0.2711134	0.0	-15.9375	-47.4375	10.5625	2.1381757	0.035717033	0.06865981
1277137871491	-0.5720546	9.534244	0.313268	-0.25012398	0.0	-16.1875	-47.6875	10.0625	2.118032	0.032786407	0.059928156
1277137871529	-0.5720546	9.425281	0.313268	-0.35883045	0.0	-16.1875	-47.6875	10.3125	2.1274443	0.033163782	0.060619283
1277137871559	-0.7218784	9.425281	0.27240697	-0.34984112	0.0	-16.6875	-47.6875	10.0625	2.0825675	0.028809363	0.07644036
1277137871599	-0.7627395	9.466142	0.3405087	-0.3037262	0.0	-16.9375	-47.4375	10.0625	2.085456	0.035839662	0.080401845
1277137871629	-0.7218784	9.575105	0.27240697	-0.20050907	0.0	-16.6875	-47.1875	10.0625	2.0832465	0.028361386	0.07524882
1277137871659	-0.5720546	9.656827	0.14982383	-0.1317339	0.0	-16.4375	-47.4375	10.0625	2.082067	0.01548642	0.059169214
1277137871699	-0.50395286	9.534244	0.10896278	-0.2584753	0.0	-16.6875	-47.1875	10.3125	2.0857544	0.011412145	0.052807998
1277137871739	-0.50395286	9.507003	0.08172209	-0.2859497	0.0	-16.6875	-47.1875	10.8125	2.1000845	0.008583727	0.05295903
1277137871769	-0.42223078	9.466142	-0.0	-0.33109665	0.0	-16.9375	-47.1875	11.5625	2.1169355	-0.0	0.04457477
1277137871799	-0.42223078	9.534244	-0.040861044	-0.26297474	0.0	-16.6875	-46.6875	11.8125	2.125757	-0.004281492	0.044256795
1277137871869	-0.46309182	9.534244	-0.040861044	-0.26107883	0.0	-15.6875	-46.9375	12.625	2.176461	-0.0042806417	0.048533283
1277137871899	-0.42223078	9.534244	-0.040861044	-0.26297474	0.0	-15.4375	-47.1875	12.625	2.1879678	-0.004281492	0.044256795
1277137871939	-0.46309182	9.575105	-0.040861044	-0.22026634	0.0	-15.6875	-47.4375	12.875	2.185383	-0.004262417	0.048326496
1277137871979	-0.46309182	9.534244	-0.08172209	-0.26081657	0.0	-15.1875	-46.9375	12.875	2.19171	-0.008561126	0.048533283
1277137872019	-0.38136974	9.534244	-0.08172209	-0.2644329	0.0	-15.4375	-47.4375	12.625	2.185351	-0.008564371	0.03997869
1277137872049	-0.42223078	9.534244	-0.040861044	-0.26297474	0.0	-15.4375	-46.9375	12.875	2.1977396	-0.004281492	0.044256795
1277137872079	-0.46309182	9.534244	-0.040861044	-0.26107883	0.0	-15.4375	-47.1875	12.875	2.1920674	-0.0042806417	0.048533283
1277137872119	-0.46309182	9.575105	-0.040861044	-0.22026634	0.0	-15.6875	-47.6875	12.875	2.185027	-0.004262417	0.048326496
1277137872149	-0.46309182	9.507003	-0.0	-0.2883749	0.0	-15.6875	-47.1875	13.125	2.201764	-0.0	0.04867213
1277137872179	-0.38136974	9.507003	0.040861044	-0.291914	0.0	-15.9375	-47.1875	12.875	2.2038918	0.004294514	0.04009312
1277137872209	-0.42223078	9.507003	0.040861044	-0.29018784	0.0	-15.6875	-46.9375	12.3125	2.1846342	0.004293735	0.04438344
1277137872239	-0.46309182	9.507003	0.040861044	-0.28828716	0.0	-15.6875	-46.4375	12.3125	2.1799653	0.004292878	0.04867213
1277137872269	-0.50395286	9.507003	0.08172209	-0.2859497	0.0	-15.4375	-46.1875	12.3125	2.1889386	0.008583727	0.05295903
1277137872309	-0.53119355	9.575105	0.040861044	-0.21673489	0.0	-15.4375	-46.6875	12.3125	2.1780632	0.004260848	0.055419717
1277137872349	-0.53119355	9.575105	0.08172209	-0.21647453	0.0	-15.6875	-46.6875	12.875	2.1993058	0.008521542	0.05541972
1277137872379	-0.50395286	9.507003	-0.0	-0.2862997	0.0	-15.9375	-47.1875	12.875	2.1810083	-0.0	0.052959032
1277137872409	-0.53119355	9.507003	-0.0	-0.28481865	0.0	-16.1875	-47.1875	12.625	2.1622965	-0.0	0.05581589
1277137872449	-0.5720546	9.507003	-0.0	-0.28245163	0.0	-16.1875	-46.6875	12.625	2.1581907	-0.0	0.06009946
1277137872489	-0.53119355	9.575105	-0.040861044	-0.21673489	0.0	-15.9375	-46.6875	12.3125	2.1507015	-0.004260848	0.055419717
1277137872529	-0.46309182	9.534244	-0.040861044	-0.26107883	0.0	-15.9375	-46.4375	12.625	2.170713	-0.0042806417	0.048533283
1277137872559	-0.42223078	9.534244	-0.040861044	-0.26297474	0.0	-16.1875	-46.9375	13.125	2.1871414	-0.004281492	0.044256795
1277137872589	-0.38136974	9.507003	-0.0	-0.29200172	0.0	-15.6875	-46.9375	13.375	2.22183	-0.0	0.040093116
1277137872619	-0.42223078	9.534244	-0.0	-0.26306152	0.0	-15.9375	-46.6875	13.625	2.2190626	-0.0	0.044256795
1277137872649	-0.42223078	9.534244	-0.08172209	-0.26271248	0.0	-15.6875	-46.9375	13.875	2.2203045	-0.008562827	0.044256795
1277137872689	-0.38136974	9.507003	-0.040861044	-0.291914	0.0	-15.4375	-46.6875	13.875	2.2398727	-0.004294514	0.04009312
1277137872729	-0.3405087	9.534244	-0.0	-0.26632786	0.0	-15.9375	-46.9375	13.875	2.2383223	-0.0	0.035699114
1277137872789	-0.3405087	9.534244	-0.040861044	-0.26624012	0.0	-16.4375	-47.4375	13.625	2.208417	-0.0042829574	0.03569911
1277137872819	-0.3405087	9.575105	-0.08172209	-0.22514439	0.0	-16.1875	-47.1875	13.875	2.2173898	-0.008529251	0.0355469
1277137872859	-0.3405087	9.575105	-0.040861044	-0.2254057	0.0	-15.6875	-46.6875	13.875	2.2387762	-0.004264704	0.0355469
1277137872889	-0.29964766	9.534244	-0.10896278	-0.2670765	0.0	-15.6875	-47.1875	14.125	2.2405913	-0.011422434	0.03141823
1277137872929	-0.27240697	9.534244	-0.10896278	-0.2678938	0.0	-15.1875	-46.6875	14.125	2.2595618	-0.011423413	0.02856366
1277137872969	-0.23154591	9.615966	-0.14982383	-0.18673038	0.0	-15.1875	-46.6875	13.625	2.24015	-0.015574962	0.024074668
1277137873009	-0.27240697	9.534244	-0.19068487	-0.26661015	0.0	-15.4375	-46.6875	13.875	2.2284527	-0.01998918	0.028563658
1277137873049	-0.29964766	9.507003	-0.14982383	-0.293746	0.0	-15.1875	-46.1875	14.625	2.2669926	-0.015750188	0.031508196
1277137873089	-0.29964766	9.575105	-0.08172209	-0.2265091	0.0	-14.875	-45.9375	14.625	2.2885914	-0.008530467	0.031284243
1277137873129	-0.3405087	9.534244	-0.08172209	-0.26597786	0.0	-14.875	-45.9375	14.875	2.2911274	-0.008565757	0.035699114
1277137873159	-0.3405087	9.534244	-0.0	-0.26632786	0.0	-15.1875	-46.4375	15.375	2.3108907	-0.0	0.035699114
1277137873189	-0.38136974	9.534244	-0.040861044	-0.26469517	0.0	-15.1875	-46.6875	14.625	2.2733293	-0.004282264	0.039978687
1277137873219	-0.42223078	9.507003	-0.0	-0.29027557	0.0	-15.1875	-47.1875	14.875	2.2819345	-0.0	0.04438344
1277137873249	-0.38136974	9.534244	-0.040861044	-0.26469517	0.0	-14.875	-47.4375	15.375	2.306611	-0.004282264	0.039978687
1277137873289	-0.38136974	9.534244	-0.08172209	-0.2644329	0.0	-14.625	-46.9375	14.875	2.2913291	-0.008564371	0.03997869
1277137873369	-0.3405087	9.534244	-0.14982383	-0.26515198	0.0	-15.6875	-46.6875	15.125	2.2636971	-0.015702982	0.03569911
1277137873399	-0.29964766	9.534244	-0.08172209	-0.26734924	0.0	-15.9375	-46.9375	14.875	2.264633	-0.00856699	0.03141823
1277137873429	-0.3405087	9.534244	-0.08172209	-0.26597786	0.0	-15.9375	-47.4375	14.875	2.2584438	-0.008565757	0.035699114
1277137873469	-0.38136974	9.534244	-0.08172209	-0.2644329	0.0	-15.6875	-47.1875	14.625	2.251662	-0.008564371	0.03997869
1277137873509	-0.3405087	9.507003	-0.08172209	-0.2932005	0.0	-15.6875	-46.6875	14.625	2.257706	-0.008590269	0.035801314
1277137873549	-0.3405087	9.534244	-0.10896278	-0.26570606	0.0	-15.9375	-46.4375	14.125	2.229124	-0.011420794	0.035699114
1277137873579	-0.3405087	9.507003	-0.14982383	-0.29237175	0.0	-16.1875	-46.1875	14.375	2.2243683	-0.01574791	0.035801314
1277137873619	-0.3405087	9.534244	-0.14982383	-0.26515198	0.0	-16.1875	-46.1875	14.125	2.21567	-0.015702982	0.03569911
1277137873649	-0.3405087	9.534244	-0.10896278	-0.26570606	0.0	-16.1875	-46.6875	14.125	2.2219703	-0.011420794	0.035699114
1277137873679	-0.29964766	9.534244	-0.14982383	-0.2665224	0.0	-16.4375	-46.6875	14.375	2.2223485	-0.01570524	0.03141823
1277137873719	-0.29964766	9.507003	-0.14982383	-0.293746	0.0	-15.9375	-46.6875	14.375	2.235857	-0.015750188	0.031508196
1277137873749	-0.3405087	9.507003	-0.08172209	-0.2932005	0.0	-15.6875	-46.4375	15.125	2.2750206	-0.008590269	0.035801314
1277137873789	-0.38136974	9.534244	-0.040861044	-0.26469517	0.0	-15.9375	-46.1875	15.375	2.2777286	-0.004282264	0.039978687
1277137873819	-0.3405087	9.507003	-0.08172209	-0.2932005	0.0	-15.6875	-46.1875	15.625	2.2918575	-0.008590269	0.035801314
1277137873889	-0.29964766	9.534244	-0.10896278	-0.2670765	0.0	-16.1875	-46.4375	15.125	2.262217	-0.011422434	0.03141823
1277137873929	-0.3405087	9.507003	-0.10896278	-0.29292774	0.0	-15.9375	-46.4375	14.875	2.2550826	-0.011453474	0.035801314
1277137873969	-0.29964766	9.575105	-0.19068487	-0.22496033	0.0	-15.6875	-46.1875	14.625	2.2460184	-0.019902278	0.031284243
1277137874009	-0.27240697	9.575105	-0.19068487	-0.22577381	0.0	-16.1875	-46.4375	14.625	2.2352161	-0.019903969	0.028441833
1277137874049	-0.3405087	9.534244	-0.10896278	-0.26570606	0.0	-15.9375	-45.9375	14.875	2.2559557	-0.011420794	0.035699114
1277137874079	-0.27240697	9.534244	-0.14982383	-0.2673397	0.0	-16.1875	-46.1875	14.625	2.24223	-0.015706586	0.02856366
1277137874119	-0.29964766	9.507003	-0.19068487	-0.29301453	0.0	-16.4375	-46.4375	14.625	2.2243416	-0.020044666	0.031508196
1277137874149	-0.29964766	9.534244	-0.08172209	-0.26734924	0.0	-15.6875	-46.1875	14.375	2.2553785	-0.00856699	0.03141823
1277137874179	-0.3405087	9.507003	-0.10896278	-0.29292774	0.0	-15.9375	-46.4375	13.875	2.219986	-0.011453474	0.035801314
1277137874209	-0.3405087	9.507003	-0.14982383	-0.29237175	0.0	-15.4375	-46.1875	14.125	2.236202	-0.01574791	0.035801314
1277137874239	-0.38136974	9.534244	-0.08172209	-0.2644329	0.0	-15.4375	-46.1875	14.625	2.260106	-0.008564371	0.03997869
1277137874269	-0.42223078	9.466142	-0.08172209	-0.3307438	0.0	-15.6875	-46.1875	14.625	2.2472038	-0.008624304	0.04457477
1277137874309	-0.42223078	9.534244	-0.040861044	-0.26297474	0.0	-15.6875	-45.9375	14.875	2.2631156	-0.004281492	0.044256795
