#timestamp	accel_x	accel_y	accel_z	accel_mag	temperature	mag_x	mag_y	mag_z	azimuth	pitch	roll
1276880491297	0.0	0.38136974	0.0	-9.425281	0.0	-18.5	18.3125	-50.8125	0.349166	0.0	-0.0
1276880491337	3.1054392	0.38136974	9.234595	-0.056422234	0.0	-18.75	17.5625	-51.0625	1.5309006	1.2441254	-1.4486011
1276880491367	3.1463003	0.313268	9.193735	-0.084402084	0.0	-19.75	17.3125	-51.3125	1.5851122	1.2395532	-1.4715563
1276880491397	3.173541	0.313268	9.302697	0.02745819	0.0	-20.25	17.3125	-51.0625	1.6173831	1.24055	-1.4724027
1276880491427	3.173541	0.27240697	9.193735	-0.07678223	0.0	-20.5	17.0	-51.3125	1.6310625	1.2372836	-1.4851693
1276880491467	3.255263	0.23154591	9.234595	-0.012360573	0.0	-20.9375	17.5625	-50.8125	1.6540362	1.2310975	-1.4997863
1276880491507	3.214402	0.23154591	9.152874	-0.102986336	0.0	-20.9375	17.3125	-50.3125	1.6671956	1.2322515	-1.4988866
1276880491547	3.2961242	0.14982383	9.234595	-2.937317E-4	0.0	-20.9375	17.3125	-50.5625	1.676913	1.2276325	-1.5253731
1276880491577	3.3778462	0.19068487	9.302697	0.092157364	0.0	-20.9375	17.5625	-50.3125	1.6517986	1.2219846	-1.5144045
1276880491617	3.336985	0.14982383	9.234595	0.013516426	0.0	-20.75	17.5625	-50.3125	1.6592451	1.2237179	-1.5259285
1276880491657	3.3778462	0.10896278	9.193735	-0.011422157	0.0	-20.75	17.8125	-50.5625	1.6508158	1.2185303	-1.5385494
1276880491687	3.445948	0.14982383	9.152874	-0.025438309	0.0	-20.9375	17.5625	-50.8125	1.6217855	1.2104102	-1.5273454
1276880491717	3.405087	0.10896278	9.193735	-0.0019950867	0.0	-20.75	17.5625	-51.0625	1.6353542	1.2159238	-1.5388073
1276880491757	3.445948	0.10896278	9.112013	-0.06420612	0.0	-20.75	17.8125	-50.5625	1.6237235	1.2090783	-1.5391864
1276880491797	3.445948	0.08172209	9.152874	-0.026244164	0.0	-20.9375	17.8125	-50.3125	1.6504848	1.2106289	-1.5470854
1276880491837	3.3778462	0.19068487	9.00305	-0.1889	0.0	-21.1875	18.3125	-49.8125	1.6381141	1.2113361	-1.5144045
1276880491877	3.6774938	0.10896278	9.00305	-0.080872536	0.0	-21.6875	18.8125	-48.8125	1.6266006	1.1828542	-1.5411754
1276880491917	3.6774938	0.08172209	9.275456	0.17156315	0.0	-22.4375	18.5625	-49.0625	1.6951581	1.193247	-1.5485778
1276880491947	3.9090397	-0.08172209	9.193735	0.18394756	0.0	-22.9375	18.5625	-48.8125	1.700452	1.1686901	-1.5916992
1276880491987	4.0180025	-0.040861044	8.921328	-0.022167206	0.0	-23.875	18.3125	-48.0	1.6933337	1.1476055	-1.5809655
1276880492017	4.2086873	-0.040861044	8.894087	0.033040047	0.0	-25.375	18.5625	-48.0	1.7100161	1.1287987	-1.5805048
1276880492057	4.5219555	-0.23154591	8.662541	-0.032126427	0.0	-26.375	19.0625	-47.5	1.694771	1.0891569	-1.6219565
1276880492098	4.671779	-0.3405087	8.471856	-0.12606049	0.0	-27.5625	19.8125	-46.75	1.7215079	1.0657218	-1.643554
1276880492145	4.630918	-0.46309182	8.008764	-0.54381275	0.0	-27.8125	20.375	-46.75	1.695334	1.0443784	-1.670465
1276880492187	4.630918	-0.61291564	8.853226	0.20337868	0.0	-27.3125	20.875	-46.5	1.8372313	1.0852832	-1.7023845
1276880492217	4.3312707	-0.42223078	9.152874	0.32810593	0.0	-26.5625	21.125	-46.75	1.8681276	1.1269749	-1.6679735
1276880492248	4.399372	-0.38136974	9.112013	0.31899548	0.0	-25.875	20.875	-47.5	1.7884412	1.1195276	-1.6572675
1276880492297	4.372132	-0.27240697	9.275456	0.4512167	0.0	-25.125	20.875	-48.0	1.7429129	1.1295698	-1.6330212
1276880492337	4.3312707	-0.29964766	9.302697	0.45930672	0.0	-24.375	19.8125	-48.5625	1.7209884	1.1341368	-1.6398686
1276880492377	3.990762	0.19068487	8.921328	-0.031547546	0.0	-23.625	18.8125	-49.0625	1.6041464	1.1497413	-1.523051
1276880492407	3.636633	0.42223078	7.8861814	-1.1120987	0.0	-22.9375	17.3125	-49.8125	1.4643698	1.1361659	-1.455209
1276880492447	3.0237172	1.1441092	8.539958	-0.67523575	0.0	-21.9375	15.0	-50.5625	1.4036413	1.2089037	-1.2090671
1276880492487	2.3699405	1.9477097	9.534244	0.20893764	0.0	-20.9375	13.1875	-51.5625	1.2285784	1.2595105	-0.88288003
1276880492522	2.6832085	2.1111538	9.00305	-0.17796993	0.0	-20.25	11.1875	-52.375	1.1260067	1.2083275	-0.9041549
1276880492557	2.7921712	2.1111538	8.539958	-0.5771284	0.0	-19.75	9.625	-52.625	1.0687561	1.1817919	-0.92340416
1276880492597	2.7921712	2.2609777	8.689782	-0.40342999	0.0	-19.75	8.375	-52.875	1.0489697	1.178748	-0.89013475
1276880492627	2.6832085	2.4925237	8.662541	-0.40176296	0.0	-20.0	7.3125	-53.125	1.0152946	1.1708145	-0.8222236
1276880492657	2.7921712	2.6014864	8.62168	-0.3781128	0.0	-20.25	6.8125	-52.625	1.0024524	1.1540824	-0.82073694
1276880492687	2.6423476	2.5333846	8.430995	-0.6152563	0.0	-20.0	6.3125	-52.625	1.0034548	1.161172	-0.80644774
1276880492717	2.8330324	2.3426998	8.689782	-0.37125778	0.0	-20.0	6.5625	-52.625	1.0521903	1.1705815	-0.8798531
1276880492757	2.9147544	2.2609777	9.084772	-0.0015039444	0.0	-20.25	6.8125	-52.875	1.1053915	1.1850849	-0.9110485
1276880492787	3.1054392	2.0294318	8.730643	-0.32052994	0.0	-20.0	7.3125	-53.375	1.0787108	1.1689996	-0.99195844
1276880492821	3.0237172	1.8387469	8.689782	-0.42389107	0.0	-20.0	8.375	-53.125	1.1317291	1.1840564	-1.0244364
1276880492857	2.982856	1.7297841	8.689782	-0.45775223	0.0	-20.25	9.375	-52.875	1.1769967	1.1930494	-1.0452808
1276880492897	3.1054392	1.7297841	8.539958	-0.5564184	0.0	-20.25	9.875	-52.375	1.1518002	1.1763659	-1.0625813
1276880492937	3.255263	1.3075534	8.62168	-0.49859905	0.0	-20.9375	10.125	-52.125	1.2801529	1.1843666	-1.188848
1276880492967	3.255263	1.2258313	9.302697	0.12509632	0.0	-21.6875	10.375	-52.125	1.4181296	1.212977	-1.2106508
1276880493008	3.255263	1.4165162	8.730643	-0.38182163	0.0	-21.6875	10.875	-51.875	1.3016254	1.1845909	-1.1603631
1276880493047	3.636633	1.1441092	9.00305	-0.029687881	0.0	-21.6875	12.1875	-51.3125	1.3366091	1.1702375	-1.2659932
1276880493087	3.568531	1.2666923	9.275456	0.21198368	0.0	-21.6875	12.9375	-51.3125	1.3444271	1.1832006	-1.2297081
1276880493127	2.9556155	1.3075534	9.193735	-0.06138897	0.0	-21.4375	13.9375	-51.0625	1.3970736	1.2327541	-1.1542836
1276880493180	2.8738933	1.0351465	8.771504	-0.51848125	0.0	-21.1875	15.0	-51.3125	1.4377031	1.2356856	-1.2250729
1276880493217	2.5606253	0.46309182	8.771504	-0.65730286	0.0	-20.9375	15.25	-51.875	1.6980515	1.2824056	-1.3918792
1276880493257	2.1111538	0.50395286	8.499097	-1.0347872	0.0	-20.0	16.5	-51.5625	1.6852223	1.3207641	-1.3364718
1276880493297	1.1441092	0.46309182	8.962189	-0.7598686	0.0	-18.75	16.75	-52.125	1.7411269	1.4339372	-1.1861917
1276880493337	0.95342433	0.23154591	7.9270425	-1.8191204	0.0	-17.5625	17.0	-52.125	1.8778746	1.4476513	-1.3325516
1276880493597	1.334794	2.4516625	8.349273	-1.003089	0.0	-15.5625	17.3125	-52.625	0.73970526	1.2481424	-0.4985679
1276880493637	0.7627395	2.7240696	9.152874	-0.22659683	0.0	-14.875	13.9375	-53.625	0.6295099	1.2710434	-0.2730087
1276880493667	0.7627395	3.568531	8.117727	-0.9064436	0.0	-13.875	11.4375	-54.375	0.49097297	1.1483362	-0.21057197
1276880493717	-0.14982383	1.4165162	8.580819	-1.108408	0.0	-12.625	8.625	-55.1875	0.55446905	1.4062965	0.105377436
1276880493787	-1.9477097	2.2201166	10.038197	0.6569958	0.0	-10.6875	4.5	-55.1875	0.19550039	1.2846555	0.7201315
1276880493857	-1.56634	4.1814466	9.997335	1.1425333	0.0	-7.5	2.5	-55.1875	0.22346438	1.1507419	0.35841364
1276880493887	-1.4982382	6.701211	9.043911	1.5486689	0.0	-3.875	-0.5625	-54.625	0.116825394	0.92139685	0.21995981
1276880493917	-2.4925237	4.9850473	9.384419	1.1080513	0.0	-0.4375	-3.375	-54.375	0.074869975	1.0348705	0.4636476
1276880493947	-3.7864566	3.990762	8.19945	0.06727505	0.0	2.75	-4.375	-54.125	0.03914833	0.979851	0.7591345
1276880493977	-4.944186	3.8273177	6.2789803	-0.94555855	0.0	6.1875	-4.375	-53.375	-0.0101548685	0.78751385	0.91204584
1276880494007	-4.630918	3.8273177	8.62168	0.7017813	0.0	8.375	-3.625	-53.375	-0.10852184	0.9622039	0.8801219
1276880494041	-4.0588636	4.0588636	9.384419	1.1940813	0.0	10.5625	-2.375	-53.625	-0.27942485	1.0218452	0.7853982
1276880494078	-2.982856	2.7921712	11.032481	1.9580984	0.0	11.5625	-1.0625	-53.125	-0.6261445	1.2161156	0.81840503
1276880494122	-5.175732	0.313268	10.147159	1.5885754	0.0	12.0625	0.6875	-52.875	-0.10540199	1.098387	1.5103438
1276880494157	-7.4639506	1.334794	8.689782	1.7261095	0.0	12.75	2.5	-52.125	-0.18499376	0.8533495	1.3938348
1276880494197	-8.19945	2.7921712	8.117727	2.06452	0.0	14.0	3.25	-51.5625	-0.2536491	0.7529834	1.2425815
1276880494239	-7.3141265	1.56634	8.117727	1.2317991	0.0	15.0	4.25	-51.875	-0.2837705	0.82626367	1.3598301
1276880494277	-6.1700177	0.08172209	8.008764	0.30354786	0.0	16.4375	4.5	-51.5625	-0.24970019	0.91431904	1.5575521
1276880494307	-6.1700177	0.27240697	7.164303	-0.3477621	0.0	17.4375	4.8125	-51.0625	-0.2680278	0.8593447	1.5266749
1276880494337	-6.469665	0.6537767	7.0553403	-0.21176529	0.0	18.375	5.3125	-50.3125	-0.32675603	0.82614326	1.4700856
1276880494367	-6.701211	0.6946377	7.164303	0.027778625	0.0	19.875	5.0625	-50.0625	-0.33618227	0.8161181	1.4675066
1276880494397	-6.932757	0.6537767	7.3141265	0.29221058	0.0	20.125	4.8125	-49.8125	-0.31994346	0.80994993	1.4767718
1276880494427	-7.205164	0.92618364	7.3141265	0.502018	0.0	20.625	4.25	-50.0625	-0.31301343	0.7888058	1.442953
1276880494460	-7.246025	1.1441092	7.082581	0.3902521	0.0	20.8125	3.75	-49.8125	-0.30647546	0.7678382	1.4141945
1276880494497	-7.246025	1.2258313	7.014479	0.35260487	0.0	20.625	2.5	-49.0625	-0.26526055	0.76211387	1.4032102
1276880494537	-7.5456724	1.6889231	6.742072	0.45225716	0.0	21.0625	1.4375	-49.0625	-0.24830717	0.71708715	1.3505989
1276880494567	-8.008764	2.1111538	6.4424243	0.68630505	0.0	21.8125	0.4375	-48.25	-0.23307474	0.6610882	1.3130541
1276880494601	-8.240311	2.6014864	6.0201936	0.7248821	0.0	22.3125	-1.0625	-47.75	-0.20945597	0.6084972	1.2649965
1276880494637	-8.880466	2.9556155	5.7477865	1.1767645	0.0	23.5625	-2.375	-46.75	-0.18482915	0.5507366	1.249506
1276880494678	-9.615966	2.9556155	5.5162406	1.6664219	0.0	25.0	-4.125	-45.75	-0.12072662	0.50156564	1.272596
1276880494707	-9.493382	2.5606253	5.09401	1.2671947	0.0	26.4375	-6.6875	-44.4375	-0.015905572	0.47799936	1.3073386
1276880494747	-10.038197	2.3699405	4.5219555	1.4552364	0.0	27.1875	-9.75	-42.4375	0.118023925	0.41318393	1.3389496
1276880494787	-9.575105	1.8387469	4.440233	0.9068594	0.0	28.4375	-12.5625	-40.375	0.2807182	0.42734033	1.3810718
1276880494817	-8.499097	2.9556155	2.8738933	-0.36050892	0.0	29.125	-15.375	-37.8125	0.18753274	0.30914044	1.2361217
1276880494857	-8.008764	2.6014864	2.7921712	-0.9351082	0.0	29.875	-16.875	-35.75	0.28417325	0.32017586	1.2567183
1276880494897	-7.205164	1.7297841	2.3426998	-2.035242	0.0	30.875	-18.1875	-34.25	0.43876994	0.30621424	1.3351798
1276880494938	-6.891896	2.7649305	1.7570249	-2.1757784	0.0	31.375	-19.1875	-33.0	0.25228465	0.23233682	1.1892681
1276880494977	-8.008764	3.173541	1.920469	-0.98055935	0.0	31.375	-19.6875	-32.4375	0.27686208	0.21934462	1.1935195
1276880495017	-8.771504	4.8216033	2.4108016	0.48893738	0.0	31.375	-21.0	-31.9375	0.14681832	0.23635314	1.0681915
1276880495057	-7.6954966	4.0588636	2.1111538	-0.8538847	0.0	31.375	-21.75	-31.4375	0.20974031	0.23805225	1.0854435
1276880495097	-8.117727	4.6036777	1.0351465	-0.4171419	0.0	30.875	-21.5	-31.6875	0.12617157	0.11046956	1.0549088
1276880495137	-8.662541	5.434519	0.92618364	0.46133137	0.0	31.625	-22.0	-31.1875	0.06621693	0.0903239	1.0105028
1276880495177	-7.082581	4.399372	1.0351465	-1.4049273	0.0	31.875	-22.25	-30.4375	0.08170382	0.12352031	1.0149676
1276880495217	-7.43671	5.6660647	0.61291564	-0.4373064	0.0	31.875	-22.75	-29.9375	-0.04469487	0.065463886	0.9197196
1276880495257	-9.80665	5.407278	1.2666923	1.4633789	0.0	31.375	-24.8125	-29.375	0.2597624	0.11263276	1.0668874
1276880495297	-9.152874	1.9885708	1.7978859	-0.26925468	0.0	29.875	-26.3125	-28.875	0.7264201	0.18964382	1.3568592
1276880495338	-7.5865335	2.3018389	1.5390993	-1.730588	0.0	28.9375	-27.125	-29.125	0.67764974	0.19174832	1.276213
1276880495377	-9.193735	6.851035	1.7570249	1.7928581	0.0	28.1875	-27.125	-29.9375	0.20406583	0.15205939	0.93038386
1276880495417	-8.240311	6.6331096	2.1111538	0.98027897	0.0	27.6875	-26.875	-30.1875	0.16043115	0.19698556	0.8930391
1276880495447	-6.2108784	6.2108784	1.7978859	-0.8410263	0.0	27.4375	-26.3125	-30.9375	-0.03504882	0.20189995	0.7853982
1276880495507	-4.2495484	3.5957718	1.7978859	-3.95681	0.0	26.0	-27.375	-31.4375	0.21962662	0.31239575	0.8685394
1276880495547	-11.413852	7.7363577	2.982856	4.3009605	0.0	23.75	-28.875	-31.9375	0.42079607	0.2130439	0.97512263
1276880495587	-5.706926	6.932757	2.1111538	-0.5822754	0.0	21.8125	-29.9375	-33.25	0.09119739	0.2309135	0.6887178
1276880495627	-6.1700177	6.3607025	2.152015	-0.6875038	0.0	19.375	-31.1875	-34.0	0.30764362	0.23823583	0.77018195
1276880495668	-6.3198414	5.706926	2.2609777	-0.9963484	0.0	17.6875	-31.4375	-35.0	0.4296281	0.25953263	0.8363167
1276880495707	-6.742072	5.434519	3.255263	-0.55536556	0.0	16.6875	-31.6875	-35.25	0.5852066	0.35956967	0.89237076
1276880495747	-6.6331096	4.3312707	3.8273177	-1.0085592	0.0	15.9375	-31.4375	-35.25	0.7618728	0.45005697	0.99233085
1276880495787	-5.6660647	7.246025	3.5276701	0.044929504	0.0	16.4375	-30.4375	-36.3125	0.26127404	0.36621252	0.66364056
1276880495827	-6.742072	6.742072	3.5957718	0.38357258	0.0	17.4375	-28.125	-37.3125	0.31059477	0.3606312	0.7853982
1276880495867	-7.43671	3.173541	3.8273177	-0.8610153	0.0	18.875	-26.625	-38.0625	0.6492149	0.4421038	1.1674529
1276880495907	-8.689782	2.8738933	2.9147544	-0.20105934	0.0	20.375	-25.0625	-38.0625	0.5557992	0.30830452	1.2513987
1276880495947	-8.19945	2.9147544	4.671779	0.07020664	0.0	20.8125	-23.8125	-38.3125	0.641503	0.49269563	1.2292464
1276880495987	-7.1234417	4.671779	5.8567495	0.5311661	0.0	21.0625	-23.5625	-39.0625	0.5009203	0.6022966	0.9903324
1276880496027	-7.9679036	3.6774938	5.175732	0.38156128	0.0	20.8125	-22.0	-40.875	0.49344158	0.532875	1.1383885
1276880496067	-7.5456724	4.862464	5.47538	0.70812607	0.0	19.875	-20.75	-43.4375	0.28807664	0.54770815	0.99836487
1276880496107	-5.8976107	8.771504	5.5162406	2.1160173	0.0	18.375	-19.1875	-46.25	-0.15595806	0.48100266	0.5919339
1276880496147	-5.7886477	4.5628166	6.701211	0.15497398	0.0	15.6875	-17.9375	-48.5625	0.21360213	0.7378554	0.90327024
1276880496187	-5.284695	4.372132	7.5456724	0.39044285	0.0	12.0625	-17.6875	-50.3125	0.3087417	0.83304465	0.87961763
1276880496227	-5.597963	4.862464	8.894087	1.7728806	0.0	7.875	-17.4375	-51.3125	0.38919002	0.8758483	0.8555952
1276880496267	-2.4925237	2.2201166	5.938472	-2.994379	0.0	4.0	-17.4375	-51.5625	0.69010615	1.0587251	0.84313744
1276880496297	-4.0180025	3.0237172	8.499097	0.068665504	0.0	0.8125	-17.9375	-51.5625	0.7006372	1.0365262	0.9256701
1276880496337	-4.5628166	3.759216	8.349273	0.42376328	0.0	-0.9375	-17.4375	-51.875	0.57856417	0.95466936	0.8816627
1276880496377	-3.445948	3.0645783	6.973618	-1.4461746	0.0	-1.875	-17.125	-52.625	0.5959976	0.9865308	0.84390867
1276880496418	-4.372132	2.6423476	7.5456724	-0.69431114	0.0	-1.875	-17.4375	-52.625	0.5973759	0.9756598	1.0271761
1276880496457	-4.7535014	4.671779	7.4639506	0.19994068	0.0	-2.125	-17.4375	-52.375	0.4777373	0.8418903	0.7940685
1276880496497	-2.6832085	4.399372	6.4015636	-1.5887365	0.0	-2.625	-18.4375	-51.875	0.50676656	0.8930323	0.54767233
1276880496537	-4.099725	4.9850473	6.5513873	-0.6099596	0.0	-2.875	-19.9375	-51.0625	0.51717764	0.79286027	0.68825364
1276880496567	-2.4516625	6.973618	5.7477865	-0.4429407	0.0	-3.125	-21.75	-49.8125	0.3555653	0.66091126	0.3380661
1276880496607	-1.525479	6.973618	4.862464	-1.1694059	0.0	-2.875	-24.0625	-48.8125	0.28187782	0.59796864	0.2153577
1276880496637	-2.6014864	4.0588636	9.234595	0.61063576	0.0	-2.375	-27.375	-46.5	1.4388988	1.0896575	0.5699795
1276880496667	-9.384419	3.214402	9.302697	3.7926102	0.0	-2.125	-29.9375	-43.9375	0.82520664	0.7533129	1.2407959
1276880496707	-7.504812	4.4810944	7.6273947	1.7941933	0.0	-2.125	-31.1875	-43.4375	0.87196916	0.7174777	1.0325147
1276880496747	-1.525479	4.2495484	7.014479	-1.4646683	0.0	-2.375	-30.9375	-43.1875	1.6050448	0.99887913	0.34464732
1276880496787	-3.9771416	8.539958	6.238119	1.4921408	0.0	-3.125	-29.375	-43.9375	0.5918802	0.5848868	0.4358411
1276880496817	-4.2904096	1.879608	6.1700177	-2.06006	0.0	-3.625	-28.875	-44.6875	0.9386393	0.92145425	1.1578864
1276880496847	-3.8681788	6.3198414	4.440233	-1.1684284	0.0	-3.875	-29.625	-43.6875	0.63406456	0.53986675	0.5492465
1276880496887	-4.2495484	6.0882955	4.0180025	-1.3644733	0.0	-4.125	-31.6875	-41.875	0.6992952	0.49603698	0.6093734
1276880496927	-3.5957718	4.5219555	3.636633	-2.980029	0.0	-4.3125	-34.0	-40.125	0.8579707	0.56180364	0.6717954
1276880496967	-3.9499009	7.6954966	2.3699405	-0.8378706	0.0	-3.875	-35.75	-38.0625	0.6020701	0.2674193	0.47421062
1276880497007	-4.7943625	6.932757	3.255263	-0.7708454	0.0	-2.625	-37.0625	-36.0625	0.7863229	0.36854944	0.6050337
1276880497047	-4.7535014	7.273266	3.405087	-0.4744053	0.0	-0.1875	-39.0625	-33.25	0.84600127	0.3734967	0.57887244
1276880497087	-5.47538	10.147159	3.1463003	2.1450787	0.0	2.25	-40.375	-30.4375	0.716825	0.26639017	0.49482146
1276880497127	-5.134871	10.691973	2.6423476	2.3451881	0.0	4.1875	-40.875	-28.375	0.62511575	0.2191953	0.44772702
1276880497167	-5.243834	10.228881	2.3018389	1.9162445	0.0	4.6875	-41.875	-27.375	0.66339403	0.19763827	0.47371617
1276880497207	-3.7864566	9.234595	1.7570249	0.3275566	0.0	4.1875	-41.375	-27.125	0.53823614	0.17425622	0.3891225
1276880497247	-3.3642259	7.9679036	1.0760075	-1.0909576	0.0	3.5	-41.125	-27.625	0.51499236	0.123772115	0.39951548
1276880497287	-2.6014864	8.076866	1.2258313	-1.233077	0.0	2.5	-40.875	-28.875	0.41718292	0.14346956	0.3115986
1276880497317	-3.1054392	8.240311	2.0294318	-0.76977825	0.0	2.25	-39.875	-30.9375	0.50575984	0.22650418	0.3603999
1276880497357	-4.3312707	8.308413	3.5957718	0.22924519	0.0	2.5	-38.5625	-33.0	0.7104641	0.3664368	0.48055103
1276880497397	-5.053149	9.384419	4.4810944	1.7554369	0.0	3.75	-37.0625	-34.75	0.6518796	0.39799187	0.49394137
1276880497437	-5.134871	8.894087	4.5219555	1.4147472	0.0	6.1875	-36.0625	-35.5	0.59662664	0.4147664	0.5235876
1276880497477	-5.012288	6.5513873	4.399372	-0.4579506	0.0	7.875	-35.75	-35.5	0.7776427	0.4899554	0.65307814
1276880497517	-4.1814466	7.7363577	4.399372	0.026467323	0.0	8.625	-35.5	-36.0625	0.5143293	0.46386003	0.4955148
1276880497557	-4.7535014	8.049625	5.2165933	0.89872646	0.0	8.625	-35.25	-36.3125	0.6175004	0.5089805	0.5334231
1276880497597	-5.7886477	7.8589406	5.134871	1.2223253	0.0	7.625	-34.25	-37.0625	0.67090666	0.4842899	0.63484937
1276880497637	-2.8738933	6.0474343	6.782933	-0.27570534	0.0	6.1875	-32.6875	-38.5625	1.1101292	0.79187936	0.4436321
1276880497677	-3.2961242	7.3549876	5.9793324	0.22892094	0.0	5.4375	-31.1875	-40.375	0.503555	0.63827866	0.42131284
1276880497717	-2.9147544	7.3549876	6.891896	0.6857214	0.0	3.5	-31.1875	-41.625	0.62173367	0.7166311	0.37730944
1276880497757	-1.3075534	7.6954966	6.6331096	0.43681145	0.0	0.8125	-32.4375	-40.625	0.42775813	0.70435923	0.16830415
1276880497797	-0.88532263	6.4424243	8.240311	0.6905565	0.0	-2.125	-34.25	-38.0625	1.9667542	0.90269667	0.13656536
1276880497837	-0.46309182	4.0180025	7.1234417	-1.615056	0.0	-5.5625	-36.5625	-36.0625	2.508202	1.0543995	0.11474794
1276880497877	-1.1168685	5.175732	6.469665	-1.446497	0.0	-8.5	-38.0625	-34.0	1.9158063	0.88492775	0.21253061
1276880497917	-2.3426998	5.597963	5.7477865	-1.4482727	0.0	-10.1875	-39.625	-32.1875	1.5328712	0.75827175	0.39634496
1276880497957	-3.2961242	4.440233	5.284695	-2.1575909	0.0	-9.25	-40.875	-30.6875	1.4667574	0.7627259	0.6385751
1276880497997	-4.7535014	3.718355	3.1463003	-3.0006862	0.0	-6.0625	-42.125	-28.375	1.1762606	0.48057124	0.90698195
1276880498037	-7.1234417	4.140586	1.6889231	-1.3959227	0.0	-1.375	-42.6875	-27.125	1.0314441	0.20218043	1.0442687
1276880498067	-6.851035	5.597963	7.014479	1.4839115	0.0	3.25	-42.9375	-27.375	1.474638	0.67036146	0.88571674
1276880498107	-5.6660647	7.504812	5.366417	1.0203953	0.0	6.6875	-42.6875	-27.875	1.3151826	0.5185822	0.6466876
1276880498147	-6.851035	13.252599	11.114203	8.79694	0.0	7.875	-41.875	-28.875	1.6708374	0.64028317	0.47712168
1276880498187	-9.234595	14.9006605	11.727119	11.284409	0.0	9.375	-41.375	-29.9375	1.386154	0.58959365	0.5548108
1276880498227	-9.656827	14.137921	11.645397	10.899639	0.0	12.3125	-38.3125	-31.1875	1.2275643	0.59729606	0.59925544
1276880498267	-7.43671	11.304889	6.0882955	5.031561	0.0	16.6875	-33.25	-33.25	0.27831662	0.42279613	0.58186084
1276880498307	-2.2609777	6.8237944	4.671779	-1.2333364	0.0	24.0	-24.5625	-34.0	-0.9106142	0.57629496	0.31995308
1276880498347	3.6774938	4.8216033	3.0645783	-3.0122805	0.0	30.875	-11.3125	-33.75	-0.73840016	0.46793783	-0.6515872
1276880498387	6.701211	4.9850473	1.56634	-1.3089828	0.0	32.0625	4.5	-33.5	-0.3863945	0.18538594	-0.9312091
1276880498427	8.921328	2.1792557	0.3405087	-0.6167002	0.0	26.6875	19.8125	-33.75	0.35475627	0.037060775	-1.3312132
1276880498468	12.789507	-1.6889231	4.5628166	3.8770351	0.0	16.4375	30.3125	-36.8125	0.69255555	0.33996	-1.702092
1276880498507	6.2108784	2.4516625	17.052675	8.506716	0.0	7.375	33.625	-41.375	0.7140048	1.1975816	-1.1948354
1276880498547	0.040861044	-0.53119355	13.988097	4.1915894	0.0	1.5	31.5625	-46.25	3.0099235	1.5327269	-3.0648208
1276880498577	1.0760075	-0.8036005	10.269742	0.5505295	0.0	0.5625	27.5	-49.8125	1.9690007	1.4407645	-2.212269
1276880498607	3.255263	-0.9125633	12.830367	3.4616508	0.0	2.25	23.9375	-51.5625	1.2078146	1.3131562	-1.8441154
1276880498647	1.9885708	-0.61291564	12.176591	2.546465	0.0	2.25	22.625	-52.375	1.3770123	1.4015393	-1.8697765
1276880498677	1.1168685	-0.5720546	11.073342	1.3375654	0.0	2.5	21.625	-52.375	1.6533672	1.4579562	-2.0441523
1276880498717	1.3075534	-0.9125633	9.234595	-0.43540573	0.0	2.5	21.625	-52.125	1.6388718	1.399815	-2.1801226
1276880498747	1.0351465	-1.0351465	8.689782	-0.99442196	0.0	2.25	21.375	-51.875	1.846043	1.4038992	-2.3561945
1276880498777	0.7627395	-1.1849703	9.466142	-0.23618698	0.0	2.75	21.375	-51.875	2.128926	1.4230111	-2.5696745
1276880498817	0.27240697	-1.2666923	9.697687	-0.02279377	0.0	3.0	21.875	-51.5625	2.6402714	1.4379791	-2.929765
1276880498857	-0.08172209	-1.0760075	9.997335	0.24875546	0.0	3.75	21.625	-51.875	3.0122225	1.4632733	3.0657887
1276880498887	0.38136974	-1.4573772	9.724928	0.03426552	0.0	4.6875	21.875	-51.875	2.434974	1.4171115	-2.8856494
1276880498922	0.92618364	-1.6480621	8.730643	-0.8736744	0.0	5.1875	22.375	-51.0625	1.9277073	1.3575543	-2.6295958
1276880498957	1.1849703	-1.4165162	8.62168	-0.9893913	0.0	6.4375	22.625	-51.0625	1.6851578	1.3597806	-2.4449658
1276880498997	0.6946377	-1.2666923	10.732834	1.022974	0.0	6.9375	22.625	-50.8125	2.0847669	1.4369988	-2.6399887
1276880499037	-0.19068487	-1.1849703	10.882658	1.1419916	0.0	6.6875	22.625	-50.8125	2.9731538	1.4609532	2.982041
1276880499067	-0.42223078	-1.7570249	9.656827	0.017795563	0.0	7.375	22.625	-51.0625	3.00709	1.3858091	2.9057546
1276880499107	-0.29964766	-2.070293	9.534244	-0.045619965	0.0	7.875	22.375	-50.8125	2.7719162	1.3548129	2.997854
1276880499147	-0.27240697	-2.1383946	9.615966	0.047979355	0.0	8.375	22.375	-51.3125	2.695735	1.3502659	3.0148866
1276880499177	-0.19068487	-1.8387469	10.18802	0.5477257	0.0	9.125	22.125	-50.8125	2.6755652	1.3913001	3.0382583
1276880499207	0.19068487	-1.56634	10.269742	0.58360386	0.0	9.125	22.125	-50.8125	2.6755652	1.3913001	3.0382583
1276880499247	0.5720546	-1.6480621	9.534244	-0.114118576	0.0	8.875	22.125	-50.8125	2.0712001	1.3898237	-2.807497
1276880499287	0.08172209	-1.8387469	9.534244	-0.09637356	0.0	8.875	21.875	-50.5625	2.433364	1.3800944	-3.0971775
1276880499317	-0.040861044	-2.3699405	9.575105	0.05747223	0.0	9.625	22.125	-50.8125	2.3659706	1.3281276	3.124353
1276880499357	-0.14982383	-2.8330324	9.193735	-0.1851492	0.0	10.0625	21.625	-50.8125	2.1758838	1.2714878	3.0887573
1276880499397	-0.88532263	-2.2609777	9.112013	-0.37666607	0.0	10.5625	20.875	-50.8125	2.9097354	1.310372	2.7683778
1276880499427	-0.95342433	-1.2666923	10.337844	0.6520567	0.0	11.0625	20.875	-50.5625	-2.9048295	1.4186219	2.4963734
1276880499457	-0.23154591	-1.3756552	11.182305	1.4623337	0.0	10.5625	20.0625	-51.0625	2.7015693	1.4466865	2.9748387
1276880499497	0.23154591	-0.61291564	11.454713	1.6667852	0.0	10.0625	19.0625	-51.3125	2.1822662	1.5136607	-2.7803888
1276880499537	-0.14982383	-1.2666923	10.923519	1.1910868	0.0	9.8125	18.8125	-51.3125	2.6402876	1.4545543	3.02386
1276880499583	-0.7627395	-1.2666923	10.528529	0.8251982	0.0	9.8125	18.0625	-51.0625	-3.0728378	1.431271	2.5995934
1276880499617	-0.7627395	-1.7570249	9.615966	-0.0017681122	0.0	9.8125	18.3125	-50.5625	2.9791796	1.3741761	2.7320323
1276880499657	-0.46309182	-2.1383946	9.575105	0.015254974	0.0	10.3125	19.0625	-50.5625	2.5515747	1.3461478	2.9283254
1276880499687	-0.61291564	-1.6480621	9.724928	0.07596111	0.0	9.8125	20.375	-50.8125	2.9832315	1.3919207	2.7855418
1276880499717	-0.8036005	-1.4982382	9.915613	0.25366116	0.0	8.875	21.625	-50.5625	-2.976108	1.4009868	2.649279
1276880499757	-0.42223078	-1.3075534	10.079058	0.36563492	0.0	7.875	22.625	-50.5625	3.1095653	1.4353054	2.8292463
1276880499787	1.2258313	-1.607201	9.80665	0.2061491	0.0	5.9375	24.1875	-50.0625	1.8329647	1.367525	-2.4900055
1276880499827	2.4516625	-2.2201166	9.302697	0.06653309	0.0	4.6875	24.9375	-49.8125	1.3795013	1.2291927	-2.3066723
1276880499867	2.3699405	-2.7921712	8.853226	-0.22581291	0.0	3.25	25.6875	-50.0625	1.4158528	1.1785574	-2.437807
1276880499907	0.84446156	-2.7513103	8.62168	-0.7173052	0.0	2.5	26.4375	-49.5625	2.2126572	1.2486182	-2.8437896
1276880499937	0.27240697	-2.1792557	9.193735	-0.3542366	0.0	2.5	26.75	-50.0625	2.7459579	1.3363093	-3.0172377
1276880499967	0.88532263	-1.879608	10.18802	0.59106445	0.0	2.5	27.5	-49.5625	2.336114	1.369622	-2.7014012
1276880500007	1.6480621	-1.9477097	11.75436	2.221428	0.0	3.25	27.75	-50.0625	1.945743	1.3570516	-2.4393358
1276880500047	1.1441092	-2.6014864	11.141444	1.6915455	0.0	4.0	28.0	-49.5625	2.2067459	1.3210422	-2.7272613
1276880500077	0.08172209	-3.1054392	9.575105	0.25978184	0.0	5.1875	28.5	-48.5625	2.681705	1.2570744	-3.115283
1276880500117	-0.88532263	-3.2961242	8.62168	-0.5340233	0.0	6.1875	28.75	-48.25	-2.9876266	1.1938667	2.8791907
1276880500157	-1.4573772	-3.3642259	8.921328	-0.16133785	0.0	7.125	29.5	-47.25	-2.650277	1.1808758	2.7327986
1276880500197	-0.6946377	-3.445948	9.507003	0.3294325	0.0	7.625	29.8125	-47.25	3.014956	1.2166319	2.9426773
1276880500237	-0.040861044	-3.336985	9.193735	-0.025959969	0.0	7.625	29.8125	-47.0	2.6001997	1.2225964	3.1293483
1276880500277	-0.29964766	-2.8738933	8.962189	-0.39018154	0.0	7.875	29.5	-47.5	2.8157556	1.2589115	3.0377026
1276880500307	-0.14982383	-2.6423476	9.80665	0.35085106	0.0	7.875	28.75	-47.75	2.7635977	1.307199	3.0849524
1276880500347	-0.040861044	-2.6014864	10.079058	0.60280704	0.0	7.875	28.0	-48.25	2.6858659	1.3181715	3.1258872
1276880500387	0.14982383	-1.8387469	9.997335	0.35947704	0.0	7.375	26.75	-49.0625	2.6240256	1.3883162	-3.0602908
1276880500427	0.23154591	-1.525479	10.038197	0.3494358	0.0	7.125	25.6875	-49.0625	2.5603662	1.4182822	-2.9909568
1276880500467	-0.0	-1.7297841	9.724928	0.07091904	0.0	6.9375	24.9375	-49.3125	2.7305503	1.3947662	3.1415927
1276880500507	-0.50395286	-1.7570249	9.765789	0.12872791	0.0	7.125	24.6875	-49.5625	3.1389666	1.3857666	2.8622694
1276880500547	-1.0760075	-1.1168685	10.079058	0.39102554	0.0	7.625	24.9375	-49.5625	-2.4886386	1.4181237	2.374826
1276880500577	-0.46309182	-1.0351465	9.997335	0.25479603	0.0	7.375	24.9375	-50.0625	-2.970431	1.4578477	2.7209294
1276880500607	-0.27240697	-1.6480621	9.80665	0.1412487	0.0	7.625	25.1875	-49.5625	2.947777	1.4020802	2.9777844
1276880500647	-0.8036005	-1.8387469	9.765789	0.16317463	0.0	7.875	25.1875	-49.3125	-2.9615407	1.3681365	2.7295709
1276880500687	-1.0351465	-2.3699405	9.234595	-0.2167654	0.0	7.375	24.9375	-49.3125	-2.869459	1.2977415	2.7297852
1276880500717	-0.61291564	-3.0645783	8.921328	-0.3537464	0.0	7.625	25.1875	-48.8125	2.8541536	1.2338415	2.9441972
1276880500757	-0.53119355	-3.1463003	8.894087	-0.35751534	0.0	7.875	25.1875	-49.3125	2.7197382	1.2263407	2.9743388
1276880500797	-0.42223078	-2.9556155	9.152874	-0.17913532	0.0	7.875	25.4375	-49.3125	2.7333598	1.2554837	2.9996955
1276880500827	0.5720546	-2.5333846	9.765789	0.29859257	0.0	7.875	25.4375	-49.0625	2.201161	1.3108672	-2.9195108
1276880500867	1.56634	-1.7978859	10.378705	0.84245014	0.0	8.125	24.9375	-49.3125	1.6630249	1.3449664	-2.424912
1276880500907	1.2258313	-1.4982382	10.691973	1.0591526	0.0	7.375	24.6875	-49.5625	1.8175755	1.3916833	-2.4558632
1276880500947	0.38136974	-1.920469	9.847511	0.23362446	0.0	6.6875	24.1875	-49.8125	2.398914	1.3745273	-2.9455614
1276880500977	0.08172209	-2.070293	9.575105	-0.009944916	0.0	6.4375	24.1875	-50.0625	2.6177323	1.3576971	-3.1021395
1276880501017	-0.040861044	-1.6889231	9.724928	0.06393051	0.0	5.4375	24.1875	-50.3125	2.8353522	1.3987923	3.1174037
1276880501057	0.19068487	-1.607201	10.119919	0.4418726	0.0	5.4375	24.4375	-50.5625	2.646844	1.4122099	-3.0235007
1276880501087	0.27240697	-1.334794	10.228881	0.5125494	0.0	5.4375	24.1875	-50.8125	2.5672119	1.4383935	-2.9402754
1276880501127	0.10896278	-1.3756552	10.119919	0.40692234	0.0	5.6875	24.1875	-50.8125	2.7128196	1.4352709	-3.0625498
1276880501157	0.040861044	-1.7570249	9.765789	0.11602306	0.0	5.9375	24.4375	-50.5625	2.7313144	1.3927373	-3.118341
1276880501197	-0.3405087	-1.6889231	9.466142	-0.1849947	0.0	5.9375	24.1875	-50.0625	3.0746665	1.3907593	2.9426467
1276880501237	-0.7218784	-1.7978859	9.888372	0.26972866	0.0	5.9375	24.4375	-49.8125	-2.9040136	1.3773206	2.759781
1276880501277	-0.7218784	-1.607201	10.147159	0.4923315	0.0	6.4375	24.1875	-49.8125	-2.8916337	1.3988783	2.7194438
1276880501307	-0.53119355	-1.525479	10.228881	0.54898834	0.0	6.4375	23.9375	-49.8125	-3.0343618	1.4141728	2.8065095
1276880501337	-0.19068487	-1.607201	10.119919	0.4418726	0.0	6.6875	24.1875	-50.0625	2.9169223	1.4122099	3.0235007
1276880501367	-0.0	-1.6480621	9.847511	0.17781734	0.0	6.9375	24.1875	-50.3125	2.7219763	1.404975	3.1415927
1276880501407	-0.0	-1.7297841	9.615966	-0.036340714	0.0	6.6875	24.6875	-50.5625	2.7306178	1.3928133	3.1415927
1276880501447	0.040861044	-1.7978859	9.534244	-0.104286194	0.0	6.9375	24.4375	-50.5625	2.6642072	1.3843664	-3.1188693
1276880501487	-0.08172209	-1.7297841	9.656827	0.0042181015	0.0	6.6875	24.1875	-50.5625	2.791465	1.3933573	3.0943837
1276880501527	0.040861044	-1.607201	9.534244	-0.13780499	0.0	6.1875	24.1875	-50.8125	2.7218702	1.4037417	-3.1161745
1276880501557	-0.27240697	-1.4165162	9.724928	0.02467537	0.0	6.1875	23.6875	-50.3125	3.04638	1.4235423	2.9516044
1276880501587	-0.3405087	-1.607201	9.956474	0.28445625	0.0	6.1875	24.1875	-50.5625	3.0781894	1.4072639	2.9328156
1276880501628	-0.19068487	-1.525479	9.724928	0.039043427	0.0	6.4375	23.9375	-50.3125	2.9360044	1.4140097	3.0172377
1276880501667	-0.50395286	-1.334794	9.888372	0.18412304	0.0	6.1875	24.1875	-50.3125	-2.9843528	1.4274987	2.7805874
1276880501697	-0.5720546	-1.3756552	9.997335	0.3010893	0.0	5.9375	24.4375	-50.8125	-2.9170988	1.4228598	2.7475047
1276880501727	-0.3405087	-1.4573772	9.656827	-0.03453636	0.0	5.9375	24.1875	-50.5625	3.1250696	1.417038	2.9120653
1276880501767	0.040861044	-1.7570249	9.275456	-0.36615753	0.0	5.1875	24.6875	-51.0625	2.7663927	1.3835375	-3.118341
1276880501807	-0.0	-1.7297841	9.193735	-0.45160198	0.0	5.4375	24.6875	-51.0625	2.789943	1.384822	3.1415927
1276880501847	-1.1849703	-1.7978859	9.193735	-0.36412334	0.0	5.1875	24.1875	-51.0625	-2.4479256	1.3407332	2.5588531
1276880501887	-1.9885708	-1.56634	8.62168	-0.8210392	0.0	4.9375	24.1875	-51.0625	-1.7986203	1.2852167	2.2379744
1276880501927	-1.1168685	-1.6480621	8.812365	-0.77220154	0.0	5.1875	24.1875	-50.8125	-2.448716	1.3486104	2.546
1276880501957	-0.08172209	-1.607201	8.349273	-1.3037014	0.0	5.1875	23.6875	-50.5625	2.8632143	1.3803865	3.0907888
1276880501987	-0.10896278	-1.4573772	8.008764	-1.6656351	0.0	4.9375	24.1875	-50.5625	2.9366746	1.3903018	3.066965
1276880502027	-0.040861044	-1.1441092	8.730643	-1.0012665	0.0	4.9375	23.6875	-50.8125	2.906083	1.4404116	3.1058936
1276880502057	-0.040861044	-0.61291564	10.119919	0.33189487	0.0	5.1875	22.625	-51.0625	2.958125	1.5101713	3.0750244
1276880502087	-0.040861044	-0.46309182	10.18802	0.39197063	0.0	5.4375	21.875	-51.5625	2.9677517	1.5251962	3.0535853
1276880502127	0.46309182	-0.50395286	10.228881	0.4451027	0.0	5.6875	20.875	-52.125	1.983447	1.5039856	-2.398423
1276880502167	0.9942854	-0.29964766	10.378705	0.6238775	0.0	5.9375	19.8125	-52.625	1.3241465	1.4710715	-1.8635094
1276880502197	0.7627395	-0.5720546	10.419566	0.6564455	0.0	6.1875	18.8125	-53.125	1.6489974	1.4795469	-2.2142975
1276880502237	0.88532263	-0.8036005	9.534244	-0.19772816	0.0	6.1875	18.0625	-52.875	1.6232384	1.4460416	-2.307845
1276880502277	0.6537767	-0.10896278	10.119919	0.33495045	0.0	6.6875	17.0	-52.875	1.185381	1.505395	-1.735945
1276880502307	-0.10896278	0.50395286	11.536434	1.7412996	0.0	6.6875	16.0	-53.125	-0.5389959	1.5261343	0.21293837
1276880502337	-0.19068487	0.53119355	11.727119	1.934042	0.0	6.4375	15.0	-52.875	-0.6555	1.5227078	0.3446473
1276880502377	-0.88532263	1.1849703	11.223166	1.5135717	0.0	6.4375	13.6875	-53.125	-0.7618731	1.4397548	0.6416595
1276880502417	-1.6889231	1.5390993	11.917805	2.3282318	0.0	6.4375	12.1875	-53.875	-0.77834123	1.381364	0.83177835
1276880502457	-1.525479	2.1792557	11.604536	2.098874	0.0	6.6875	10.875	-54.375	-0.60078007	1.345458	0.61072594
1276880502497	-1.2666923	2.2201166	11.264028	1.7437496	0.0	6.6875	10.375	-54.625	-0.5554273	1.3476533	0.5184852
1276880502537	-0.95342433	1.4573772	9.80665	0.15343761	0.0	7.125	10.875	-54.625	-0.6821442	1.3950411	0.57932603
1276880502567	-0.7627395	1.1168685	8.308413	-1.3888779	0.0	7.375	12.1875	-54.375	-0.7272956	1.4094286	0.59917533
1276880502597	-0.38136974	0.7218784	8.240311	-1.5259943	0.0	7.625	13.4375	-53.875	-0.7639103	1.4720424	0.48603195
1276880502637	-0.42223078	0.6537767	9.043911	-0.72931385	0.0	8.375	14.5	-53.875	-0.88364524	1.4849533	0.57344055
1276880502667	-0.88532263	0.7627395	9.724928	-0.011763573	0.0	8.875	14.25	-53.875	-1.0743318	1.4512063	0.8596416
1276880502697	-0.95342433	0.6946377	9.575105	-0.15915489	0.0	8.875	14.25	-53.375	-1.1380152	1.448216	0.94115114
1276880502727	-0.9125633	0.313268	9.043911	-0.7114191	0.0	9.375	15.0	-53.125	-1.4746797	1.4645151	1.2401174
1276880502757	-0.8036005	-0.19068487	8.962189	-0.8064861	0.0	9.625	15.25	-52.625	-2.1360583	1.4789009	1.8037755
1276880502787	-0.7627395	-0.3405087	9.302697	-0.466527	0.0	9.625	15.75	-52.625	-2.3554256	1.4812456	1.9906763
1276880502817	-0.9125633	-0.29964766	9.765789	0.006259918	0.0	10.3125	16.25	-52.375	-2.2401247	1.4727578	1.8880626
1276880502857	-0.88532263	-0.08172209	9.724928	-0.041165352	0.0	10.5625	16.0	-52.625	-2.0164688	1.4796267	1.6628432
1276880502897	-0.29964766	0.08172209	9.724928	-0.07676315	0.0	10.5625	16.25	-52.625	-1.7961836	1.5388676	1.3045443
1276880502937	-0.08172209	0.040861044	10.038197	0.2319622	0.0	10.5625	17.0	-52.375	-1.6393317	1.5616875	1.1071488
1276880502967	-0.46309182	0.27240697	9.656827	-0.13488865	0.0	10.5625	17.5625	-52.125	-1.4399798	1.5152162	1.0390723
1276880502997	-0.50395286	0.08172209	9.152874	-0.6395483	0.0	10.5625	18.3125	-51.3125	-1.8006678	1.5150747	1.4100336
1276880503037	-0.3405087	-0.19068487	8.662541	-1.1353216	0.0	11.0625	18.8125	-51.0625	-2.5539656	1.5257739	2.0812848
1276880503077	-1.2258313	-0.14982383	8.730643	-0.9890976	0.0	12.0625	19.0625	-50.8125	-1.9535387	1.4302784	1.6924154
1276880503117	-2.1383946	-0.040861044	8.962189	-0.59278965	0.0	13.0	18.3125	-50.8125	-1.6364771	1.3365326	1.5899023
1276880503157	-2.1792557	-0.040861044	9.915613	0.3456993	0.0	14.25	16.75	-50.8125	-1.7691766	1.3544189	1.5895442
1276880503187	-2.2609777	0.27240697	10.147159	0.59291935	0.0	15.25	15.5	-51.3125	-1.6708168	1.3500243	1.4508923
1276880503217	-2.1111538	0.6537767	10.61025	1.0313301	0.0	15.6875	13.1875	-51.875	-1.5866388	1.3654372	1.2704849
1276880503257	-2.3018389	1.1168685	10.691973	1.1871729	0.0	15.9375	11.6875	-52.375	-1.389349	1.3359222	1.119053
1276880503297	-2.2201166	0.84446156	10.378705	0.840394	0.0	16.1875	10.625	-52.625	-1.527861	1.3458085	1.2073277
1276880503327	-2.1383946	0.53119355	10.119919	0.5503597	0.0	16.1875	9.125	-52.125	-1.7348225	1.3564147	1.3273169
1276880503367	-2.0294318	0.42223078	9.765789	0.17671108	0.0	15.9375	8.875	-51.875	-1.795177	1.3616403	1.365669
1276880503407	-1.525479	0.61291564	9.956474	0.28463936	0.0	15.9375	8.875	-51.875	-1.795177	1.3616403	1.365669
1276880503447	-1.4982382	0.8036005	10.310603	0.6431837	0.0	15.6875	8.875	-52.625	-1.6323749	1.407374	1.0784827
1276880503487	-1.6480621	0.7627395	10.18802	0.541955	0.0	15.4375	9.625	-52.625	-1.6087428	1.3943996	1.1373409
1276880503527	-1.920469	0.5720546	10.228881	0.616663	0.0	15.6875	10.375	-52.375	-1.6935105	1.3773443	1.2812927
1276880503567	-1.6889231	0.50395286	9.615966	-0.030493736	0.0	15.4375	11.1875	-51.875	-1.7055478	1.389519	1.2808199
1276880503597	-0.88532263	-0.08172209	9.234595	-0.5293541	0.0	15.4375	12.6875	-50.5625	-2.3737895	1.474815	1.6628432
1276880503637	-0.6946377	-0.29964766	9.343558	-0.4325161	0.0	15.9375	14.5	-50.3125	-2.7347867	1.4900062	1.9780521
1276880503667	-1.525479	0.10896278	8.894087	-0.782032	0.0	15.9375	15.75	-49.5625	-1.921473	1.4005089	1.4994888
1276880503697	-1.7570249	0.0	8.853226	-0.78075695	0.0	16.4375	17.0	-49.0625	-1.939703	1.3748803	1.5707964
1276880503727	-1.7297841	-0.10896278	9.043911	-0.5981569	0.0	16.6875	17.8125	-49.0625	-2.0276332	1.3814481	1.6337054
1276880503757	-1.7297841	-0.14982383	9.615966	-0.035191536	0.0	15.9375	17.5625	-49.0625	-2.0510817	1.3921608	1.6571949
1276880503787	-1.9885708	-0.10896278	9.997335	0.38712215	0.0	15.9375	17.3125	-49.3125	-1.9688194	1.3741624	1.6255361
1276880503827	-1.879608	0.08172209	9.888372	0.2591095	0.0	15.4375	16.75	-49.5625	-1.8596823	1.3827813	1.5273454
1276880503867	-1.525479	0.10896278	9.343558	-0.33875465	0.0	15.0	15.75	-50.0625	-1.8913885	1.4085536	1.4994888
1276880503897	-1.334794	-0.08172209	9.765789	0.050275803	0.0	15.4375	14.5	-50.3125	-2.1739175	1.4347061	1.6319445
1276880503927	-1.3075534	-0.14982383	10.147159	0.42550373	0.0	15.25	13.6875	-50.5625	-2.2744837	1.4418141	1.6848822
1276880503967	-1.4982382	-0.040861044	10.147159	0.45060158	0.0	15.25	12.6875	-51.3125	-2.144388	1.424151	1.5980623
1276880503997	-1.6480621	0.040861044	9.956474	0.28538418	0.0	14.75	12.1875	-51.5625	-2.0054657	1.4067075	1.546008
1276880504037	-1.56634	-0.27240697	10.228881	0.5450468	0.0	14.25	12.4375	-51.5625	-2.258437	1.4166027	1.7429872
1276880504077	-1.7570249	-0.29964766	10.56939	0.91197586	0.0	13.5	12.4375	-51.875	-2.151664	1.4037306	1.7397138
1276880504107	-1.8387469	-0.50395286	10.528529	0.8931112	0.0	12.75	13.1875	-51.0625	-2.1733837	1.391653	1.8383015
1276880504147	-1.607201	-0.8036005	10.038197	0.39110756	0.0	13.0	14.5	-51.0625	-2.4606392	1.3936654	2.0344439
1276880504177	-1.1441092	-1.1849703	10.079058	0.40611362	0.0	13.25	16.0	-50.8125	-3.0131779	1.4088039	2.3737366
1276880504217	-1.0351465	-1.3756552	9.697687	0.042669296	0.0	13.0	18.0625	-50.5625	-3.1054375	1.3950987	2.4965093
1276880504257	-1.1441092	-1.8387469	9.425281	-0.13577175	0.0	12.75	20.0625	-50.0625	3.122657	1.3449477	2.5849934
1276880504297	-0.84446156	-1.879608	8.962189	-0.6106262	0.0	12.0625	22.125	-48.8125	2.9996693	1.3448035	2.7193415
1276880504327	-0.10896278	-2.1111538	9.193735	-0.37300777	0.0	11.0625	23.6875	-48.0	2.4888747	1.3447896	3.0900254
1276880504367	-0.19068487	-2.0294318	9.043911	-0.53587437	0.0	10.8125	24.6875	-47.5	2.6142764	1.3491147	3.047908
1276880504407	-0.46309182	-1.6889231	8.921328	-0.71506023	0.0	10.5625	24.6875	-48.0	2.9278939	1.3769602	2.8739762
1276880504447	-0.8036005	-1.2258313	10.079058	0.3784294	0.0	10.5625	23.6875	-48.5625	-2.9189663	1.4263828	2.561322
1276880504487	-1.2258313	-0.8036005	11.372991	1.6604052	0.0	11.0625	21.875	-50.3125	-2.4456499	1.4426224	2.151067
1276880504527	-1.7570249	-0.7218784	11.182305	1.5358448	0.0	11.5625	19.5625	-51.3125	-2.1661456	1.4025327	1.9606234
1276880504557	-1.6889231	-0.7218784	10.079058	0.43839645	0.0	12.0625	18.3125	-52.125	-2.191394	1.3905421	1.9747144
1276880504597	-1.1168685	-0.7627395	9.888372	0.17378426	0.0	12.75	17.5625	-52.375	-2.634007	1.4348665	2.1699717
1276880504637	-0.9942854	-0.8036005	10.038197	0.31262684	0.0	12.0625	17.5625	-51.5625	-2.7252734	1.444122	2.2505288
1276880504667	-0.9125633	-0.88532263	10.269742	0.5414982	0.0	11.3125	18.8125	-51.3125	-2.7773147	1.4476184	2.3410442
1276880504697	-0.7627395	-0.9125633	10.147159	0.4099722	0.0	11.0625	19.0625	-50.8125	-2.9073148	1.4541188	2.445388
1276880504737	-0.61291564	-0.88532263	9.888372	0.14017677	0.0	10.3125	19.8125	-50.5625	-2.974135	1.4623299	2.536048
1276880504767	-0.42223078	-1.0351465	9.724928	-0.0176754	0.0	10.5625	20.375	-50.5625	3.019071	1.4563421	2.7542992
1276880504808	-0.5720546	-1.2666923	9.997335	0.28683662	0.0	11.0625	20.625	-50.8125	3.0431533	1.432657	2.7173982
1276880504847	-0.6537767	-1.2666923	9.724928	0.022192955	0.0	10.8125	21.625	-50.8125	-3.1228678	1.4252547	2.6651251
1276880504887	-0.29964766	-1.3756552	9.234595	-0.46534634	0.0	10.5625	21.875	-51.3125	2.7936444	1.4195012	2.927121
1276880504917	-0.10896278	-1.4982382	9.534244	-0.15479088	0.0	10.3125	22.375	-51.3125	2.6119642	1.4145236	3.068993
1276880504957	-0.29964766	-1.4982382	9.80665	0.118312836	0.0	9.8125	22.625	-51.0625	2.8275166	1.4162356	2.9441972
1276880504987	-0.7627395	-1.334794	9.915613	0.2274332	0.0	9.8125	22.625	-51.0625	2.8275166	1.4162356	2.9441972
1276880505017	-0.7218784	-1.2666923	10.119919	0.4177513	0.0	9.625	22.625	-50.5625	-2.9757087	1.4277134	2.6236053
1276880505057	-0.6946377	-1.1441092	10.269742	0.5499468	0.0	9.8125	22.125	-50.5625	-2.9642615	1.4411955	2.5959377
1276880505087	-0.7627395	-1.1849703	10.119919	0.41091728	0.0	10.3125	21.875	-50.8125	-2.9545178	1.4324334	2.5696745
1276880505127	-0.8036005	-1.1849703	9.847511	0.1444006	0.0	10.3125	21.625	-51.0625	-2.9213617	1.4264154	2.5456746
1276880505157	-1.0760075	-1.2666923	9.847511	0.18013	0.0	10.5625	21.375	-51.3125	-2.7561724	1.403597	2.4374108
1276880505187	-0.9942854	-1.2666923	9.765789	0.09101391	0.0	10.0625	21.625	-51.875	-2.7822654	1.4073733	2.4760983
1276880505217	-0.84446156	-1.2258313	9.507003	-0.18381882	0.0	9.8125	21.875	-51.875	-2.86538	1.4154836	2.5383627
1276880505257	-0.8036005	-1.1849703	9.575105	-0.1250925	0.0	9.8125	21.375	-52.125	-2.8924587	1.4223669	2.5456746
1276880505297	-1.0351465	-1.2258313	10.119919	0.4396639	0.0	9.8125	21.125	-52.375	-2.7285438	1.4135634	2.4403327
1276880505327	-1.0351465	-1.1168685	10.337844	0.64274883	0.0	10.3125	20.875	-51.5625	-2.714691	1.4245442	2.394151
1276880505357	-1.1441092	-1.0760075	10.310603	0.6228905	0.0	10.3125	20.0625	-51.3125	-2.6248972	1.4196298	2.3255293
1276880505397	-0.88532263	-1.0760075	10.147159	0.43573284	0.0	10.5625	20.375	-51.5625	-2.8367724	1.4343296	2.4531121
1276880505437	-0.7627395	-1.1441092	9.80665	0.09593201	0.0	10.5625	20.625	-51.5625	-2.9735858	1.4314889	2.55359
1276880505474	-0.46309182	-1.4982382	9.534244	-0.14430141	0.0	10.3125	21.125	-52.125	2.8966713	1.4077772	2.8418167
1276880505507	0.19068487	-1.607201	9.193735	-0.4715433	0.0	10.5625	21.375	-52.375	2.254507	1.3965411	-3.0235007
1276880505547	0.19068487	-1.4573772	9.697687	0.0017871857	0.0	10.0625	21.625	-51.3125	2.33369	1.4203793	-3.0114906
1276880505587	-0.42223078	-1.334794	10.651112	0.93607426	0.0	10.5625	22.125	-51.875	2.947797	1.4401057	2.8352256
1276880505627	-0.53119355	-1.4165162	9.765789	0.07562256	0.0	11.0625	22.375	-51.875	2.9920156	1.417106	2.782822
1276880505657	0.040861044	-1.3075534	9.466142	-0.2505417	0.0	10.8125	22.625	-51.875	2.4857988	1.4334693	-3.1103528
1276880505687	-0.040861044	-1.1849703	10.147159	0.40954494	0.0	11.3125	22.125	-52.375	2.5666409	1.4544762	3.1071236
1276880505717	-0.46309182	-1.1849703	10.691973	0.9607496	0.0	11.0625	21.375	-51.875	2.9995039	1.452362	2.7690384
1276880505747	-1.2258313	-1.1441092	10.079058	0.4109354	0.0	10.8125	21.125	-51.875	-2.6031187	1.4059416	2.3217254
1276880505777	-1.7297841	-1.3075534	9.302697	-0.2545805	0.0	11.5625	21.125	-51.5625	-2.3461888	1.3417939	2.2180662
1276880505807	-1.607201	-1.4165162	8.853226	-0.69790554	0.0	12.0625	21.375	-51.5625	-2.482515	1.3333759	2.2932148
1276880505837	-1.2666923	-1.3075534	9.466142	-0.16704178	0.0	12.5	21.625	-51.3125	-2.7352312	1.3807992	2.3720663
1276880505877	-1.4573772	-1.2258313	10.18802	0.5578251	0.0	12.3125	21.125	-51.3125	-2.5834968	1.3860068	2.2701132
1276880505917	-2.0294318	-1.0351465	10.460427	0.8989868	0.0	12.0625	20.625	-51.3125	-2.1663826	1.3563541	2.0424652
1276880505957	-2.070293	-0.9125633	10.923519	1.3487139	0.0	12.0625	20.0625	-50.8125	-2.1290562	1.3665626	1.9859644
1276880505997	-1.6480621	-1.1849703	10.460427	0.8489027	0.0	11.5625	19.8125	-50.8125	-2.4328883	1.3791286	2.194166
1276880506027	-1.1168685	-1.4165162	9.234595	-0.39752388	0.0	12.0625	19.8125	-50.8125	-2.927573	1.3778882	2.473927
1276880506057	-0.84446156	-1.607201	8.853226	-0.7691822	0.0	11.8125	20.625	-50.8125	3.0755599	1.3685286	2.6578135
1276880506097	-0.38136974	-1.7570249	9.112013	-0.51895046	0.0	11.0625	21.125	-50.8125	2.6798282	1.3759836	2.9278538
1276880506137	0.19068487	-1.6889231	9.234595	-0.4169445	0.0	11.3125	21.625	-50.5625	2.2365103	1.3887806	-3.0291655
1276880506170	0.313268	-1.6889231	9.384419	-0.26631832	0.0	11.0625	21.875	-50.3125	2.1681678	1.3897595	-2.958193
1276880506207	-0.08172209	-1.56634	9.847511	0.16498852	0.0	11.0625	21.375	-50.5625	2.5140963	1.4128474	3.089466
1276880506247	-0.38136974	-1.3756552	10.651112	0.9397001	0.0	11.5625	21.375	-50.8125	2.827602	1.4375631	2.8711565
1276880506287	-0.61291564	-1.2666923	10.923519	1.2071342	0.0	11.5625	20.875	-51.875	3.0643666	1.4426804	2.6909313
1276880506327	-0.46309182	-1.2258313	10.528529	0.80311203	0.0	11.8125	21.125	-51.875	2.937806	1.4469719	2.7803888
1276880506357	-0.7627395	-1.1441092	10.18802	0.47374344	0.0	12.0625	20.625	-51.3125	-3.0580838	1.4366401	2.55359
1276880506397	-1.525479	-1.0351465	10.310603	0.6674681	0.0	12.0625	20.375	-51.3125	-2.444904	1.3938662	2.1669955
1276880506437	-2.3018389	-0.95342433	10.147159	0.64190483	0.0	12.3125	20.375	-50.3125	-2.0095341	1.3300247	1.9634849
1276880506477	-3.1054392	-0.9125633	9.956474	0.66272926	0.0	12.75	20.0625	-50.0625	-1.6685596	1.2564834	1.8566103
1276880506507	-3.5276701	-0.7218784	10.147159	0.9604473	0.0	13.25	20.875	-50.0625	-1.5390862	1.2298027	1.7726429
1276880506547	-3.255263	-0.6946377	9.997335	0.73023605	0.0	13.5	21.625	-49.5625	-1.6335555	1.2493964	1.7810323
1276880506577	-1.879608	-0.61291564	9.234595	-0.36279774	0.0	14.0	22.625	-49.5625	-2.0760944	1.3598919	1.886011
1276880506617	-1.4982382	-0.46309182	9.193735	-0.4801321	0.0	14.5	23.125	-49.3125	-2.1673727	1.4018521	1.8705724
1276880506690	0.3405087	-0.23154591	14.369467	4.568715	0.0	14.5	22.875	-49.0625	1.5510967	1.5421486	-2.167973
1276880506727	-0.27240697	-0.42223078	16.467001	6.6680145	0.0	14.5	23.9375	-48.5625	-3.1116612	1.5402923	2.5686264
1276880506757	-0.3405087	-3.8681788	10.800936	1.6711092	0.0	14.0	25.9375	-46.75	2.2618065	1.225667	3.0537908
1276880506787	0.9942854	-6.0201936	7.246025	-0.3337307	0.0	13.25	29.0	-44.9375	1.1156573	0.87091714	-2.977912
1276880506817	2.3699405	-5.6660647	5.7477865	-1.3948755	0.0	12.5	33.125	-42.125	1.0743304	0.7522763	-2.745437
1276880506857	0.53119355	-4.8216033	2.9147544	-4.1475143	0.0	13.0	36.6875	-39.375	0.82330436	0.5410694	-3.0318656
1276880506897	-1.1849703	-4.4810944	-0.29964766	-5.1618524	0.0	13.25	38.9375	-36.5625	0.072834596	-0.06455736	2.8830724
1276880506937	-2.070293	-4.630918	1.607201	-4.4855027	0.0	14.0	40.0	-34.75	-0.1722577	0.3068322	2.7211874
1276880506977	-2.8738933	-5.202973	4.5219555	-2.3381648	0.0	15.9375	40.0	-34.25	-1.3178605	0.6503583	2.6369424
1276880507007	-3.3642259	-5.7477865	6.0474343	-0.81073284	0.0	16.9375	38.6875	-34.25	-2.0939522	0.73723316	2.612046
1276880507037	-2.8738933	-6.1700177	7.6954966	0.46705627	0.0	18.625	37.1875	-35.25	2.9909859	0.8466235	2.7056909
1276880507067	-2.3018389	-6.5513873	10.079058	2.4328985	0.0	19.375	36.1875	-35.5	2.6991355	0.9675228	2.8037145
1276880507107	-1.9477097	-6.932757	11.454713	3.7235804	0.0	19.375	35.375	-36.0625	2.5684237	1.0095669	2.8677096
1276880507147	-0.88532263	-6.932757	9.80665	2.2356625	0.0	19.375	34.875	-36.3125	2.1218138	0.95160735	3.0145788
1276880507187	-2.4925237	-6.66035	8.662541	1.4010506	0.0	19.125	34.875	-36.8125	2.4639425	0.8834142	2.7834945
1276880507217	-3.5957718	-6.428804	7.504812	0.7091141	0.0	19.375	34.875	-36.8125	-3.0989347	0.7947271	2.6316206
1276880507257	-3.486809	-6.0474343	6.5922484	-0.20524216	0.0	19.375	35.125	-36.5625	-2.4692655	0.75679094	2.6185744
1276880507297	-1.8387469	-5.243834	8.499097	0.3478279	0.0	19.375	35.125	-37.0625	2.6626377	0.99174136	2.8043394
1276880507337	-1.4165162	-5.012288	9.152874	0.72447777	0.0	18.875	35.125	-37.3125	2.6313095	1.0534319	2.8661666
1276880507367	-0.88532263	-5.202973	8.076866	-0.15830898	0.0	18.625	34.875	-38.3125	2.26616	0.99200577	2.9730499
1276880507407	-1.0760075	-5.053149	7.6273947	-0.5941982	0.0	18.625	35.125	-38.3125	2.3214781	0.9754317	2.9317882
1276880507447	-1.7297841	-4.8216033	8.962189	0.516181	0.0	18.625	35.125	-38.0625	2.7862043	1.051545	2.797138
1276880507487	-1.6889231	-4.7126403	9.112013	0.58999443	0.0	18.875	34.875	-38.3125	2.7807527	1.0684139	2.7974706
1276880507527	-1.2666923	-4.7943625	8.008764	-0.38695145	0.0	18.875	34.125	-38.5625	2.464167	1.0163926	2.8832903
1276880507557	-1.7570249	-4.7535014	7.164303	-1.0311079	0.0	18.875	33.375	-38.8125	2.5157502	0.95513946	2.7875404
1276880507587	-2.2201166	-4.630918	7.43671	-0.76900864	0.0	18.875	33.375	-39.0625	2.869247	0.9664251	2.694551
1276880507627	-2.5333846	-4.4810944	8.240311	-0.090634346	0.0	18.625	33.375	-39.375	-3.1232445	1.0124197	2.627041
1276880507657	-1.9885708	-4.1814466	9.697687	0.9397001	0.0	18.375	33.375	-39.875	3.0104773	1.1253461	2.6976793
1276880507687	-1.1168685	-3.9771416	10.119919	1.1239405	0.0	17.6875	33.375	-41.125	2.7358222	1.183238	2.867822
1276880507717	-0.61291564	-3.6774938	10.337844	1.1829195	0.0	16.6875	32.5625	-42.4375	2.598453	1.2246759	2.976444
1276880507747	-0.61291564	-3.6774938	10.800936	1.619628	0.0	16.4375	31.8125	-43.1875	2.5967739	1.2384259	2.976444
1276880507777	-0.95342433	-3.6774938	9.956474	0.850008	0.0	15.6875	31.8125	-43.4375	2.7401206	1.2062795	2.8879185
1276880507807	-0.88532263	-3.7864566	8.921328	-0.0746851	0.0	15.6875	31.3125	-43.6875	2.607313	1.1597508	2.911906
1276880507837	-0.88532263	-3.9771416	8.853226	-0.060827255	0.0	15.6875	31.3125	-43.4375	2.5513372	1.1394707	2.9225612
1276880507877	-1.1849703	-3.9090397	9.112013	0.17901611	0.0	15.25	30.8125	-43.1875	2.7389467	1.149377	2.8472614
1276880507917	-1.607201	-3.759216	9.615966	0.64234924	0.0	15.6875	30.5625	-43.1875	2.9784322	1.168786	2.7375758
1276880507957	-1.2666923	-3.636633	9.507003	0.45067406	0.0	15.6875	30.0625	-43.4375	2.820039	1.1859341	2.80642
1276880507997	-1.3075534	-3.5276701	9.193735	0.12707615	0.0	16.1875	29.8125	-43.6875	2.8215275	1.1823726	2.7866356
1276880508027	-0.95342433	-3.5957718	8.853226	-0.203619	0.0	16.1875	29.5	-43.9375	2.5883238	1.1730077	2.8824053
1276880508057	-0.84446156	-3.759216	8.281172	-0.67305183	0.0	16.1875	29.25	-44.4375	2.4049985	1.1353251	2.920623
1276880508087	-1.0760075	-3.8681788	7.8180795	-1.0178528	0.0	16.1875	29.0	-44.6875	2.3855813	1.0963603	2.8702826
1276880508127	-1.0760075	-3.6774938	8.662541	-0.3345127	0.0	15.6875	28.0	-45.5	2.527345	1.1543412	2.8569455
1276880508167	-1.1168685	-2.982856	10.119919	0.8026657	0.0	15.9375	27.25	-46.25	2.8137302	1.2658763	2.7833226
1276880508197	-0.95342433	-2.5606253	11.141444	1.6649494	0.0	15.6875	25.6875	-47.25	2.8237658	1.3302996	2.7851558
1276880508227	-1.1849703	-1.9885708	10.56939	1.0132656	0.0	15.25	24.6875	-48.25	3.1159046	1.3551854	2.6042004
1276880508267	-1.4165162	-1.525479	10.95076	1.3402214	0.0	15.25	23.375	-48.8125	-2.8833117	1.3829389	2.3932147
1276880508307	-0.29964766	-1.2258313	11.686258	1.9475441	0.0	15.0	22.625	-49.5625	2.7118566	1.4632294	2.9018495
1276880508347	0.42223078	-1.2258313	10.651112	0.92308044	0.0	14.25	21.875	-49.0625	2.022615	1.449667	-2.8098757
1276880508387	-0.38136974	-1.525479	9.384419	-0.29140663	0.0	14.5	21.125	-48.8125	2.6214356	1.4047809	2.896614
1276880508427	-0.95342433	-1.6889231	9.275456	-0.33059692	0.0	14.5	21.375	-49.3125	3.0022035	1.3646704	2.627673
1276880508467	-1.0760075	-1.7570249	9.193735	-0.38488293	0.0	14.0	20.875	-49.0625	3.0664585	1.3503379	2.592103
1276880508507	-1.2258313	-1.879608	9.00305	-0.5281534	0.0	14.25	21.375	-49.3125	3.1216345	1.3265232	2.5636907
1276880508547	-1.2258313	-1.920469	9.466142	-0.07018757	0.0	13.75	21.375	-49.5625	3.1347537	1.3346051	2.573488
1276880508577	-0.9125633	-1.879608	9.507003	-0.07275009	0.0	13.5	21.125	-49.5625	2.9314516	1.354458	2.6896062
1276880508607	-0.9125633	-2.0294318	9.534244	-0.016187668	0.0	14.0	20.875	-50.3125	2.8216023	1.341514	2.7190177
1276880508637	-0.7218784	-2.0294318	9.534244	-0.03211689	0.0	14.0	20.375	-50.8125	2.6576612	1.3486042	2.7998447
1276880508677	-0.6537767	-1.9477097	9.765789	0.17291069	0.0	14.25	19.8125	-50.5625	2.6155403	1.3634422	2.8177457
1276880508707	-0.7627395	-1.920469	10.079058	0.4820509	0.0	14.25	19.3125	-50.5625	2.6891487	1.3685806	2.7635343
1276880508747	-0.6946377	-1.920469	10.119919	0.5172777	0.0	14.5	18.8125	-50.5625	2.6052647	1.3716671	2.794531
1276880508777	-0.53119355	-1.7978859	10.18802	0.5524187	0.0	14.75	18.0625	-50.5625	2.4964669	1.3888204	2.8543112
1276880508807	-0.61291564	-1.7297841	10.419566	0.77329254	0.0	15.0	17.5625	-51.3125	2.550857	1.3964573	2.801065
1276880508847	-0.6946377	-1.607201	10.419566	0.7590008	0.0	15.4375	17.0	-51.0625	2.621499	1.4043126	2.7336366
1276880508887	-0.84446156	-1.4165162	10.528529	0.85025215	0.0	15.4375	17.0	-50.5625	2.8354688	1.4154239	2.604006
1276880508927	-0.8036005	-1.3075534	10.378705	0.68491745	0.0	15.9375	16.75	-50.5625	2.8309412	1.423985	2.5905192
1276880508967	-0.88532263	-1.1849703	10.269742	0.5690689	0.0	15.9375	16.75	-50.0625	2.9674304	1.4277481	2.4999332
1276880509007	-1.1168685	-1.1168685	10.228881	0.54346085	0.0	16.1875	17.0	-50.5625	-3.1044865	1.4175912	2.3561945
1276880509037	-1.334794	-1.0351465	9.956474	0.29209137	0.0	16.6875	16.75	-50.5625	-2.9391603	1.4027438	2.2304251
1276880509067	-1.4982382	-0.9942854	9.915613	0.27068615	0.0	16.6875	17.3125	-50.5625	-2.787922	1.3914009	2.1566982
1276880509097	-1.7978859	-0.9942854	9.80665	0.21290016	0.0	17.1875	17.5625	-50.3125	-2.6355543	1.3642818	2.075963
1276880509137	-1.920469	-1.1168685	9.697687	0.14225578	0.0	17.1875	17.3125	-49.8125	-2.651052	1.3455946	2.0975468
1276880509177	-1.607201	-1.2666923	9.507003	-0.081902504	0.0	16.9375	17.5625	-50.0625	-2.8941188	1.3587829	2.238261
1276880509207	-1.3075534	-1.4165162	9.384419	-0.22627735	0.0	16.9375	17.5625	-49.5625	3.103294	1.3681946	2.3961732
1276880509247	-1.2258313	-1.4982382	9.697687	0.08236027	0.0	16.9375	17.3125	-49.8125	2.9884899	1.3737695	2.4558632
1276880509287	-1.1849703	-1.4982382	9.80665	0.184309	0.0	16.6875	17.8125	-49.5625	3.0009246	1.3784187	2.4724195
1276880509327	-1.1441092	-1.3756552	10.038197	0.38976097	0.0	16.6875	18.0625	-49.3125	3.0593042	1.3944048	2.447829
1276880509357	-1.2666923	-1.4165162	10.079058	0.44997883	0.0	17.1875	18.0625	-49.8125	3.091058	1.3844469	2.4119742
1276880509397	-1.3756552	-1.4982382	9.765789	0.1687088	0.0	17.1875	18.3125	-50.0625	3.1224706	1.3654538	2.3988225
1276880509437	-1.4982382	-1.7978859	9.425281	-0.095160484	0.0	17.4375	18.3125	-50.0625	3.0077732	1.3274157	2.4468544
1276880509477	-1.2258313	-1.9477097	9.507003	-0.025068283	0.0	17.1875	18.5625	-49.8125	2.7834496	1.3332956	2.5798566
1276880509517	-0.95342433	-1.8387469	9.765789	0.17636776	0.0	16.1875	18.8125	-49.0625	2.7399962	1.3618026	2.6632402
1276880509557	-1.3756552	-1.607201	10.337844	0.74543667	0.0	15.9375	18.8125	-48.8125	-3.1328835	1.368943	2.4336648
1276880509587	-1.6480621	-1.6480621	10.378705	0.83053684	0.0	15.6875	18.5625	-48.8125	-2.985698	1.349894	2.3561945
1276880509617	-1.334794	-1.8387469	9.997335	0.44563675	0.0	15.9375	19.0625	-49.3125	3.0139983	1.3473171	2.5136778
1276880509647	-0.7218784	-1.879608	9.765789	0.16454124	0.0	16.1875	19.3125	-49.5625	2.5909038	1.3674707	2.7749045
1276880509687	-0.6946377	-1.7570249	9.888372	0.260602	0.0	16.6875	19.5625	-49.5625	2.6231155	1.3820034	2.7651024
1276880509717	-1.0351465	-1.6480621	10.038197	0.41846752	0.0	16.6875	19.8125	-50.0625	2.9159827	1.3792942	2.5807679
1276880509757	-1.334794	-1.6889231	9.847511	0.2734108	0.0	16.6875	19.0625	-49.5625	3.051804	1.3555777	2.4727805
1276880509787	-1.4573772	-1.7297841	9.956474	0.40351582	0.0	16.6875	18.8125	-49.5625	3.094301	1.3474108	2.4414573
1276880509817	-1.3756552	-1.6480621	10.038197	0.45853043	0.0	16.4375	18.8125	-49.5625	3.1015043	1.3601118	2.446042
1276880509857	-1.7570249	-1.6480621	10.079058	0.5562954	0.0	16.6875	18.3125	-49.3125	-2.9883368	1.3361883	2.3242054
1276880509897	-1.7978859	-1.7297841	9.888372	0.39160728	0.0	16.6875	18.3125	-49.0625	-3.0065153	1.3236476	2.336892
1276880509927	-1.1849703	-1.6889231	9.765789	0.17469501	0.0	16.6875	17.8125	-49.0625	2.8928325	1.3625941	2.529785
1276880509967	-0.88532263	-1.6889231	9.847511	0.22379017	0.0	16.4375	17.8125	-48.8125	2.71129	1.379521	2.658778
1276880510007	-0.7218784	-1.7978859	9.956474	0.33656788	0.0	16.4375	17.8125	-48.5625	2.5548897	1.3786118	2.759781
1276880510037	-0.7218784	-1.920469	10.079058	0.4791031	0.0	16.4375	18.0625	-48.8125	2.51588	1.369983	2.782045
1276880510067	-0.88532263	-1.8387469	10.337844	0.7307024	0.0	16.4375	18.3125	-49.0625	2.6764584	1.3758937	2.6928692
1276880510097	-1.0351465	-1.1849703	11.372991	1.6746645	0.0	16.6875	18.0625	-49.3125	3.1027076	1.4333212	2.423577
1276880510137	-1.1441092	-0.95342433	12.067628	2.3525295	0.0	16.9375	18.5625	-49.5625	-2.9602637	1.4480046	2.2655346
1276880510177	-1.0351465	-1.607201	8.812365	-0.7893114	0.0	16.9375	18.5625	-49.3125	2.8460996	1.3571719	2.5693989
1276880510207	-1.2258313	-2.1792557	7.1234417	-2.257131	0.0	17.4375	19.0625	-49.0625	2.4785664	1.2332268	2.6292033
1276880510237	-1.7978859	-2.3426998	7.205164	-2.0198007	0.0	17.9375	19.3125	-48.5625	2.7426455	1.1818234	2.487022
1276880510277	-2.2609777	-2.3699405	8.349273	-0.83787155	0.0	18.125	19.3125	-48.0	-3.1111825	1.1969413	2.3797195
1276880510317	-2.1792557	-1.879608	9.534244	0.1524601	0.0	18.625	19.3125	-47.75	-2.9357204	1.2776481	2.2825027
1276880510357	-2.070293	-1.3756552	9.915613	0.41577244	0.0	18.875	19.3125	-47.0	-2.7632787	1.3251758	2.1572793
1276880510387	-1.6480621	-1.3075534	10.841797	1.2373686	0.0	18.625	19.5625	-47.5	-2.92712	1.3791367	2.2414927
1276880510419	-1.2666923	-1.56634	10.882658	1.2608776	0.0	18.375	19.5625	-47.75	3.0293665	1.3877633	2.461572
1276880510457	-0.46309182	-1.7297841	10.119919	0.47047806	0.0	17.9375	20.0625	-48.5625	2.4673696	1.3956612	2.8800104
1276880510497	0.38136974	-1.7978859	9.847511	0.2109003	0.0	17.1875	20.0625	-49.5625	1.8796864	1.386284	-2.9325697
1276880510537	-0.29964766	-1.920469	9.507003	-0.102986336	0.0	16.4375	20.375	-49.3125	2.3258677	1.3691258	2.9868124
1276880510567	-1.1849703	-1.920469	9.425281	-0.114990234	0.0	15.9375	20.875	-49.5625	2.9562397	1.3357973	2.5887513
1276880510597	-1.8387469	-1.8387469	9.615966	0.15471363	0.0	15.9375	20.625	-49.0625	-2.87526	1.3066903	2.3561945
1276880510637	-1.7297841	-1.6480621	10.147159	0.6179886	0.0	16.1875	20.375	-48.5625	-2.8901622	1.3395532	2.3320057
1276880510677	-1.3075534	-1.525479	10.269742	0.6577835	0.0	16.6875	19.5625	-48.8125	-3.1377463	1.3775965	2.4329665
1276880510717	-1.0760075	-1.525479	9.997335	0.36348248	0.0	16.6875	18.8125	-48.5625	2.965016	1.3861943	2.5272803
1276880510757	-1.334794	-1.607201	9.193735	-0.37852573	0.0	16.4375	18.0625	-48.8125	3.0566258	1.3473489	2.4485238
1276880510787	-1.1168685	-1.6480621	9.00305	-0.58610725	0.0	16.4375	18.3125	-49.3125	2.893446	1.3531673	2.546
1276880510817	-0.7627395	-1.6480621	9.275456	-0.35509014	0.0	16.1875	18.3125	-49.3125	2.6634982	1.3774552	2.7081373
1276880510857	-0.7218784	-1.4573772	9.656827	-0.013828278	0.0	16.6875	18.5625	-49.8125	2.7312503	1.4039462	2.6816905
1276880510897	-0.88532263	-1.3075534	10.18802	0.5030174	0.0	17.1875	18.5625	-50.3125	2.9203582	1.4170259	2.5464132
1276880510937	-1.1849703	-1.2258313	10.337844	0.6708412	0.0	16.1875	18.0625	-50.5625	-3.0833151	1.4073455	2.373142
1276880510977	-1.1849703	-1.3075534	10.419566	0.7612829	0.0	15.9375	17.3125	-50.8125	3.1291034	1.4030328	2.4053352
1276880511017	-1.1441092	-1.1849703	10.310603	0.63469505	0.0	15.25	16.5	-50.8125	-3.10702	1.4123806	2.3737366
1276880511047	-1.3756552	-1.0760075	10.61025	0.9463787	0.0	14.5	16.25	-51.0625	-2.8494375	1.4076554	2.2345755
1276880511077	-1.607201	-1.0351465	10.800936	1.1621618	0.0	15.0	15.75	-51.3125	-2.7345033	1.395616	2.1429899
1276880511107	-1.6889231	-1.1168685	10.501288	0.8880644	0.0	15.25	15.5	-51.3125	-2.7573206	1.3803184	2.1550677
1276880511147	-1.3756552	-1.1168685	9.956474	0.3062725	0.0	15.25	15.5	-51.5625	-2.9462981	1.3946702	2.25274
1276880511187	-1.1849703	-0.95342433	10.337844	0.6424732	0.0	15.25	15.25	-51.5625	-2.973817	1.4247235	2.2483344
1276880511217	-1.3756552	-0.84446156	10.501288	0.8179722	0.0	15.25	15.0	-51.3125	-2.7826097	1.4182786	2.1213458
1276880511257	-1.607201	-0.84446156	10.269742	0.6223383	0.0	15.4375	15.5	-51.5625	-2.6274388	1.3958182	2.0545754
1276880511297	-1.2666923	-0.9942854	9.615966	-0.056782722	0.0	15.6875	15.5	-51.0625	-2.953622	1.4048733	2.2362905
1276880511337	-1.0760075	-1.1849703	9.343558	-0.3269863	0.0	16.1875	15.75	-51.0625	3.0392735	1.4011371	2.40435
1276880511367	-0.88532263	-1.2666923	9.343558	-0.33614922	0.0	16.4375	16.25	-50.8125	2.8552067	1.4068813	2.5315886
1276880511407	-0.9125633	-1.2258313	9.575105	-0.11035919	0.0	15.9375	16.25	-50.8125	2.9288633	1.4125288	2.5016565
1276880511447	-1.1168685	-1.1441092	9.888372	0.21014977	0.0	16.1875	16.0	-51.0625	3.1131835	1.4104923	2.368242
1276880511481	-1.1168685	-1.1441092	10.079058	0.3984356	0.0	16.1875	15.5	-50.3125	3.0885487	1.4134747	2.368242
1276880511520	-0.9125633	-1.1849703	9.956474	0.26153278	0.0	16.4375	15.5	-50.3125	2.9018607	1.4216937	2.4853418
1276880511557	-1.1168685	-1.1849703	10.119919	0.44343758	0.0	16.6875	15.75	-49.8125	3.0506425	1.4112577	2.3857718
1276880511587	-1.2666923	-1.2258313	10.079058	0.42538643	0.0	16.4375	16.25	-49.8125	-3.124232	1.3976582	2.3398025
1276880511617	-1.1441092	-1.2666923	9.915613	0.2548046	0.0	16.1875	16.75	-49.8125	3.0874457	1.4003247	2.4069982
1276880511647	-1.0760075	-1.2258313	9.80665	0.13471985	0.0	16.1875	16.75	-49.5625	3.0664418	1.4059805	2.4211915
1276880511687	-1.2666923	-1.1849703	9.80665	0.15221786	0.0	15.9375	16.5	-49.8125	-3.0581222	1.395732	2.3228736
1276880511727	-1.3075534	-1.1441092	9.80665	0.15272045	0.0	16.4375	16.25	-49.8125	-3.041751	1.3954469	2.2896264
1276880511767	-1.0760075	-1.1849703	9.534244	-0.13898563	0.0	16.6875	16.25	-50.5625	3.0436592	1.4044673	2.40435
1276880511797	-1.0760075	-1.1441092	9.656827	-0.022934914	0.0	16.9375	16.0	-51.0625	3.0485914	1.409567	2.3868597
1276880511827	-1.1168685	-1.1168685	9.656827	-0.021503448	0.0	17.6875	16.5	-50.8125	3.0880075	1.4086698	2.3561945
1276880511867	-1.2666923	-1.0760075	9.847511	0.18013	0.0	17.6875	16.75	-50.8125	-3.057127	1.403597	2.2749782
1276880511907	-1.4165162	-1.1441092	9.888372	0.24797153	0.0	17.6875	17.0	-50.0625	-3.0014944	1.3886952	2.25021
1276880511947	-1.525479	-1.2258313	9.534244	-0.07363701	0.0	16.9375	17.5625	-49.5625	-2.9210987	1.3683507	2.2477112
1276880511987	-1.334794	-1.2666923	9.656827	0.023940086	0.0	16.4375	17.3125	-49.5625	-3.0539196	1.3824983	2.3300223
1276880512027	-1.1849703	-1.2258313	9.997335	0.33502293	0.0	15.9375	17.0	-49.0625	-3.117379	1.4018822	2.373142
1276880512057	-1.0760075	-1.2258313	10.079058	0.40353394	0.0	15.9375	17.0	-49.8125	3.0908804	1.4103576	2.4211915
1276880512087	-1.1441092	-1.2258313	10.147159	0.4781189	0.0	16.6875	16.75	-50.3125	3.090642	1.4070282	2.3906636
1276880512117	-1.334794	-1.1849703	10.147159	0.49629402	0.0	16.9375	16.75	-50.8125	-3.0541854	1.3966774	2.296805
1276880512157	-1.56634	-1.1849703	9.956474	0.34169674	0.0	16.6875	17.0	-51.3125	-2.8829322	1.3760313	2.2184584
1276880512197	-1.525479	-1.1849703	9.697687	0.08154392	0.0	16.4375	17.0	-51.0625	-2.889679	1.3741838	2.2312212
1276880512227	-1.2258313	-1.2258313	9.615966	-0.035666466	0.0	16.4375	16.75	-50.8125	-3.1258996	1.3924303	2.3561945
1276880512267	-0.9942854	-1.2258313	9.697687	0.01864338	0.0	15.9375	17.0	-50.5625	3.0294535	1.4094534	2.4601133
1276880512307	-1.1849703	-1.1441092	9.724928	0.056785583	0.0	15.9375	17.0	-50.5625	3.0294535	1.4094534	2.4601133
1276880512347	-1.1168685	-1.2666923	9.534244	-0.12400055	0.0	15.9375	17.3125	-50.5625	3.1064365	1.3954892	2.4189692
1276880512377	-1.3075534	-1.2666923	9.615966	-0.019872665	0.0	15.4375	17.5625	-50.5625	-3.0037043	1.3836904	2.3403227
1276880512417	-1.3756552	-1.2666923	9.80665	0.17670155	0.0	16.1875	17.5625	-50.0625	-3.0029233	1.382371	2.3149807
1276880512457	-1.1441092	-1.3075534	9.697687	0.04544735	0.0	16.1875	17.5625	-50.3125	3.0994196	1.393517	2.4227626
1276880512487	-0.9942854	-1.2258313	9.615966	-0.062007904	0.0	16.1875	17.3125	-50.0625	3.032578	1.4081066	2.4601133
1276880512517	-1.0351465	-1.1849703	9.575105	-0.10312939	0.0	16.4375	17.5625	-50.3125	3.0886319	1.4079267	2.423577
1276880512557	-1.334794	-1.0760075	10.147159	0.48433113	0.0	16.6875	17.5625	-50.3125	-2.935363	1.4034147	2.2492595
1276880512597	-1.4982382	-0.9942854	10.378705	0.72667027	0.0	17.1875	17.3125	-50.0625	-2.8245187	1.399246	2.1566982
1276880512627	-1.4982382	-1.0351465	10.119919	0.475811	0.0	17.4375	17.0	-50.0625	-2.8723261	1.3927538	2.175395
1276880512657	-1.334794	-1.1168685	9.915613	0.26054668	0.0	17.4375	16.5	-49.8125	-3.0442052	1.3970431	2.2675385
1276880512687	-1.1849703	-1.1168685	9.765789	0.09396553	0.0	16.9375	16.25	-50.0625	-3.127646	1.4055752	2.3266172
1276880512717	-1.2666923	-1.0760075	9.80665	0.13984108	0.0	17.1875	16.25	-50.0625	-3.0575268	1.4029129	2.2749782
1276880512747	-1.525479	-1.1168685	9.847511	0.22071075	0.0	17.4375	16.0	-50.3125	-2.9522529	1.3811138	2.2027705
1276880512787	-1.4165162	-1.1168685	9.656827	0.017210007	0.0	17.4375	16.25	-50.3125	-3.0033014	1.3861278	2.238462
1276880512817	-1.2258313	-1.1168685	9.724928	0.058656693	0.0	17.1875	16.0	-50.0625	-3.1245196	1.4018971	2.3097165
1276880512847	-1.3075534	-1.1168685	9.847511	0.18987751	0.0	17.1875	15.75	-50.0625	-3.0849662	1.3979148	2.2777045
1276880512887	-1.4165162	-1.0760075	9.847511	0.20023727	0.0	17.1875	16.25	-50.0625	-2.9648674	1.3920836	2.220423
1276880512927	-1.4982382	-1.1168685	9.765789	0.13632488	0.0	17.1875	16.0	-50.0625	-2.9547453	1.3817279	2.211382
1276880512967	-1.334794	-1.1849703	9.847511	0.20131207	0.0	17.6875	15.75	-50.5625	-3.1390889	1.3914905	2.296805
1276880513007	-1.3075534	-1.1168685	9.915613	0.25697136	0.0	17.4375	16.25	-50.3125	-3.0723722	1.3990787	2.2777045
1276880513047	-1.334794	-1.0351465	10.119919	0.45326996	0.0	17.4375	16.25	-50.3125	-3.0723722	1.3990787	2.2777045
1276880513077	-1.4165162	-0.9942854	9.956474	0.29911613	0.0	17.4375	16.0	-50.3125	-2.9324682	1.3986948	2.1828117
1276880513107	-1.607201	-1.0351465	9.847511	0.2247057	0.0	17.1875	16.0	-50.3125	-2.8351974	1.3790504	2.14299
1276880513147	-1.4165162	-1.1168685	9.915613	0.27170753	0.0	16.6875	15.75	-50.3125	-2.9917166	1.3908433	2.238462
1276880513187	-1.3075534	-1.1441092	9.575105	-0.07518959	0.0	15.9375	15.75	-50.0625	-3.0380356	1.3912953	2.2896264
1276880513217	-1.3756552	-1.2258313	9.615966	-0.015742302	0.0	15.9375	16.0	-49.8125	-3.0368114	1.3814751	2.2986665
1276880513247	-1.4982382	-1.2258313	9.956474	0.33626652	0.0	15.9375	16.5	-49.3125	-2.937714	1.3787644	2.256526
1276880513287	-1.3756552	-1.2666923	10.079058	0.4444151	0.0	15.9375	16.75	-49.8125	-3.0297976	1.3873482	2.3149807
1276880513327	-1.2258313	-1.334794	9.575105	-0.06155014	0.0	16.1875	17.3125	-49.8125	3.1264539	1.3837397	2.398722
1276880513367	-1.2666923	-1.56634	9.697687	0.098049164	0.0	15.9375	18.5625	-49.8125	3.0895088	1.3659862	2.461572
1276880513397	-1.1849703	-1.6889231	9.507003	-0.07835579	0.0	15.4375	19.5625	-50.0625	3.0396204	1.3570957	2.529785
1276880513437	-1.525479	-1.9477097	10.038197	0.53192043	0.0	15.4375	20.625	-49.3125	-3.0989192	1.3291541	2.4771695
1276880513477	-2.6423476	-2.2201166	11.413852	2.117566	0.0	15.25	22.125	-48.5625	-2.555743	1.2771655	2.269577
1276880513517	-3.636633	-1.7570249	11.985906	2.8414402	0.0	14.25	24.1875	-47.5	-1.9910793	1.2457799	2.0208702
1276880513557	-3.0645783	-0.95342433	10.337844	1.0179367	0.0	13.0	28.25	-44.9375	-1.8467824	1.2697731	1.8724153
1276880513597	0.19068487	-2.6014864	7.504812	-1.8614445	0.0	9.8125	34.125	-41.125	2.5420387	1.2362857	-3.0684252
1276880513627	2.6423476	-5.325556	6.3198414	-1.1300182	0.0	4.4375	39.75	-36.3125	1.5531853	0.81594723	-2.6810188
1276880513667	5.434519	-7.6954966	5.325556	1.0153742	0.0	-1.875	44.8125	-30.9375	1.2387079	0.51450443	-2.5267212
1276880513697	6.3198414	-8.62168	4.372132	1.7427788	0.0	-8.25	48.375	-26.625	1.2201241	0.38823816	-2.5090492
1276880513727	4.440233	-7.9679036	4.3312707	0.29102612	0.0	-12.4375	49.9375	-23.25	1.5935034	0.4433161	-2.633189
1276880513767	1.3075534	-7.273266	5.012288	-0.8773098	0.0	-14.375	50.6875	-22.5	-2.6947737	0.5959895	-2.9637175
1276880513807	0.7218784	-7.4639506	5.8976107	-0.26655197	0.0	-13.875	50.9375	-22.25	-2.596214	0.6664402	-3.0451772
1276880513837	0.88532263	-7.43671	6.4424243	0.072280884	0.0	-12.875	50.6875	-23.25	-2.7443357	0.71040094	-3.0231028
1276880513877	1.3075534	-7.504812	6.851035	0.43876743	0.0	-11.9375	50.6875	-24.8125	-2.9561496	0.73244905	-2.9690955
1276880513907	1.4165162	-7.3141265	6.973618	0.3979721	0.0	-10.9375	50.1875	-25.5625	-3.068956	0.75238013	-2.9502923
1276880513947	1.4573772	-6.782933	7.246025	0.22515011	0.0	-10.4375	49.6875	-27.125	3.1285858	0.8071303	-2.929951
1276880513987	1.4982382	-6.782933	8.19945	0.9396925	0.0	-10.1875	48.125	-28.375	3.1190794	0.8679401	-2.9241998
1276880514027	1.1168685	-6.66035	9.152874	1.5680037	0.0	-9.25	46.875	-30.1875	-3.0748665	0.9351241	-2.9754493
1276880514067	1.1441092	-7.3141265	9.193735	1.9971714	0.0	-8.0	46.625	-31.6875	-3.1004677	0.8928746	-2.9864254
1276880514097	-0.27240697	-8.076866	9.697687	2.8169432	0.0	-6.3125	46.125	-33.0	-2.6335847	0.8760548	3.1078787
1276880514127	-1.4165162	-7.9270425	9.507003	2.6523876	0.0	-3.625	46.625	-33.0	-2.4136784	0.86803555	2.9647648
1276880514167	-0.7218784	-7.5456724	8.281172	1.4199295	0.0	-2.125	47.375	-32.4375	-2.661807	0.829568	3.046215
1276880514197	0.46309182	-6.742072	7.6954966	0.43496418	0.0	-0.6875	47.375	-31.6875	2.9684455	0.8501735	-3.0730135
1276880514237	-0.0	-6.3198414	6.4424243	-0.78195	0.0	0.8125	47.125	-31.6875	3.070755	0.79500306	3.1415927
1276880514277	-0.08172209	-4.2904096	4.2904096	-3.7385445	0.0	1.5	46.875	-32.4375	3.082254	0.78530747	3.1225474
1276880514317	1.4573772	-3.445948	4.2495484	-4.1447453	0.0	2.75	44.8125	-34.5	1.9242921	0.84889555	-2.7414808
1276880514357	0.61291564	-1.920469	8.62168	-0.9524288	0.0	4.1875	40.75	-39.0625	2.60709	1.3411046	-2.8326619
1276880514387	-2.2609777	-0.5720546	12.871228	3.274167	0.0	5.4375	35.625	-43.4375	-1.7507547	1.3915446	1.8186078
1276880514427	-2.1383946	-0.6537767	12.14935	2.5467644	0.0	6.6875	29.8125	-47.75	-1.8008387	1.3887821	1.867504
1276880514467	0.95342433	-0.3405087	8.499097	-1.247467	0.0	6.6875	24.6875	-51.3125	1.4122059	1.4522359	-1.9138203
1276880514507	1.607201	-0.23154591	9.534244	-0.13511944	0.0	6.1875	20.875	-53.125	1.0618055	1.4021033	-1.7138796
1276880514547	-0.08172209	0.92618364	11.75436	1.9844265	0.0	5.1875	17.8125	-53.875	-0.30372784	1.4918599	0.088007376
1276880514587	0.7218784	1.2666923	11.34575	1.632391	0.0	4.1875	15.5	-54.9375	0.17816329	1.4429946	-0.5179874
1276880514617	1.1849703	0.92618364	9.384419	-0.30247784	0.0	3.75	13.9375	-55.4375	0.406138	1.4118841	-0.9073703
1276880514657	0.7627395	0.46309182	8.921328	-0.84080887	0.0	3.75	13.1875	-54.9375	0.5426053	1.471108	-1.0251412
1276880514697	0.7218784	0.3405087	9.466142	-0.3069191	0.0	3.25	13.1875	-55.1875	0.67488563	1.4866786	-1.1300454
1276880514727	0.7627395	0.5720546	9.765789	0.005569458	0.0	2.75	13.4375	-54.9375	0.5294152	1.4734759	-0.9272952
1276880514767	0.7218784	0.3405087	9.765789	-0.008298874	0.0	3.25	13.4375	-54.375	0.68897665	1.4892476	-1.1300454
1276880514807	0.9942854	0.08172209	9.656827	-0.09842682	0.0	3.0	13.9375	-54.9375	0.95011634	1.467852	-1.4887888
1276880514837	0.7218784	-0.040861044	9.697687	-0.08204651	0.0	3.25	14.5	-54.625	1.1546074	1.4963759	-1.6273397
1276880514877	0.50395286	-0.19068487	9.656827	-0.13480282	0.0	3.25	15.0	-54.625	1.5195876	1.5150577	-1.9325255
1276880514907	0.27240697	-0.53119355	9.275456	-0.51200294	0.0	2.75	15.5	-54.625	2.3282955	1.5065248	-2.6677413
1276880514947	0.27240697	-0.50395286	9.084772	-0.70383453	0.0	2.5	15.5	-54.375	2.325522	1.5078232	-2.646041
1276880514987	0.8036005	-0.46309182	9.234595	-0.52559566	0.0	2.25	15.5	-54.375	1.5932494	1.4706962	-2.0935855
1276880515027	0.8036005	-0.38136974	9.575105	-0.19031811	0.0	2.25	15.5	-54.125	1.5431795	1.4781647	-2.0138988
1276880515067	0.8036005	-0.27240697	9.915613	0.14520168	0.0	2.0	15.25	-54.375	1.4621533	1.4854314	-1.8976231
1276880515097	1.2258313	-0.29964766	9.765789	0.040333748	0.0	1.75	15.25	-54.9375	1.2455872	1.4422895	-1.8105395
1276880515127	1.3075534	-0.46309182	9.575105	-0.13159084	0.0	1.75	15.5	-54.9375	1.28967	1.4269279	-1.9111782
1276880515167	1.2666923	-0.3405087	9.765789	0.04683113	0.0	1.75	15.25	-54.625	1.2512835	1.4372833	-1.8334054
1276880515197	1.56634	-0.10896278	9.997335	0.31323147	0.0	1.5	15.25	-54.625	1.0440447	1.4150146	-1.6402496
1276880515227	1.6480621	-0.14982383	9.915613	0.2461071	0.0	1.75	14.75	-53.875	1.0126476	1.4054266	-1.6614562
1276880515267	1.6889231	-0.53119355	9.575105	-0.06923485	0.0	1.5	14.75	-54.375	1.1248332	1.3879563	-1.8755169
1276880515307	1.6889231	-0.6537767	9.466142	-0.16882229	0.0	1.0625	14.25	-54.625	1.1459631	1.3817625	-1.94013
1276880515347	0.8036005	-0.3405087	9.847511	0.0794611	0.0	1.75	13.9375	-54.625	1.4961369	1.4823995	-1.9715898
1276880515377	0.14982383	-0.19068487	10.337844	0.5340376	0.0	1.5	14.5	-54.9375	2.3068469	1.5473455	-2.4756234
1276880515407	0.23154591	-0.10896278	10.038197	0.23480701	0.0	2.0	13.9375	-54.625	1.7709737	1.5453136	-2.010639
1276880515447	0.46309182	0.040861044	9.724928	-0.07061672	0.0	2.75	14.5	-54.9375	1.1338918	1.5230275	-1.4827889
1276880515487	0.46309182	0.10896278	10.038197	0.24281311	0.0	3.0	14.25	-54.9375	0.98339957	1.52344	-1.3397057
1276880515527	0.88532263	0.10896278	9.697687	-0.06802559	0.0	4.0	13.9375	-54.625	0.8971312	1.4790732	-1.4483353
1276880515567	0.53119355	-0.38136974	9.343558	-0.44023705	0.0	4.1875	13.9375	-54.9375	1.6346323	1.5009246	-2.1934671
1276880515607	-0.0	-1.1441092	8.076866	-1.6491537	0.0	4.1875	13.4375	-54.9375	2.4994838	1.4300803	3.1415927
1276880515637	-0.19068487	-0.9942854	6.0474343	-3.675058	0.0	4.1875	13.4375	-55.4375	2.8130972	1.4049238	2.9521124
1276880515677	0.53119355	1.5390993	5.5162406	-4.055137	0.0	3.0	13.1875	-56.1875	0.0508766	1.2837838	-0.33233216
1276880515707	1.920469	3.759216	10.501288	1.511343	0.0	2.0	12.1875	-56.4375	0.1172027	1.1885796	-0.4723054
1276880515737	1.2258313	4.372132	15.431854	6.279379	0.0	1.5	10.125	-56.9375	0.04989709	1.2846286	-0.27335533
1276880515777	0.27240697	3.5276701	13.525005	4.1734943	0.0	0.8125	7.875	-56.9375	-0.009234751	1.3149282	-0.07706714
1276880515817	1.2258313	2.1111538	9.234595	-0.25482368	0.0	0.3125	6.3125	-57.1875	0.14365064	1.3123507	-0.5260664
1276880515847	1.6480621	1.1168685	8.240311	-1.329256	0.0	0.3125	6.3125	-57.1875	0.14365064	1.3123507	-0.5260664
1276880515877	1.6889231	0.88532263	8.499097	-1.0962591	0.0	0.0625	7.875	-56.9375	0.40760124	1.3500865	-1.0879817
1276880515917	0.9942854	0.8036005	9.425281	-0.29506302	0.0	-0.1875	9.375	-57.1875	0.50567263	1.4359813	-0.8910638
1276880515957	0.61291564	1.1441092	9.615966	-0.1034832	0.0	0.8125	9.875	-56.6875	0.23357916	1.4366294	-0.4918092
1276880515997	0.92618364	1.2258313	9.507003	-0.17630291	0.0	1.0625	9.375	-56.9375	0.27386555	1.4105756	-0.6470472
1276880516037	0.53119355	1.1168685	9.765789	0.037139893	0.0	1.5	8.625	-57.1875	0.14997149	1.444825	-0.4439457
1276880516077	0.5720546	0.92618364	9.343558	-0.39988995	0.0	1.5	8.375	-56.9375	0.21297526	1.4548105	-0.5532943
1276880516107	0.5720546	0.7627395	8.771504	-0.9834814	0.0	1.3125	8.375	-57.4375	0.28336608	1.4625255	-0.6435011
1276880516137	0.38136974	0.6946377	8.962189	-0.8094959	0.0	1.5	8.875	-57.1875	0.21549912	1.4826056	-0.5020902
1276880516177	0.7627395	0.7627395	9.084772	-0.6580639	0.0	1.0625	9.125	-57.4375	0.38857654	1.4526149	-0.7853982
1276880516207	0.50395286	1.2258313	9.724928	0.008177757	0.0	1.75	8.875	-57.1875	0.105929755	1.4353446	-0.3900481
1276880516238	-0.0	1.7297841	11.454713	1.777935	0.0	2.25	8.625	-56.6875	-0.13164358	1.4209176	0.0
1276880516277	0.14982383	1.8387469	9.343558	-0.28270626	0.0	2.25	8.625	-56.4375	-0.07873658	1.3758589	-0.081301875
1276880516317	1.334794	1.607201	9.343558	-0.23236942	0.0	3.0	8.625	-56.1875	0.15418673	1.3508165	-0.6930688
1276880516357	0.92618364	1.5390993	9.00305	-0.6261511	0.0	3.0	8.875	-56.6875	0.09961839	1.3738624	-0.5417199
1276880516387	0.6537767	1.1849703	9.466142	-0.24425411	0.0	3.0	9.125	-56.4375	0.10242176	1.42879	-0.50416595
1276880516417	0.040861044	1.334794	9.956474	0.2389822	0.0	4.1875	8.375	-56.4375	-0.2418858	1.4374661	-0.030602688
1276880516457	-0.3405087	1.7570249	9.466142	-0.1728077	0.0	4.6875	8.375	-55.9375	-0.3385615	1.3839369	0.19142549
1276880516497	-0.19068487	1.7978859	9.697687	0.058130264	0.0	5.1875	7.875	-55.6875	-0.332091	1.3864791	0.10566559
1276880516537	-0.14982383	1.5390993	9.997335	0.30957413	0.0	5.9375	7.3125	-55.9375	-0.41125485	1.4173336	0.09703938
1276880516577	-0.50395286	1.4573772	9.847511	0.16086674	0.0	5.9375	7.3125	-55.6875	-0.5341807	1.4154651	0.33292326
1276880516617	-0.88532263	1.2258313	9.80665	0.11589241	0.0	6.1875	7.0625	-56.4375	-0.70851487	1.4178092	0.62548506
1276880516647	-0.95342433	1.3075534	9.80665	0.13262081	0.0	7.125	7.3125	-56.1875	-0.748548	1.407255	0.63003385
1276880516687	-1.920469	1.6480621	9.384419	-0.086997986	0.0	9.125	7.5625	-55.9375	-0.7462683	1.3073943	0.8615863
1276880516727	-2.3018389	2.0294318	9.234595	-0.07552433	0.0	11.3125	7.875	-55.6875	-0.74724895	1.2499696	0.84820855
1276880516767	-3.1054392	1.9885708	9.343558	0.23826122	0.0	14.25	8.875	-54.125	-0.8558915	1.194898	1.0012343
1276880516807	-3.3642259	1.3075534	8.921328	-0.18283653	0.0	16.9375	10.625	-52.625	-1.0752193	1.1863478	1.2001004
1276880516837	-4.140586	0.3405087	8.471856	-0.37093353	0.0	18.625	13.4375	-51.0625	-1.1428205	1.1148615	1.4887441
1276880516867	-4.7943625	0.27240697	7.8180795	-0.6315489	0.0	19.125	16.75	-49.8125	-1.0334463	1.0199797	1.5140392
1276880516907	-5.202973	0.50395286	8.962189	0.5685959	0.0	18.875	19.5625	-49.3125	-1.1222858	1.0427736	1.4742389
1276880516947	-5.175732	0.14982383	9.697687	1.1867924	0.0	17.4375	22.125	-49.3125	-1.2146447	1.0803735	1.541857
1276880516987	-3.1463003	0.10896278	9.507003	0.20804787	0.0	15.4375	24.6875	-48.5625	-1.5140883	1.2510175	1.5361781
1276880517027	-5.6252036	-1.2258313	4.630918	-2.4180794	0.0	14.5	27.5	-47.25	-0.77528894	0.6773982	1.7853596
1276880517067	-5.175732	-2.8738933	2.3018389	-3.4548059	0.0	13.0	29.5	-46.75	-0.5169579	0.37082988	2.0776713
1276880517107	-1.4573772	-5.407278	6.0882955	-1.5344105	0.0	13.25	29.25	-46.75	0.5567084	0.8271296	2.878327
1276880517137	-4.5900574	-4.399372	2.7921712	-2.8626366	0.0	15.25	25.1875	-48.25	-0.2289928	0.41380668	2.3349855
1276880517177	-9.575105	-0.10896278	5.7477865	1.3616781	0.0	16.9375	19.3125	-50.3125	-0.5083946	0.54060006	1.5821756
1276880517207	-8.471856	1.3075534	10.923519	4.078785	0.0	17.9375	15.0	-51.875	-0.7235558	0.9054272	1.4176638
1276880517237	-6.5922484	0.50395286	4.903325	-1.5753498	0.0	17.6875	12.1875	-53.125	-0.3913379	0.6381277	1.4944985
1276880517277	-4.2904096	-2.1792557	5.5162406	-2.4864264	0.0	16.6875	10.875	-53.375	-0.105668314	0.8534635	2.040773
1276880517307	-5.7477865	-2.4925237	7.205164	-0.25866032	0.0	15.9375	9.375	-54.375	-0.10317615	0.85508436	1.9799702
1276880517347	-4.8216033	-0.6946377	5.6252036	-2.365327	0.0	16.6875	6.0625	-55.1875	-0.15622889	0.8570909	1.7138796
1276880517387	-8.076866	-0.61291564	9.847511	2.9442282	0.0	16.9375	1.75	-55.4375	-0.020990536	0.88245475	1.6465365
1276880517417	-7.8180795	1.1441092	6.0201936	0.12683296	0.0	16.1875	-2.375	-56.1875	1.7347262E-4	0.65108603	1.4254863
1276880517457	-6.851035	0.313268	5.938472	-0.73470116	0.0	15.4375	-5.9375	-56.1875	0.16087921	0.7136496	1.5251025
1276880517497	-4.399372	-0.7627395	10.119919	1.2544985	0.0	14.25	-10.5	-54.9375	0.86138594	1.1552767	1.7424644
1276880517537	-6.4015636	1.6480621	8.689782	1.1116114	0.0	13.75	-15.375	-53.375	0.55066055	0.9204833	1.3188213
1276880517577	-7.8180795	2.9556155	7.164303	1.2017679	0.0	13.0	-20.1875	-51.5625	0.49303457	0.7086405	1.2093555
1276880517617	-7.082581	3.568531	8.308413	1.6793013	0.0	12.0625	-25.5625	-48.8125	0.77995044	0.80864805	1.1040765
1276880517658	-6.238119	3.2961242	9.275456	1.8472185	0.0	11.8125	-30.1875	-45.75	1.202918	0.9205129	1.0847
1276880517708	-6.0474343	3.173541	8.049625	0.7498312	0.0	12.3125	-34.0	-41.875	1.301491	0.86721367	1.0875258
1276880517737	-7.205164	3.405087	9.466142	2.5673895	0.0	14.0	-37.0625	-37.0625	1.4956775	0.8710415	1.1293163
1276880517777	-8.499097	4.0588636	7.7772183	2.407856	0.0	15.6875	-38.5625	-33.0	1.3650471	0.6902369	1.125258
1276880517817	-8.430995	4.9850473	6.1700177	1.7692509	0.0	18.125	-39.875	-29.125	1.3546983	0.56214863	1.036816
1276880517847	-7.014479	4.2086873	5.6660647	0.14424229	0.0	20.125	-40.125	-27.125	1.5409828	0.60577905	1.0303769
1276880517887	-8.049625	4.099725	4.7943625	0.4202814	0.0	22.5625	-39.375	-25.5625	1.3808578	0.4879292	1.0997314
1276880517927	-7.8861814	4.0588636	3.718355	-0.18935394	0.0	26.0	-39.375	-24.3125	1.2959546	0.39697683	1.0954734
1276880517967	-10.106298	4.2904096	1.6889231	1.3017855	0.0	28.4375	-38.0625	-23.5625	0.95167845	0.15263163	1.1693252
1276880518007	-10.61025	5.706926	-1.0760075	2.2889776	0.0	30.625	-37.3125	-21.5	0.62598115	-0.08907613	1.0773144
1276880518047	-11.372991	5.09401	-1.9477097	2.8063364	0.0	31.875	-37.3125	-18.4375	0.69794595	-0.15504137	1.1496867
1276880518087	-6.851035	2.5333846	4.2495484	-1.3560066	0.0	32.8125	-36.3125	-14.875	1.9467567	0.52691233	1.2166088
1276880518117	-7.273266	0.95342433	5.243834	-0.7895994	0.0	34.3125	-35.25	-11.3125	1.9806347	0.6206284	1.4404534
1276880518147	-8.390134	1.9885708	1.8387469	-0.99020195	0.0	35.0	-34.5	-7.6875	1.619535	0.21010101	1.3380775
1276880518187	-7.43671	2.3018389	-2.1792557	-1.7225752	0.0	35.75	-33.75	-5.1875	0.90867966	-0.27295056	1.2706251
1276880518217	-8.308413	1.607201	0.10896278	-1.3435135	0.0	35.5	-33.25	-3.125	1.4709582	0.012875344	1.3797138
1276880518247	-8.962189	2.3426998	3.990762	0.27973938	0.0	35.25	-33.25	-1.3125	2.1621356	0.40678436	1.315119
1276880518287	-10.419566	5.6660647	-0.27240697	2.0569859	0.0	36.25	-33.25	0.4375	1.5154773	-0.022963524	1.0727327
1276880518327	-8.812365	5.938472	-0.0	0.81988335	0.0	37.0	-33.5	2.25	1.8775244	-0.0	0.9778168
1276880518367	-8.771504	3.7864566	-1.1849703	-0.17956829	0.0	37.6875	-33.75	4.5	1.4813386	-0.12340011	1.1632838
1276880518397	-8.430995	3.990762	-0.9942854	-0.42600727	0.0	37.9375	-34.5	6.5625	1.6592829	-0.10619279	1.1286999
1276880518427	-9.043911	3.8681788	-1.3756552	0.12549782	0.0	38.1875	-34.25	7.875	1.6356931	-0.138952	1.1666318
1276880518467	-6.932757	3.7864566	-2.9147544	-1.3866644	0.0	37.4375	-33.75	8.375	0.9078134	-0.35348663	1.0708991
1276880518507	-9.847511	5.938472	0.7627395	1.7181358	0.0	37.4375	-33.75	7.875	2.43163	0.06623094	1.0281423
1276880518547	-7.8861814	4.6036777	-1.334794	-0.5780325	0.0	36.5	-33.25	7.0625	1.57123	-0.1451455	1.0423998
1276880518587	-8.008764	6.4015636	-0.8036005	0.4776144	0.0	35.0	-33.5	6.5625	2.1418016	-0.07821857	0.8964703
1276880518627	-7.8861814	5.6252036	-0.95342433	-0.07300758	0.0	34.0625	-35.0	6.0625	1.7218401	-0.09810876	0.95120066
1276880518657	-7.6273947	5.366417	-1.1849703	-0.40560055	0.0	31.625	-36.5625	6.5625	1.6218508	-0.12638277	0.9576774
1276880518697	-8.19945	6.0201936	-1.2258313	0.439147	0.0	29.875	-38.8125	7.0625	1.6720635	-0.11992964	0.9374716
1276880518727	-7.9270425	5.6660647	-0.9125633	-0.020176888	0.0	27.9375	-40.875	7.3125	1.7422445	-0.093383074	0.9502219
1276880518767	-7.43671	5.434519	-1.0760075	-0.5332241	0.0	26.0	-41.625	7.0625	1.6651865	-0.11629322	0.93971694
1276880518807	-7.8589406	5.7477865	-1.2666923	0.011929512	0.0	25.0	-41.625	6.5625	1.6097511	-0.12937029	0.939326
1276880518837	-7.7772183	5.6252036	-1.1441092	-0.14036751	0.0	24.75	-41.375	6.3125	1.6246072	-0.11863895	0.9446083
1276880518867	-7.164303	5.706926	-1.3756552	-0.54443264	0.0	25.25	-41.375	6.3125	1.5395597	-0.14907484	0.89814544
1276880518897	-7.5865335	5.284695	-1.2666923	-0.47455502	0.0	26.4375	-40.875	6.5625	1.5917395	-0.13615532	0.96236336
1276880518937	-6.742072	4.7126403	-0.95342433	-1.5257368	0.0	27.1875	-40.625	6.0625	1.6146075	-0.115391076	0.9607486
1276880518977	-8.158588	6.701211	-1.8387469	0.9101486	0.0	27.9375	-40.125	4.8125	1.3248208	-0.1724293	0.88316065
1276880519017	-8.308413	5.47538	-0.61291564	0.16256046	0.0	28.1875	-39.0625	3.5	1.6131439	-0.061519656	0.98810875
1276880519057	-7.8589406	5.8976107	-0.5720546	0.035707474	0.0	28.4375	-38.3125	2.5	1.5588051	-0.058154482	0.927018
1276880519097	-7.1234417	5.325556	-0.61291564	-0.89145947	0.0	29.125	-38.3125	1.75	1.4628818	-0.068803854	0.92882663
1276880519127	-7.9679036	4.7943625	-0.6537767	-0.48458862	0.0	29.625	-38.3125	0.9375	1.444417	-0.07018982	1.0291209
1276880519157	-8.730643	5.9793324	-1.334794	0.85910034	0.0	29.875	-39.0625	0.4375	1.2317295	-0.12547669	0.9702988
1276880519197	-8.076866	5.6252036	-0.5720546	0.052656174	0.0	29.625	-41.125	0.4375	1.4326788	-0.058054395	0.96245104
1276880519227	-7.6273947	5.6252036	-0.61291564	-0.30950642	0.0	28.9375	-42.125	0.4375	1.4119225	-0.06458172	0.9353434
1276880519267	-7.6954966	5.47538	-0.95342433	-0.31404877	0.0	27.6875	-43.4375	1.4375	1.3985465	-0.10060833	0.95239097
1276880519307	-7.7363577	7.082581	-0.5720546	0.6977024	0.0	26.25	-44.4375	2.0	1.5248847	-0.05448577	0.8294872
1276880519347	-7.504812	7.082581	-0.50395286	0.5248127	0.0	24.75	-44.1875	2.25	1.563532	-0.048797827	0.814335
1276880519387	-7.3958488	7.3549876	-0.9942854	0.6710892	0.0	24.0	-44.1875	2.5	1.4272239	-0.095038034	0.78816825
1276880519417	-7.1234417	5.243834	-1.1168685	-0.89101124	0.0	23.3125	-43.9375	3.0	1.4490439	-0.1256007	0.93622625
1276880519457	-7.04172	4.7943625	-0.3405087	-1.2809439	0.0	22.8125	-44.1875	3.25	1.6340835	-0.039949685	0.9730379
1276880519497	-7.273266	6.5922484	-1.6889231	0.15380192	0.0	22.3125	-44.4375	3.25	1.3166474	-0.17038614	0.8344746
1276880519537	-7.3549876	6.0882955	-0.95342433	-0.2112236	0.0	21.8125	-44.9375	3.0	1.4969677	-0.09952661	0.8793457
1276880519577	-7.8180795	6.0882955	-1.56634	0.22545528	0.0	21.8125	-45.75	2.25	1.360107	-0.15677415	0.90915036
1276880519617	-7.9679036	5.243834	-0.6537767	-0.24565125	0.0	22.0625	-46.0	1.75	1.5235436	-0.068432935	0.98873425
1276880519647	-7.164303	4.7126403	-1.7297841	-1.0586004	0.0	22.8125	-46.25	1.1875	1.2864039	-0.19904542	0.98896104
1276880519687	-6.5513873	4.440233	-0.84446156	-1.8474126	0.0	23.3125	-45.75	0.6875	1.4074104	-0.106298365	0.97515666
1276880519717	-7.164303	6.5513873	-1.4573772	0.010266304	0.0	23.0625	-44.9375	0.9375	1.2370703	-0.14900649	0.83005565
1276880519747	-7.4639506	5.597963	-1.2258313	-0.3965273	0.0	23.3125	-43.4375	1.75	1.3763206	-0.13063857	0.92729527
1276880519787	-7.9270425	5.6660647	-0.9125633	-0.020176888	0.0	22.8125	-42.9375	2.5	1.498473	-0.093383074	0.9502219
1276880519827	-8.19945	5.175732	-1.1849703	-0.03816414	0.0	22.3125	-42.6875	3.75	1.5158432	-0.121604905	1.0077301
1276880519867	-8.158588	5.325556	-0.88532263	-0.023608208	0.0	22.3125	-41.875	4.25	1.59136	-0.090619616	0.99248713
1276880519897	-7.7363577	5.6660647	-0.6537767	-0.19504547	0.0	22.0625	-41.625	4.5	1.6488025	-0.06807207	0.93865836
1276880519927	-7.7772183	5.47538	-1.3075534	-0.2058897	0.0	22.0625	-40.625	5.0625	1.5402619	-0.13661727	0.95737207
1276880519967	-7.082581	6.891896	-0.6537767	0.09731865	0.0	22.3125	-40.625	5.3125	1.7442563	-0.06605962	0.7990426
1276880519997	-8.471856	6.469665	-1.0351465	0.90317917	0.0	23.0625	-40.625	5.3125	1.6326597	-0.096805	0.91860646
1276880520067	-7.9270425	5.938472	-0.88532263	0.13755608	0.0	23.3125	-40.125	5.3125	1.6526887	-0.089147024	0.9278453
1276880520097	-8.308413	5.9793324	-0.84446156	0.46443748	0.0	24.25	-39.875	4.5	1.6230284	-0.08231025	0.9469893
1276880520127	-8.580819	5.6252036	-0.8036005	0.4850521	0.0	25.5	-38.8125	4.25	1.6200192	-0.07816193	0.9905255
1276880520157	-8.008764	5.175732	-0.6537767	-0.24862099	0.0	26.0	-38.5625	4.5	1.6561738	-0.068454236	0.9970558
1276880520197	-8.308413	5.053149	-0.38136974	-0.07477093	0.0	26.4375	-38.5625	4.25	1.7041174	-0.039197713	1.0243716
1276880520237	-8.308413	4.903325	-0.14982383	-0.15808773	0.0	26.4375	-38.5625	4.5	1.7626859	-0.015528723	1.0376407
1276880520277	-7.7363577	4.6036777	-0.14982383	-0.80289936	0.0	26.25	-38.3125	4.5	1.7631527	-0.016640924	1.0340095
1276880520317	-7.3141265	4.399372	-0.19068487	-1.2692451	0.0	26.0	-38.0625	4.5	1.7541394	-0.022337083	1.0292821
1276880520357	-7.504812	4.630918	-0.3405087	-0.9814844	0.0	26.0	-38.3125	5.0625	1.749783	-0.03859341	1.0179272
1276880520397	-7.5865335	5.175732	-0.53119355	-0.607419	0.0	26.0	-38.0625	5.8125	1.7662469	-0.057775393	0.97209895
1276880520427	-7.6546354	5.434519	-0.3405087	-0.41285515	0.0	25.25	-38.5625	6.5625	1.8597838	-0.036256198	0.9534141
1276880520457	-7.7772183	5.012288	-1.56634	-0.42253685	0.0	25.5	-38.8125	7.0625	1.564219	-0.16769893	0.99830896
1276880520487	-8.499097	5.134871	-1.7297841	0.27272034	0.0	25.5	-38.3125	7.5625	1.5863298	-0.17247006	1.0273187
1276880520527	-8.471856	6.4015636	-1.4982382	0.9170189	0.0	25.0	-38.5625	8.125	1.698202	-0.14017178	0.9237036
1276880520567	-8.240311	6.0201936	-1.607201	0.5243006	0.0	24.25	-38.5625	8.125	1.6561844	-0.15620592	0.93984133
1276880520607	-7.8180795	5.7886477	-1.3756552	0.0179739	0.0	23.0625	-38.5625	7.875	1.6854769	-0.14048277	0.9334559
1276880520637	-7.4639506	5.243834	-1.0760075	-0.6215458	0.0	22.0625	-39.0625	7.875	1.7289748	-0.11741663	0.9583578
1276880520667	-7.3549876	5.053149	-1.4573772	-0.7648525	0.0	21.3125	-38.8125	7.5625	1.6254439	-0.16188844	0.9688234
1276880520707	-8.049625	5.2165933	-1.9477097	-0.01875496	0.0	21.5625	-38.8125	8.125	1.578543	-0.2003289	0.99579024
1276880520737	-8.117727	4.944186	-1.6480621	-0.15996265	0.0	21.3125	-39.0625	8.375	1.6456614	-0.17168446	1.0237414
1276880520777	-7.6546354	5.243834	-1.1849703	-0.45275307	0.0	21.0625	-39.625	7.875	1.7034343	-0.1270233	0.9701722
1276880520807	-7.6546354	5.5571017	-1.0351465	-0.29106522	0.0	21.0625	-40.125	7.0625	1.6995573	-0.109000035	0.94284695
1276880520837	-7.7772183	5.706926	-1.1441092	-0.0925827	0.0	20.625	-40.625	6.8125	1.6666486	-0.11805262	0.93774384
1276880520867	-7.7363577	5.597963	-1.1441092	-0.18909359	0.0	20.125	-41.125	7.3125	1.6842976	-0.11924287	0.944412
1276880520897	-7.7772183	5.5571017	-1.2666923	-0.16450214	0.0	19.625	-41.125	8.125	1.6978098	-0.13175116	0.9503812
1276880520927	-7.8589406	5.597963	-1.4573772	-0.0483675	0.0	19.625	-41.625	9.125	1.7044994	-0.14990856	0.9518596
1276880520967	-7.7363577	5.597963	-1.525479	-0.13630867	0.0	18.875	-42.125	10.125	1.7294705	-0.15840988	0.94441193
1276880520997	-7.6273947	5.5162406	-1.6480621	-0.25038624	0.0	18.875	-42.4375	10.875	1.7316811	-0.17332536	0.94465965
1276880521038	-7.273266	5.6660647	-1.8387469	-0.40528488	0.0	18.375	-43.4375	11.4375	1.7075047	-0.19685186	0.9089758
1276880521100	-7.6546354	5.597963	-1.7297841	-0.16700363	0.0	17.1875	-43.4375	11.9375	1.7554173	-0.18042202	0.93936014
1276880521137	-7.6954966	6.1700177	-1.8387469	0.22683239	0.0	16.9375	-42.9375	12.1875	1.7705526	-0.18430269	0.8949771
1276880521167	-7.3958488	5.5162406	-1.607201	-0.44125748	0.0	16.4375	-42.6875	11.9375	1.7776887	-0.17246433	0.92995244
1276880521207	-7.504812	5.47538	-1.334794	-0.42136002	0.0	16.1875	-42.125	11.9375	1.8273761	-0.1427058	0.94049096
1276880521237	-7.3141265	5.5571017	-1.7297841	-0.4594593	0.0	16.1875	-41.875	11.6875	1.756005	-0.18613215	0.92106754
1276880521277	-7.7363577	6.1291566	-0.6946377	0.08780861	0.0	15.9375	-42.125	10.875	1.9090936	-0.07026252	0.9007968
1276880521317	-6.932757	6.0882955	-0.8036005	-0.545104	0.0	15.6875	-42.125	10.625	1.8946635	-0.08687666	0.850161
1276880521357	-7.3141265	5.8976107	-0.95342433	-0.36274815	0.0	15.4375	-41.875	10.125	1.8353735	-0.1011289	0.8922066
1276880521397	-7.43671	5.9793324	-1.2258313	-0.185853	0.0	15.4375	-41.625	10.125	1.7947755	-0.12776203	0.8936033
1276880521427	-7.3958488	5.9793324	-1.0760075	-0.23540306	0.0	15.4375	-41.125	9.875	1.8152405	-0.112658985	0.89091116
1276880521467	-7.3958488	6.4424243	-1.1849703	0.07300377	0.0	15.0	-40.375	9.875	1.8211795	-0.12022991	0.85418713
1276880521497	-7.246025	6.238119	-0.88532263	-0.20442104	0.0	15.25	-39.375	10.125	1.8933398	-0.09233083	0.86000687
1276880521537	-7.3141265	6.1291566	-0.95342433	-0.21644592	0.0	15.0	-38.8125	9.625	1.8586818	-0.09958098	0.87331676
1276880521577	-7.3958488	6.2108784	-1.1168685	-0.084459305	0.0	14.5	-38.5625	9.625	1.8336407	-0.11513246	0.87226605
1276880521617	-7.014479	5.9793324	-0.7218784	-0.56130314	0.0	14.5	-39.0625	8.875	1.8582458	-0.07815974	0.86489487
1276880521647	-7.014479	6.0882955	-0.50395286	-0.50481033	0.0	14.0	-39.375	7.5625	1.835833	-0.0542043	0.85596687
1276880521687	-6.932757	5.9793324	-0.23154591	-0.6486397	0.0	13.5	-39.625	7.5625	1.874783	-0.025286125	0.8591041
1276880521717	-6.851035	6.3607025	-0.23154591	-0.45524216	0.0	13.25	-39.0625	6.5625	1.85186	-0.024763072	0.82249457
1276880521747	-6.0201936	5.597963	0.46309182	-1.572916	0.0	12.75	-38.3125	6.0625	1.9643797	0.056272928	0.8217245
1276880521787	-6.5513873	7.246025	-0.53119355	-0.023617744	0.0	12.3125	-38.0625	5.3125	1.7708014	-0.054324146	0.73509514
1276880521817	-8.430995	7.5865335	0.50395286	1.5463724	0.0	12.3125	-37.0625	3.75	1.8363438	0.044403903	0.83807045
1276880521847	-6.701211	6.851035	0.50395286	-0.20993805	0.0	12.5	-36.3125	3.5	1.8833429	0.05253724	0.7743433
1276880521877	-6.4015636	6.5513873	-0.5720546	-0.6290722	0.0	12.75	-35.0	3.5	1.6603386	-0.062372196	0.7738319
1276880521907	-6.701211	7.014479	-0.88532263	-0.06534958	0.0	13.0	-33.75	4.5	1.6744466	-0.09100899	0.76256204
1276880521937	-6.8237944	6.8237944	-0.7627395	-0.12625217	0.0	13.0	-32.4375	6.0625	1.8209745	-0.07887392	0.7853982
1276880521977	-6.5922484	6.3607025	-0.88532263	-0.6033859	0.0	13.0	-31.9375	6.3125	1.7995856	-0.09634557	0.8032722
1276880522017	-6.5922484	6.8237944	-0.53119355	-0.3038044	0.0	13.25	-31.4375	6.3125	1.9229056	-0.055927515	0.768141
1276880522057	-6.3607025	6.5922484	-0.61291564	-0.62558556	0.0	13.5	-31.1875	5.5625	1.8502204	-0.06680836	0.7675241
1276880522087	-6.1291566	6.66035	-0.7627395	-0.72322655	0.0	13.75	-31.1875	4.25	1.708642	-0.08406948	0.7438885
1276880522117	-6.238119	6.851035	-0.50395286	-0.5273838	0.0	14.5	-30.1875	3.25	1.7260354	-0.05433629	0.7386061
1276880522157	-5.434519	6.5513873	-0.19068487	-1.2924833	0.0	14.75	-29.625	2.5	1.8017117	-0.022398058	0.6924846
1276880522187	-5.706926	6.973618	-1.3756552	-0.6911268	0.0	15.9375	-28.625	2.0	1.108278	-0.15149225	0.6858359
1276880522217	-6.238119	8.730643	-1.334794	1.0063019	0.0	17.9375	-28.375	0.9375	0.5351455	-0.12375969	0.62039703
1276880522247	-6.2789803	8.430995	-0.3405087	0.7111063	0.0	19.125	-28.875	0.1875	1.1164515	-0.032380313	0.64013237
1276880522287	-5.7477865	8.158588	-0.29964766	0.17780781	0.0	20.625	-28.875	-0.8125	-0.12235418	-0.030015916	0.61374474
1276880522327	-3.9090397	7.082581	-0.95342433	-1.6609421	0.0	21.5625	-29.625	-1.625	-0.66083354	-0.117315136	0.5043184
1276880522367	-3.759216	6.1700177	-1.1441092	-2.49161	0.0	21.5625	-30.9375	-1.625	-0.2999335	-0.15704986	0.5472089
1276880522407	-5.9793324	8.662541	-2.0294318	0.9129877	0.0	21.8125	-33.75	-0.8125	0.14429718	-0.19046862	0.60415334
1276880522437	-6.0474343	9.80665	-0.46309182	1.7240171	0.0	21.3125	-37.8125	-0.5625	0.6375948	-0.04017256	0.55258435
1276880522477	-4.671779	8.853226	-0.53119355	0.21768475	0.0	19.875	-41.875	-0.8125	0.5417808	-0.053015232	0.48555526
1276880522517	-3.486809	8.349273	-1.2666923	-0.670311	0.0	17.9375	-45.1875	-1.0625	0.11012172	-0.13909136	0.3956017
1276880522557	-3.568531	8.771504	-0.9942854	-0.2849741	0.0	15.6875	-47.5	-1.625	0.4583572	-0.10461407	0.38638234
1276880522597	-3.486809	9.466142	-0.8036005	0.3132038	0.0	14.0	-48.5625	-1.625	0.5755479	-0.079492	0.35292372
1276880522627	-3.486809	9.043911	-0.9125633	-0.07099724	0.0	12.75	-49.0625	-1.0625	0.78316057	-0.09387197	0.36798093
1276880522670	-3.5957718	8.771504	-0.9125633	-0.2829094	0.0	12.0625	-50.3125	-1.0625	0.9261074	-0.09596708	0.38904405
1276880522707	-3.405087	8.812365	-1.0351465	-0.30276108	0.0	11.5625	-50.0625	-1.0625	0.83316094	-0.10913472	0.3687265
1276880522737	-3.336985	8.076866	-1.2258313	-0.9820318	0.0	12.3125	-50.0625	-1.0625	0.7604589	-0.13936105	0.39179388
1276880522767	-3.5957718	7.7363577	-1.4982382	-1.1449223	0.0	12.75	-50.0625	-0.8125	0.78310055	-0.17384656	0.43508393
1276880522807	-3.5957718	8.499097	-1.1168685	-0.5108652	0.0	13.25	-49.5625	0.4375	0.897499	-0.12043881	0.40024066
1276880522847	-3.336985	8.689782	-1.1441092	-0.42812347	0.0	14.25	-49.5625	0.9375	0.69663453	-0.12229706	0.36664855
1276880522877	-3.2961242	8.62168	-1.1849703	-0.50063324	0.0	14.0	-49.5625	1.75	0.76693565	-0.1276804	0.3651609
1276880522907	-3.5276701	8.62168	-1.1849703	-0.41612434	0.0	14.0	-49.5625	2.0	0.9147745	-0.12652516	0.38838023
1276880522937	-3.486809	8.539958	-1.2666923	-0.4957304	0.0	14.25	-49.3125	1.4375	0.7788182	-0.1364669	0.3876354
1276880522977	-3.445948	8.539958	-1.3075534	-0.5052986	0.0	14.0	-49.3125	2.0	0.8121099	-0.1410439	0.3835275
1276880523017	-3.6774938	8.430995	-1.1168685	-0.5409584	0.0	14.5	-49.3125	1.4375	0.9371904	-0.12083187	0.41130817
1276880523057	-3.445948	8.19945	-0.8036005	-0.8762913	0.0	14.75	-49.3125	0.9375	0.98285127	-0.09010713	0.39785388
1276880523097	-3.718355	8.281172	-0.88532263	-0.6859169	0.0	14.75	-49.8125	0.9375	1.0415212	-0.09722012	0.42203295
1276880523127	-2.7921712	9.193735	-1.525479	-0.07792568	0.0	14.25	-49.8125	0.1875	0.105473496	-0.15745129	0.29485118
1276880523167	-3.1054392	8.689782	-0.9942854	-0.5252352	0.0	12.75	-50.3125	0.4375	0.7679308	-0.10733245	0.3432225
1276880523197	-3.1463003	8.689782	-1.1849703	-0.48915768	0.0	11.8125	-50.8125	0.6875	0.8090423	-0.12752229	0.34738594
1276880523227	-3.1463003	8.894087	-1.0760075	-0.31129456	0.0	11.0625	-51.0625	0.4375	0.88159466	-0.113563284	0.34001336
1276880523257	-3.173541	8.62168	-0.61291564	-0.59902287	0.0	11.5625	-52.125	-0.0625	1.1063662	-0.066615336	0.35269752
1276880523297	-3.173541	8.308413	-0.95342433	-0.86181355	0.0	12.3125	-52.875	-0.5625	0.8637678	-0.10679223	0.36486486
1276880523337	-3.255263	8.662541	-0.7627395	-0.5212774	0.0	12.75	-53.125	-1.3125	0.8644327	-0.08223686	0.35945973
1276880523377	-4.399372	8.240311	-0.6946377	-0.43970203	0.0	13.25	-53.375	-1.625	1.1778351	-0.07422652	0.49038616
1276880523417	-3.718355	8.771504	-0.53119355	-0.26476192	0.0	13.75	-53.875	-2.625	0.97434723	-0.05569844	0.4009496
1276880523447	-3.445948	8.62168	-0.53119355	-0.5066452	0.0	14.5	-54.375	-3.875	0.76044995	-0.057148658	0.38023394
1276880523487	-3.445948	8.580819	-0.50395286	-0.54603577	0.0	15.6875	-55.1875	-4.375	0.6771697	-0.05444584	0.38187397
1276880523517	-3.173541	8.049625	-0.7218784	-1.1239691	0.0	16.6875	-55.6875	-4.9375	0.4662597	-0.08323611	0.37553713
1276880523557	-3.636633	8.308413	-0.9125633	-0.691411	0.0	16.1875	-55.9375	-4.125	0.6555126	-0.10028203	0.4125824
1276880523597	-3.636633	8.894087	-1.0351465	-0.14221	0.0	15.4375	-55.6875	-3.625	0.60804385	-0.107314646	0.3881398
1276880523627	-4.399372	9.656827	-0.23154591	0.8076048	0.0	13.75	-55.9375	-3.125	1.1832061	-0.021816349	0.42747727
1276880523667	-4.8216033	9.765789	0.38136974	1.0912361	0.0	12.5	-55.9375	-3.125	1.4843917	0.03500198	0.4586141
1276880523697	-4.140586	8.689782	-0.27240697	-0.17695808	0.0	11.5625	-55.1875	-2.875	1.2497069	-0.028292006	0.44466254
1276880523727	-3.9771416	8.158588	-0.14982383	-0.7290592	0.0	10.8125	-54.625	-2.875	1.3120288	-0.016505549	0.45358083
1276880523757	-3.8273177	8.076866	-0.29964766	-0.8638363	0.0	10.8125	-54.625	-2.875	1.3120288	-0.016505549	0.45358083
1276880523797	-3.8681788	8.19945	-0.53119355	-0.72502327	0.0	10.5625	-54.375	-2.875	1.1559588	-0.05852442	0.4408021
1276880523837	-3.9499009	8.158588	-0.3405087	-0.7358055	0.0	10.5625	-54.9375	-2.875	1.2433747	-0.03754763	0.45087948
1276880523877	-4.0588636	8.771504	-0.14982383	-0.14041424	0.0	10.5625	-55.6875	-2.625	1.3239939	-0.015500328	0.43339202
1276880523911	-3.759216	8.349273	-0.42223078	-0.64038944	0.0	10.5625	-55.4375	-2.875	1.1805589	-0.046079885	0.4230574
1276880523947	-3.636633	8.471856	-0.50395286	-0.5734806	0.0	10.3125	-55.6875	-3.125	1.1141901	-0.054607835	0.40547374
1276880523987	-3.6774938	8.580819	-0.53119355	-0.45589733	0.0	10.3125	-55.6875	-2.875	1.1213782	-0.056838173	0.40489176
1276880524027	-3.718355	8.580819	-0.50395286	-0.44125748	0.0	10.5625	-55.4375	-2.875	1.1295034	-0.05383612	0.40890783
1276880524067	-3.5957718	8.471856	-0.50395286	-0.5894985	0.0	10.5625	-55.4375	-2.375	1.1468433	-0.05470283	0.40139395
1276880524107	-3.636633	8.580819	-0.3405087	-0.48079872	0.0	11.0625	-55.4375	-1.3125	1.2874645	-0.036520462	0.4008619
1276880524137	-3.486809	8.499097	-0.23154591	-0.6171942	0.0	10.8125	-55.4375	-1.625	1.3037199	-0.02519958	0.3893167
1276880524167	-3.445948	8.580819	-0.27240697	-0.55574703	0.0	10.3125	-55.1875	-1.0625	1.331466	-0.029450785	0.38187397
1276880524197	-3.405087	8.730643	-0.27240697	-0.43152618	0.0	9.8125	-55.1875	-0.5625	1.375375	-0.029060448	0.37186962
1276880524227	-3.2961242	8.62168	-0.14982383	-0.5751686	0.0	9.125	-55.1875	-0.5625	1.4416972	-0.016230376	0.3651609
1276880524257	-3.3642259	8.689782	-0.14982383	-0.4871664	0.0	8.875	-54.9375	-0.3125	1.468404	-0.016077101	0.3693776
1276880524297	-3.445948	8.662541	-0.14982383	-0.48266888	0.0	9.125	-55.1875	-0.5625	1.450523	-0.016069345	0.37860727
1276880524337	-3.486809	8.539958	-0.0	-0.5822954	0.0	8.875	-55.4375	-0.3125	1.54627	-0.0	0.3876354
1276880524377	-3.445948	8.689782	-0.10896278	-0.45792103	0.0	8.875	-55.6875	-0.0625	1.5135219	-0.011655621	0.3775302
1276880524407	-3.2961242	8.771504	-0.10896278	-0.43565273	0.0	8.375	-55.4375	0.4375	1.55363	-0.011627923	0.35945114
1276880524437	-3.3642259	8.853226	-0.040861044	-0.33567905	0.0	7.875	-55.6875	0.6875	1.6070805	-0.0043143593	0.36314702
1276880524477	-3.3642259	8.771504	-0.23154591	-0.40926075	0.0	7.875	-55.6875	0.6875	1.6070805	-0.0043143593	0.36314702
1276880524517	-3.405087	8.689782	-0.10896278	-0.4729042	0.0	7.875	-55.4375	0.4375	1.5553913	-0.011674333	0.3734604
1276880524557	-3.405087	8.689782	-0.23154591	-0.4706688	0.0	8.625	-55.9375	0.4375	1.495611	-0.024803996	0.3734604
1276880524597	-3.2961242	8.539958	-0.10896278	-0.6520233	0.0	8.875	-55.9375	0.6875	1.5731803	-0.011902763	0.36834893
1276880524627	-3.3642259	8.812365	-0.14982383	-0.37276268	0.0	9.375	-56.1875	0.4375	1.5309887	-0.01588212	0.36468577
1276880524667	-3.3642259	8.771504	-0.19068487	-0.41017914	0.0	9.375	-56.9375	0.6875	1.5313207	-0.020294636	0.36623698
1276880524697	-3.336985	8.662541	-0.23154591	-0.52070904	0.0	9.8125	-58.0	0.1875	1.46429	-0.02493769	0.36770052
1276880524727	-3.3642259	8.580819	-0.29964766	-0.58503056	0.0	9.8125	-58.5	0.4375	1.4527612	-0.03249976	0.3736459
1276880524757	-3.3642259	8.812365	-0.29964766	-0.36919403	0.0	10.0625	-58.75	0.4375	1.4485501	-0.03175623	0.36468577
1276880524797	-3.445948	8.499097	-0.14982383	-0.6343193	0.0	10.8125	-58.5	0.4375	1.5278099	-0.016335052	0.3851947
1276880524827	-3.336985	8.662541	-0.3405087	-0.51735306	0.0	10.5625	-58.0	0.6875	1.4408942	-0.03666424	0.36770052
1276880524867	-3.173541	8.430995	-0.10896278	-0.797493	0.0	10.8125	-58.25	0.4375	1.5450402	-0.012094965	0.36000943
1276880524897	-3.1054392	8.62168	-0.38136974	-0.63481426	0.0	9.8125	-58.5	0.1875	1.3624436	-0.041592516	0.34572336
1276880524927	-2.982856	8.539958	-0.27240697	-0.756649	0.0	8.375	-58.75	-0.0625	1.4137988	-0.03010476	0.33603528
1276880524957	-2.8330324	8.580819	-0.19068487	-0.76823807	0.0	6.9375	-59.25	-0.0625	1.4631587	-0.02109873	0.31889072
1276880524997	-2.6832085	8.771504	-0.3405087	-0.6276064	0.0	4.6875	-59.25	-0.0625	1.4000813	-0.037104826	0.29686135
1276880525037	-2.4108016	8.771504	-0.29964766	-0.7049446	0.0	3.25	-59.5	-0.0625	1.415377	-0.032928094	0.26822186
1276880525077	-2.4108016	9.084772	-0.040861044	-0.40735626	0.0	1.75	-60.0	-0.5625	1.5112553	-0.0043472596	0.25938892
1276880525117	-2.4516625	8.580819	-0.19068487	-0.8804264	0.0	0.3125	-60.0	-0.3125	1.4755098	-0.021363946	0.27829966
1276880525147	-2.8738933	9.152874	0.040861044	-0.21310902	0.0	0.0625	-59.5	-0.3125	1.5668204	0.0042592376	0.30424
1276880525177	-2.7921712	9.765789	0.040861044	0.3505411	0.0	-0.1875	-58.75	-0.3125	1.5655628	0.004022879	0.27848387
1276880525207	-2.7513103	9.084772	-0.040861044	-0.31431293	0.0	-0.6875	-58.0	-0.3125	1.5392889	-0.0043046484	0.29406813
1276880525237	-2.8738933	8.499097	0.14982383	-0.83355904	0.0	-0.6875	-57.4375	-1.0625	1.5625273	0.01669779	0.3260712
1276880525277	-2.8330324	8.689782	0.10896278	-0.6660671	0.0	-1.1875	-57.4375	-2.375	1.479764	0.011921051	0.3151531
1276880525317	-3.214402	9.234595	0.23154591	-0.025865555	0.0	-1.625	-57.1875	-2.625	1.5040959	0.023675762	0.33496565
1276880525357	-2.9556155	8.580819	0.14982383	-0.7298355	0.0	-1.1875	-56.9375	-2.625	1.482423	0.01650696	0.331717
1276880525397	-3.336985	8.894087	0.313268	-0.3019991	0.0	-0.6875	-56.4375	-2.875	1.51517	0.032965414	0.3589385
1276880525427	-3.1054392	8.812365	0.19068487	-0.46117592	0.0	-0.4375	-56.6875	-2.125	1.5170071	0.020405395	0.33880746
1276880525457	-3.214402	8.308413	0.27240697	-0.8939457	0.0	-0.1875	-56.6875	-1.875	1.558178	0.030568656	0.36914966
1276880525497	-3.336985	9.152874	0.38136974	-0.056982994	0.0	-0.4375	-56.6875	-2.375	1.5558802	0.039126165	0.3496071
1276880525537	-3.1463003	8.580819	0.3405087	-0.6608534	0.0	-0.6875	-56.9375	-2.375	1.5514429	0.037239775	0.35144478
1276880525577	-3.0645783	9.00305	0.313268	-0.29115295	0.0	-0.6875	-56.4375	-2.375	1.5377837	0.032927822	0.32809106
1276880525617	-2.7921712	8.894087	0.38136974	-0.47678185	0.0	-1.375	-56.6875	-2.375	1.561007	0.040887613	0.3041923
1276880525647	-2.4516625	8.580819	0.19068487	-0.8804264	0.0	-2.125	-56.6875	-2.375	1.5015095	0.021363946	0.27829966
1276880525687	-2.4108016	8.921328	0.19068487	-0.5633602	0.0	-3.125	-56.9375	-2.375	1.5005497	0.02063101	0.26392528
1276880525717	-2.5333846	9.00305	0.42223078	-0.4444275	0.0	-4.125	-56.4375	-1.875	1.5981369	0.045114722	0.27429888
1276880525747	-2.4516625	9.507003	0.3405087	0.017284393	0.0	-4.5625	-55.6875	-1.625	1.5820125	0.034668077	0.25238094
1276880525787	-2.2201166	9.888372	0.3405087	0.3336048	0.0	-4.8125	-55.9375	-0.8125	1.6288629	0.033586208	0.22085552
1276880525827	-2.4516625	8.471856	0.38136974	-0.9789419	0.0	-4.8125	-55.4375	-0.8125	1.642108	0.04321489	0.2816938
1276880525867	-2.6832085	8.853226	0.10896278	-0.5551052	0.0	-4.8125	-55.6875	-1.0625	1.5490639	0.011778065	0.29427728
1276880525907	-2.3018389	9.084772	0.23154591	-0.431942	0.0	-4.5625	-55.6875	-1.3125	1.5704381	0.024701511	0.24815102
1276880525937	-2.6832085	8.430995	0.313268	-0.95343494	0.0	-3.625	-54.9375	-1.0625	1.6081471	0.035392046	0.30811945
1276880525977	-2.6832085	8.812365	0.23154591	-0.5919342	0.0	-3.125	-54.9375	-1.0625	1.5831993	0.025130486	0.29556385
1276880526017	-2.6832085	8.894087	0.3405087	-0.510396	0.0	-2.875	-54.375	-0.8125	1.6284018	0.03663679	0.29300153
1276880526057	-2.8330324	8.894087	0.14982383	-0.47105694	0.0	-3.125	-54.125	-1.625	1.5289572	0.016049357	0.3083688
1276880526097	-2.6014864	8.894087	0.42223078	-0.53029346	0.0	-3.875	-53.625	-1.875	1.5931706	0.04553261	0.28455842
1276880526127	-2.6832085	8.771504	0.3405087	-0.6276064	0.0	-4.3125	-52.875	-1.3125	1.5971942	0.037104826	0.29686135
1276880526167	-2.4108016	8.894087	0.14982383	-0.59040356	0.0	-4.3125	-53.125	-2.125	1.4984167	0.016257206	0.26469645
1276880526197	-2.5333846	9.193735	0.50395286	-0.25695038	0.0	-4.3125	-53.125	-1.875	1.6129112	0.052796114	0.2688826
1276880526227	-2.5333846	8.921328	0.27240697	-0.528594	0.0	-4.8125	-53.375	-2.125	1.5367032	0.02936457	0.27668574
1276880526257	-2.6014864	9.152874	0.313268	-0.28609467	0.0	-4.5625	-53.125	-2.375	1.5320427	0.032910325	0.27692333
1276880526297	-2.8330324	8.662541	0.42223078	-0.68283653	0.0	-4.8125	-52.375	-2.125	1.5761563	0.046294417	0.31607956
1276880526337	-2.5606253	8.662541	0.3405087	-0.7671604	0.0	-4.5625	-52.125	-2.125	1.5556939	0.037677933	0.2874129
1276880526377	-2.4108016	8.539958	0.42223078	-0.9228935	0.0	-4.3125	-52.125	-1.875	1.5956756	0.047546316	0.27513713
1276880526417	-2.4108016	8.580819	0.10896278	-0.8929367	0.0	-5.0625	-52.875	-1.875	1.5046967	0.012224479	0.27389163
1276880526447	-2.1111538	8.281172	0.50395286	-1.2457657	0.0	-4.8125	-53.625	-2.375	1.6052896	0.058900967	0.24961719
1276880526477	-2.3426998	8.19945	0.46309182	-1.2665291	0.0	-5.0625	-53.375	-3.125	1.5496589	0.05425205	0.27829966
1276880526507	-2.0294318	8.771504	0.50395286	-0.7893419	0.0	-5.5625	-53.625	-3.875	1.5126458	0.055916417	0.22736579
1276880526537	-2.4108016	8.921328	0.38136974	-0.55746174	0.0	-6.5625	-53.375	-4.625	1.4447577	0.041244473	0.26392528
1276880526567	-2.2201166	8.689782	0.38136974	-0.8296423	0.0	-8.0	-52.625	-5.1875	1.4226491	0.042495735	0.25013515
1276880526597	-1.6889231	8.471856	0.27240697	-1.1637907	0.0	-9.6875	-53.125	-5.1875	1.3915898	0.031523373	0.19677714
1276880526627	-1.525479	9.302697	0.38136974	-0.37199593	0.0	-11.1875	-52.625	-5.1875	1.4107296	0.040433243	0.16253586
1276880526671	-2.6014864	10.310603	0.27240697	0.8305712	0.0	-11.6875	-52.125	-4.625	1.4304551	0.025611645	0.24715325
1276880526767	-1.334794	9.343558	0.3405087	-0.36209106	0.0	-12.4375	-52.125	-3.625	1.4783127	0.03606124	0.14189707
1276880527065	-0.23154591	8.921328	-0.53119355	-0.86652374	0.0	-12.4375	-51.5625	-2.875	1.1652004	-0.0594518	0.025948374
1276880527112	-1.7978859	8.662541	0.84446156	-0.91929245	0.0	-11.1875	-53.125	-5.1875	1.5506824	0.09516186	0.20464182
1276880527147	-2.2609777	9.043911	1.0760075	-0.4225073	0.0	-10.4375	-54.9375	-7.6875	1.4935148	0.11491506	0.24497867
1276880527190	-2.4108016	8.539958	0.6537767	-0.90888214	0.0	-9.25	-56.6875	-11.3125	1.273041	0.07354276	0.2751371
1276880527239	-2.5333846	8.962189	1.4982382	-0.37353897	0.0	-8.75	-58.25	-14.125	1.351002	0.15950306	0.2754873
1276880527288	-1.9885708	8.921328	1.2258313	-0.584548	0.0	-9.5	-58.0	-14.375	1.2614179	0.13331777	0.21931547
1276880527330	-1.7570249	8.962189	1.1168685	-0.6058159	0.0	-10.1875	-57.1875	-14.625	1.209196	0.121687844	0.19359331
1276880527367	-1.8387469	8.662541	0.6946377	-0.9239063	0.0	-11.4375	-56.6875	-13.8125	1.1740252	0.078280725	0.20915972
1276880527412	-1.8387469	8.962189	1.2666923	-0.570508	0.0	-12.4375	-56.4375	-13.5625	1.3133227	0.13757877	0.20235904
1276880527460	-1.7978859	9.043911	1.4982382	-0.46483898	0.0	-13.625	-56.1875	-12.8125	1.3984082	0.16107546	0.19623682
1276880527508	-1.4982382	8.689782	0.95342433	-0.9372616	0.0	-14.125	-56.4375	-12.5625	1.2904408	0.10770417	0.1707352
1276880527555	-1.8387469	8.962189	0.61291564	-0.63727283	0.0	-14.875	-55.6875	-12.8125	1.223099	0.06689364	0.20235902
1276880527597	-2.4925237	9.507003	1.1849703	0.09284115	0.0	-15.3125	-54.625	-14.125	1.2933553	0.11998782	0.25640675
1276880527656	-2.4925237	8.853226	0.9942854	-0.55565643	0.0	-15.5625	-53.375	-15.625	1.2292871	0.10768678	0.27443478
1276880527727	-2.1792557	9.275456	1.607201	-0.1440239	0.0	-16.3125	-52.125	-17.125	1.2555525	0.16710836	0.23076327
1276880527761	-2.0294318	8.689782	0.7218784	-0.8538847	0.0	-16.5625	-52.125	-18.1875	1.0972567	0.080719516	0.22943011
1276880527797	-2.2201166	9.084772	0.8036005	-0.42007637	0.0	-16.8125	-52.125	-17.6875	1.1275191	0.08571662	0.23968022
1276880527827	-2.0294318	8.662541	0.8036005	-0.8733425	0.0	-16.8125	-53.125	-16.875	1.1573393	0.0900773	0.23012643
1276880527867	-1.7978859	8.499097	0.3405087	-1.1128025	0.0	-16.8125	-53.375	-15.625	1.1084131	0.039176647	0.20846523
1276880527907	-1.4573772	7.9679036	0.92618364	-1.6537819	0.0	-17.0625	-53.625	-14.375	1.254934	0.11384796	0.18090628
1276880527937	0.8036005	5.7886477	0.38136974	-3.950059	0.0	-17.0625	-53.875	-13.3125	0.7768232	0.06516415	-0.1379419
1276880527967	-1.7570249	9.466142	0.53119355	-0.16418457	0.0	-17.5625	-52.875	-12.8125	1.2116404	0.05511688	0.18352298
1276880527997	-1.8387469	9.80665	0.7218784	0.1969738	0.0	-18.0625	-52.625	-11.8125	1.2775341	0.07222447	0.18534796
1276880528038	-1.607201	9.534244	0.95342433	-0.09099674	0.0	-19.5	-51.3125	-11.0625	1.3455005	0.098290995	0.16700138
1276880528077	-1.4573772	10.841797	1.1849703	1.1966515	0.0	-20.9375	-50.0625	-10.0	1.3940006	0.1079015	0.13362114
1276880528117	-0.23154591	9.575105	0.7218784	-0.201581	0.0	-22.4375	-49.5625	-9.25	1.3404684	0.07522691	0.024177365
1276880528148	-0.6946377	8.853226	0.95342433	-0.87518024	0.0	-23.4375	-49.0625	-8.75	1.4365381	0.10695266	0.078301124
1276880528187	-1.607201	10.038197	0.7627395	0.38796902	0.0	-23.1875	-49.3125	-8.5	1.4058993	0.07488783	0.15876108
1276880528219	-0.7627395	9.084772	0.7627395	-0.6580639	0.0	-22.9375	-49.3125	-8.5	1.4043357	0.08346928	0.08376158
1276880528258	-0.9125633	8.894087	0.7218784	-0.8367748	0.0	-22.1875	-49.5625	-8.75	1.3908281	0.080565214	0.102245584
1276880528297	-0.9942854	8.539958	0.7627395	-1.1752386	0.0	-21.1875	-49.3125	-8.75	1.4003465	0.08848329	0.115905605
1276880528347	-0.9942854	8.499097	0.53119355	-1.23312	0.0	-20.5	-49.3125	-9.0	1.3412803	0.0619971	0.11645783
1276880528387	-1.7978859	10.228881	0.6537767	0.59958935	0.0	-19.75	-49.5625	-9.5	1.3385713	0.06286686	0.17398846
1276880528427	-0.88532263	8.812365	0.6946377	-0.9227276	0.0	-19.25	-49.5625	-9.5	1.3360524	0.078270316	0.10012773
1276880528457	-1.4982382	9.615966	0.6946377	-0.04990673	0.0	-19.0	-49.8125	-10.0	1.3233922	0.07125593	0.15456463
1276880528497	-1.1168685	9.507003	0.61291564	-0.21466541	0.0	-19.0	-49.5625	-9.75	1.3044373	0.06394229	0.11694249
1276880528527	-1.4165162	10.528529	0.8036005	0.8470917	0.0	-19.0	-49.3125	-9.5	1.339711	0.07550065	0.13373767
1276880528577	-0.84446156	10.528529	0.53119355	0.76903915	0.0	-19.0	-48.5625	-9.5	1.2678665	0.05024894	0.08003564
1276880528607	-0.95342433	7.014479	0.6537767	-2.697546	0.0	-19.25	-48.5625	-9.0	1.3864983	0.09209342	0.13509443
1276880528780	-0.7218784	9.275456	0.92618364	-0.45715714	0.0	-19.0	-48.25	-8.25	1.4138494	0.09922519	0.077670164
1276880529027	-2.6014864	8.921328	-0.27240697	-0.50976753	0.0	-19.0	-47.5	-8.0	1.287634	-0.029305087	0.28373548
1276880529070	-2.1383946	8.730643	-0.10896278	-0.8172827	0.0	-19.0	-47.5	-7.4375	1.3099799	-0.012121593	0.24020103
1276880529107	-1.879608	8.921328	0.14982383	-0.6882372	0.0	-19.0	-47.0	-6.6875	1.3619018	0.01643165	0.20765011
1276880529147	-1.8387469	9.084772	0.23154591	-0.5347748	0.0	-19.25	-46.75	-6.1875	1.3902545	0.024975529	0.19970103
1276880529177	-1.7978859	9.507003	-0.0	-0.13113976	0.0	-19.0	-47.0	-4.625	1.4035922	-0.0	0.1869045
1276880529207	-1.7978859	9.425281	-0.040861044	-0.21133995	0.0	-19.25	-47.0	-3.625	1.434319	-0.0042584524	0.1884871
1276880529237	-1.2666923	9.152874	-0.19068487	-0.56457424	0.0	-19.25	-46.75	-3.875	1.3855153	-0.020633718	0.13751933
1276880529267	-0.9125633	8.962189	-0.23154591	-0.795146	0.0	-19.25	-46.5	-3.875	1.3637494	-0.025697308	0.10147398
1276880529297	-0.9942854	9.043911	0.040861044	-0.70815563	0.0	-19.25	-46.25	-4.375	1.3997629	0.0044909823	0.109500006
1276880529327	-1.1441092	9.152874	0.14982383	-0.5813303	0.0	-18.75	-46.0	-4.625	1.4108925	0.016241215	0.124354996
1276880529357	-1.1849703	9.193735	0.19068487	-0.5349035	0.0	-18.75	-46.0	-4.625	1.4108925	0.016241215	0.124354996
1276880529397	-1.334794	9.152874	0.27240697	-0.55294895	0.0	-18.75	-46.25	-4.625	1.4385687	0.029441874	0.1448125
1276880529437	-1.4573772	9.193735	0.23154591	-0.49524212	0.0	-19.0	-46.5	-4.9375	1.4233707	0.024869468	0.15721041
1276880529467	-1.4165162	9.112013	0.19068487	-0.5832205	0.0	-19.25	-46.75	-5.1875	1.4084209	0.02067544	0.15422148
1276880529507	-1.3756552	9.112013	0.19068487	-0.58940697	0.0	-19.5	-46.5	-5.4375	1.3991672	0.020689316	0.14984003
1276880529547	-1.3756552	9.152874	0.10896278	-0.550334	0.0	-20.0	-46.25	-6.1875	1.3606882	0.011771995	0.149181
1276880529587	-1.334794	9.084772	0.23154591	-0.6214247	0.0	-20.25	-45.75	-6.6875	1.3632798	0.025211189	0.14588276
1276880529627	-1.2666923	9.152874	0.23154591	-0.5636406	0.0	-20.5	-45.5	-6.9375	1.3529165	0.025053542	0.13751933
1276880529657	-1.334794	9.112013	0.27240697	-0.5933628	0.0	-20.5	-45.75	-6.6875	1.3715751	0.02957106	0.14545277
1276880529767	-1.334794	9.084772	0.10896278	-0.6236973	0.0	-20.75	-46.5	-7.1875	1.3308382	0.011866046	0.14588276
1276880529797	-1.3756552	9.112013	0.08172209	-0.5910177	0.0	-21.1875	-46.5	-7.4375	1.3229642	0.008867884	0.14984004
1276880529827	-1.4165162	9.152874	0.19068487	-0.5428505	0.0	-22.1875	-46.0	-7.1875	1.3559421	0.020585326	0.15354379
1276880529867	-1.56634	9.112013	0.313268	-0.555686	0.0	-21.9375	-46.0	-6.6875	1.3933651	0.033869755	0.1702346
1276880529907	-1.4982382	8.962189	0.38136974	-0.7120924	0.0	-21.6875	-45.5	-6.6875	1.4011316	0.041946143	0.16564153
1276880529947	-1.3756552	9.112013	0.38136974	-0.5834923	0.0	-21.6875	-45.5	-6.6875	1.4011316	0.041946143	0.16564153
1276880529977	-1.2666923	9.302697	0.46309182	-0.40669632	0.0	-21.9375	-45.75	-6.4375	1.4164515	0.049285278	0.1353317
1276880530007	-1.2666923	9.234595	0.23154591	-0.48270988	0.0	-21.6875	-46.0	-6.6875	1.3706504	0.024836037	0.13631745
1276880530047	-1.0760075	9.084772	-0.08172209	-0.65801334	0.0	-21.4375	-46.5	-5.9375	1.3385999	-0.008932826	0.11789156
1276880530087	-0.61291564	9.302697	-0.29964766	-0.47896957	0.0	-20.9375	-46.25	-5.1875	1.300814	-0.032130092	0.06579071
1276880530127	-0.6946377	9.275456	-0.14982383	-0.50401306	0.0	-20.25	-46.0	-5.1875	1.3260541	-0.01610622	0.07475033
1276880530167	-0.9942854	9.193735	-0.040861044	-0.5592165	0.0	-20.25	-46.25	-4.625	1.3811715	-0.00441865	0.10772944
1276880530207	-1.4982382	9.152874	0.10896278	-0.53132343	0.0	-20.0	-46.0	-5.1875	1.3997883	0.011747865	0.16225152
1276880530237	-1.7297841	9.084772	-0.0	-0.5586643	0.0	-20.25	-46.0	-5.4375	1.3822509	-0.0	0.18815261
1276880530267	-1.4982382	9.152874	-0.10896278	-0.53132343	0.0	-20.5	-46.0	-5.1875	1.3682196	-0.011747865	0.16225152
1276880530297	-1.3075534	9.152874	-0.10896278	-0.5602093	0.0	-20.25	-45.5	-5.4375	1.3503479	-0.0117845675	0.14189705
1276880530337	-1.1168685	9.193735	-0.29964766	-0.54047775	0.0	-21.1875	-45.1875	-5.6875	1.3105266	-0.032343443	0.12088911
1276880530377	-1.1168685	9.112013	-0.29964766	-0.6215553	0.0	-20.75	-45.5	-5.4375	1.3153026	-0.032629043	0.12196265
1276880530417	-1.1168685	9.112013	-0.3405087	-0.6201315	0.0	-20.5	-45.75	-5.4375	1.3060849	-0.037074625	0.12196265
1276880530447	-1.1849703	9.234595	-0.29964766	-0.49151802	0.0	-20.75	-45.5	-5.1875	1.3272983	-0.032173388	0.12762119
1276880530477	-1.2666923	9.234595	-0.23154591	-0.48270988	0.0	-20.0	-46.0	-4.625	1.3559529	-0.024836037	0.13631745
1276880530517	-1.334794	9.234595	-0.14982383	-0.47488308	0.0	-20.5	-45.5	-4.625	1.3755301	-0.016055936	0.1435486
1276880530557	-1.334794	9.084772	-0.19068487	-0.62236404	0.0	-20.25	-45.1875	-4.375	1.376278	-0.02076357	0.14588277
1276880530597	-1.4165162	9.112013	-0.14982383	-0.58397484	0.0	-20.5	-45.5	-4.125	1.396282	-0.016245876	0.15422149
1276880530637	-1.4165162	9.084772	-0.10896278	-0.6114626	0.0	-20.25	-45.1875	-3.875	1.4102739	-0.011850257	0.15467659
1276880530677	-1.4165162	9.112013	-0.040861044	-0.5851011	0.0	-20.0	-45.75	-4.125	1.4112238	-0.0044310535	0.15422148
1276880530708	-1.4982382	9.152874	-0.040861044	-0.53187275	0.0	-20.25	-45.75	-4.375	1.405753	-0.0044056233	0.16225152
1276880530747	-1.4573772	9.193735	-0.040861044	-0.49803162	0.0	-19.75	-45.75	-4.375	1.4014602	-0.004389607	0.15721042
1276880530793	-1.334794	9.275456	-0.27240697	-0.4316845	0.0	-20.0	-45.75	-4.375	1.3608751	-0.02906094	0.1429248
1276880530828	-0.7627395	9.193735	-0.50395286	-0.56757545	0.0	-19.5	-45.1875	-4.125	1.297793	-0.0545729	0.0827734
