#timestamp	accel_x	accel_y	accel_z	accel_mag	temperature	mag_x	mag_y	mag_z	azimuth	pitch	roll
1277223463314	4.2086873	0.9942854	8.730643	-0.06366348	0.0	-8.1875	7.3125	-57.6875	0.42334557	1.1108924	-1.3388039
1277223463344	3.5957718	1.9885708	10.147159	1.1408987	0.0	-5.75	6.8125	-58.5	0.40585628	1.1860366	-1.0656295
1277223463374	3.6774938	1.6889231	8.539958	-0.35639572	0.0	-6.0	6.3125	-58.75	0.34948355	1.1282753	-1.1402692
1277223463404	3.2961242	1.7978859	8.158588	-0.825593	0.0	-6.75	5.3125	-58.25	0.35531598	1.1394935	-1.0714496
1277223463434	1.6889231	2.9556155	8.771504	-0.39774895	0.0	-7.1875	3.75	-58.0	0.37310785	1.2005991	-0.5191461
1277223463474	2.9556155	3.405087	8.62168	-0.07712555	0.0	-7.9375	2.25	-58.0	0.3044136	1.0889392	-0.7148516
1277223463514	4.2495484	2.5606253	8.430995	-0.024158478	0.0	-8.1875	0.6875	-58.0	0.20059949	1.038897	-1.0284936
1277223463554	3.5957718	2.7921712	7.6954966	-0.8653717	0.0	-7.9375	-0.5625	-58.0	0.1834909	1.0365856	-0.91054034
1277223463594	3.9090397	3.445948	7.9270425	-0.32017803	0.0	-7.6875	-1.0625	-58.0	0.16063859	0.9892522	-0.8482781
1277223463634	3.5276701	3.486809	8.390134	-0.060028076	0.0	-7.6875	-1.875	-57.1875	0.17323785	1.0368882	-0.79122335
1277223463674	3.8681788	3.255263	7.9679036	-0.37017632	0.0	-8.4375	-2.125	-56.6875	0.15884499	1.0053937	-0.8712289
1277223463704	4.372132	3.214402	8.158588	-0.008155823	0.0	-10.125	-1.625	-56.9375	0.19339043	0.98385215	-0.9368331
1277223463745	4.7943625	2.982856	7.668256	-0.2837572	0.0	-12.5625	-0.8125	-56.6875	0.2364565	0.9360875	-1.0142425
1277223463786	4.9850473	2.6423476	7.504812	-0.4175663	0.0	-15.25	0.4375	-56.4375	0.31242833	0.9261501	-1.0833951
1277223463824	5.2165933	2.3018389	7.1234417	-0.68224716	0.0	-17.75	2.0	-56.1875	0.37187415	0.89578867	-1.1552399
1277223463864	5.434519	2.1111538	7.3141265	-0.45317936	0.0	-20.4375	3.0	-55.1875	0.46447536	0.89781886	-1.2002679
1277223463905	5.5571017	1.9477097	7.082581	-0.59590054	0.0	-21.125	4.0	-54.9375	0.47728816	0.8771929	-1.2336849
1277223463944	5.325556	2.0294318	7.3549876	-0.50202847	0.0	-21.375	4.5	-55.1875	0.5498293	0.91156954	-1.206711
1277223463984	5.134871	2.0294318	7.164303	-0.761611	0.0	-20.875	4.5	-55.1875	0.5436024	0.9141924	-1.1944127
1277223464014	4.7943625	2.2201166	7.5456724	-0.5951357	0.0	-19.1875	4.8125	-55.6875	0.57134676	0.9599389	-1.1371282
1277223464060	5.2165933	1.7978859	8.308413	0.16706276	0.0	-18.0	4.25	-55.6875	0.50720656	0.9845642	-1.2388978
1277223464094	5.243834	2.1111538	7.5865335	-0.34566402	0.0	-16.25	4.0	-56.1875	0.40707412	0.93042773	-1.1880528
1277223464134	4.140586	2.7649305	8.281172	-0.1439848	0.0	-14.3125	4.25	-56.6875	0.49975178	1.0294733	-0.98203504
1277223464164	3.6774938	3.173541	8.771504	0.22004509	0.0	-12.375	4.0	-57.1875	0.47153354	1.0650539	-0.85882455
1277223464214	3.568531	3.1463003	9.00305	0.37610626	0.0	-10.375	4.8125	-57.6875	0.4291112	1.0846643	-0.8481958
1277223464246	3.5957718	3.214402	8.62168	0.072384834	0.0	-9.6875	4.8125	-57.4375	0.38853282	1.0607563	-0.84133977
1277223464284	3.9499009	2.6423476	8.117727	-0.40020466	0.0	-9.875	4.25	-57.6875	0.35824454	1.0411707	-0.9812039
1277223464327	4.6036777	2.0294318	7.5865335	-0.70346737	0.0	-11.375	4.25	-57.4375	0.3331311	0.98521966	-1.1555957
1277223464364	4.5219555	1.879608	7.504812	-0.8454447	0.0	-13.8125	4.0	-57.1875	0.39044678	0.9926516	-1.176861
1277223464404	4.372132	2.2609777	7.4639506	-0.86583805	0.0	-15.25	4.25	-57.1875	0.45915583	0.987802	-1.0935358
1277223464434	4.6036777	2.3699405	7.3958488	-0.7784138	0.0	-17.25	4.5	-56.4375	0.50555825	0.9599988	-1.0953846
1277223464469	4.440233	2.4925237	7.0553403	-1.1057205	0.0	-17.75	4.25	-56.1875	0.51270884	0.9456406	-1.0592811
1277223464504	4.671779	2.4925237	7.3141265	-0.7769966	0.0	-17.5	3.75	-55.9375	0.48849005	0.9441723	-1.0806876
1277223464585	4.372132	2.5606253	7.5865335	-0.68372154	0.0	-17.75	3.25	-55.4375	0.5450959	0.9819639	-1.0409805
1277223464642	4.7535014	2.6832085	7.668256	-0.3940239	0.0	-17.0	2.75	-55.4375	0.46954367	0.95217305	-1.0569117
1277223464674	4.7943625	3.255263	8.471856	0.45760822	0.0	-17.0	2.0	-55.9375	0.49208593	0.9708651	-0.97431934
1277223464709	4.399372	2.9556155	7.205164	-0.8621254	0.0	-16.25	0.6875	-56.6875	0.3961071	0.93658465	-0.9792299
1277223464744	3.8273177	2.1792557	6.782933	-1.7192707	0.0	-15.25	-0.5625	-57.4375	0.340291	0.9949027	-1.0531845
1277223464774	1.4982382	0.84446156	6.782933	-2.8090782	0.0	-14.5625	-2.625	-57.1875	1.4665388	1.3224763	-1.057544
1277223464804	0.19068487	0.50395286	5.7886477	-3.992979	0.0	-13.0625	-4.9375	-56.9375	1.9293705	1.4779806	-0.36172923
1277223464840	1.607201	1.1441092	6.0474343	-3.4455543	0.0	-12.8125	-7.6875	-55.6875	0.35922667	1.2554551	-0.95215195
1277223464874	0.50395286	6.8237944	6.0882955	-0.647748	0.0	-11.875	-11.3125	-54.625	0.3245036	0.72714674	-0.073718466
1277223464914	3.759216	11.454713	5.175732	3.3131962	0.0	-10.125	-13.3125	-54.375	0.124420196	0.40551975	-0.31710607
1277223464954	2.4925237	5.6252036	4.1814466	-2.3675585	0.0	-6.75	-14.375	-54.625	0.009593815	0.5969118	-0.4171005
1277223465006	1.607201	5.6252036	7.668256	-0.16154003	0.0	-1.5625	-11.5625	-55.6875	-0.06795463	0.91907483	-0.27829966
1277223465045	-0.95342433	3.0237172	6.238119	-2.8090782	0.0	4.0625	-3.875	-56.1875	-0.12785435	1.1005772	0.30544764
1277223465094	-4.944186	2.1792557	9.724928	1.3184729	0.0	9.4375	3.25	-56.4375	-0.31221008	1.0636646	1.1556433
1277223465124	-6.6331096	2.5333846	10.269742	2.6786919	0.0	12.375	10.875	-55.6875	-0.5217481	0.96586984	1.2059639
1277223465164	-5.9793324	0.46309182	9.193735	1.1702185	0.0	14.3125	16.25	-54.9375	-0.7358026	0.99279326	1.4935019
1277223465195	-4.862464	-1.4573772	10.337844	1.7102299	0.0	14.5625	18.5625	-54.625	-1.1088368	1.1143521	1.8619962
1277223465244	-4.099725	-1.7978859	8.19945	-0.46474934	0.0	13.3125	20.875	-54.125	-1.0511976	1.0710553	1.9840778
1277223465274	-2.4925237	0.8036005	9.343558	-0.1030159	0.0	7.6875	22.375	-55.1875	-1.0221045	1.297523	1.2589139
1277223465314	0.19068487	1.4573772	14.328606	4.597143	0.0	0.625	22.375	-56.1875	0.08169585	1.4685756	-0.13010205
1277223465344	0.8036005	0.3405087	11.75436	1.9800673	0.0	-6.0	21.375	-56.9375	1.2620742	1.4966819	-1.1700028
1277223465384	-1.0351465	-1.7297841	10.528529	0.91312695	0.0	-11.375	20.875	-58.0	-1.6171123	1.3816196	2.6023319
1277223465414	-1.4165162	-0.6946377	7.082581	-2.5504808	0.0	-13.0625	21.875	-57.1875	-1.0525134	1.3516213	2.0267222
1277223465450	0.46309182	-0.6537767	6.2108784	-3.5443115	0.0	-14.3125	23.375	-56.6875	3.049665	1.4425097	-2.5252957
1277223465484	1.879608	-2.6423476	11.686258	2.3211508	0.0	-16.25	23.375	-56.4375	3.1166656	1.3001285	-2.5232964
1277223465534	0.6537767	-1.1168685	12.9529505	3.2107897	0.0	-17.75	20.875	-56.4375	-2.9205306	1.4712158	-2.612003
1277223465574	2.5333846	0.6537767	7.668256	-1.7043295	0.0	-18.1875	16.0	-57.6875	1.2915648	1.2419858	-1.3182421
1277223465604	2.2609777	1.3075534	10.378705	0.89565086	0.0	-18.4375	10.125	-58.75	1.36401	1.3242614	-1.0464756
1277223465634	0.27240697	1.5390993	11.413852	1.7137251	0.0	-18.0	5.5625	-59.25	1.0648506	1.4347022	-0.17517701
1277223465664	0.6537767	2.7240696	10.038197	0.61512375	0.0	-18.0	2.75	-59.5	0.8957987	1.2986443	-0.23554498
1277223465695	2.2609777	3.405087	9.615966	0.6419592	0.0	-18.6875	0.4375	-59.5	0.8425909	1.1688737	-0.58615416
1277223465726	0.95342433	2.3426998	10.691973	1.1804123	0.0	-18.9375	-0.8125	-59.0	1.240809	1.3385074	-0.38650632
1277223465764	-0.23154591	0.9942854	10.923519	1.1644707	0.0	-18.6875	-1.875	-59.5	1.1679009	1.4776089	0.22879885
1277223465794	0.88532263	0.9942854	9.697687	-0.018007278	0.0	-18.9375	-2.375	-59.75	2.0232587	1.4343678	-0.7274919
1277223465824	1.2258313	1.1441092	8.853226	-0.796031	0.0	-18.0	-2.125	-60.25	1.8556789	1.3836141	-0.81986725
1277223465864	0.88532263	2.9147544	10.800936	1.4156399	0.0	-17.25	-1.875	-60.75	1.0138564	1.2959017	-0.2948829
1277223465896	0.92618364	3.718355	10.460427	1.3335705	0.0	-17.25	-0.5625	-60.75	0.7894341	1.2196482	-0.24411659
1277223465944	0.88532263	2.8330324	10.038197	0.66117	0.0	-16.5	-0.0625	-61.5625	0.89238274	1.283303	-0.30288488
1277223465975	-0.10896278	3.568531	9.997335	0.8090458	0.0	-15.5	0.4375	-61.3125	0.62450194	1.2277975	0.030524869
1277223466004	0.7627395	5.012288	8.308413	-0.07348442	0.0	-14.3125	1.1875	-61.8125	0.42854783	1.0228933	-0.15101534
1277223466034	0.6946377	4.4810944	9.615966	0.8248844	0.0	-12.375	1.1875	-61.5625	0.45134032	1.130149	-0.15379113
1277223466064	0.5720546	3.8681788	9.302697	0.28444672	0.0	-10.625	1.1875	-61.5625	0.4266363	1.1728834	-0.14682312
1277223466104	-0.040861044	2.982856	9.765789	0.4046049	0.0	-10.375	0.1875	-61.8125	0.51389784	1.2743307	0.013697774
1277223466144	-0.14982383	3.405087	9.425281	0.2159729	0.0	-9.875	-0.3125	-61.5625	0.43880206	1.2238063	0.04397164
1277223466174	-0.27240697	3.1054392	9.888372	0.5614672	0.0	-9.4375	-0.8125	-61.8125	0.47104287	1.2654032	0.08749535
1277223466204	-1.3075534	2.7649305	10.419566	1.052535	0.0	-9.1875	-1.0625	-61.5625	0.40942454	1.2852802	0.4417388
1277223466244	-2.4516625	2.1111538	10.378705	1.0646486	0.0	-8.6875	-0.8125	-61.3125	0.25584137	1.2686117	0.85988694
1277223466284	-1.879608	2.0294318	12.871228	3.3584566	0.0	-7.6875	-1.0625	-61.0625	0.3547563	1.3591073	0.7470894
1277223466324	0.040861044	1.4165162	7.5865335	-2.0888991	0.0	-6.75	-0.5625	-60.75	0.57394326	1.3861321	-0.028838158
1277223466364	-0.6946377	3.405087	10.337844	1.0996857	0.0	-6.25	-1.0625	-60.75	0.31334898	1.2464997	0.20123874
1277223466404	-2.1111538	4.2495484	11.223166	2.3783855	0.0	-5.5	-2.125	-60.75	0.23840599	1.1707975	0.46108022
1277223466444	-1.607201	2.6014864	6.66035	-2.4778652	0.0	-4.25	-2.375	-60.5	0.18893188	1.1403825	0.55340576
1277223466484	-1.9885708	3.405087	9.00305	0.022080421	0.0	-4.25	-4.625	-60.25	0.26095787	1.1579763	0.52857167
1277223466524	-3.0645783	4.5628166	9.575105	1.2338915	0.0	-3.5625	-6.1875	-59.5	0.2339183	1.0496874	0.591439
1277223466564	-2.9556155	2.982856	8.008764	-0.76378536	0.0	-1.8125	-7.4375	-58.25	0.27073514	1.0878803	0.7808111
1277223466604	-1.4165162	2.7921712	6.782933	-2.3359795	0.0	-1.375	-9.5	-57.4375	0.315156	1.1383462	0.46948412
1277223466644	-0.61291564	3.0645783	6.3607025	-2.7196307	0.0	0.125	-10.0	-56.6875	0.11317942	1.1141005	0.19739555
1277223466684	-0.19068487	4.8216033	6.3198414	-1.8552594	0.0	1.8125	-10.0	-55.9375	-0.054514613	0.9186937	0.039527424
1277223466724	-0.84446156	5.8976107	6.742072	-0.80940247	0.0	2.5625	-10.0	-55.6875	-0.038330264	0.8470773	0.14222036
1277223466764	-1.920469	5.938472	7.014479	-0.41747665	0.0	3.0625	-9.5	-55.6875	3.1375527E-4	0.8436609	0.31277907
1277223466804	-1.9477097	6.5513873	10.119919	2.4051075	0.0	2.8125	-9.5	-55.6875	4.9369835E-4	0.9767862	0.28897542
1277223466844	0.14982383	7.43671	10.310603	2.90695	0.0	1.8125	-10.5	-55.4375	-0.08429292	0.9458423	-0.020143796
1277223466874	-1.1849703	7.504812	8.921328	1.9115591	0.0	0.875	-11.5625	-55.4375	0.03457875	0.8653493	0.15660188
1277223466904	-3.336985	7.43671	7.082581	0.9916401	0.0	-0.125	-11.8125	-54.625	0.14374472	0.71537215	0.42178723
1277223466934	-4.0588636	6.2789803	9.043911	1.9275856	0.0	-1.375	-12.3125	-54.9375	0.2766349	0.87998384	0.573855
1277223466968	-3.2961242	3.990762	10.501288	1.90094	0.0	-1.375	-12.3125	-54.9375	0.2766349	0.87998384	0.573855
1277223467004	-1.9477097	2.7240696	5.6660647	-3.224977	0.0	-1.375	-12.8125	-54.625	0.4139286	1.0370069	0.6207223
1277223467044	-3.2961242	4.7535014	6.0474343	-1.4381571	0.0	-0.875	-14.375	-54.9375	0.29056108	0.80761856	0.60628927
1277223467107	-2.982856	2.7649305	4.862464	-3.4674206	0.0	0.625	-16.375	-53.375	0.42856756	0.8742201	0.8232947
1277223467144	-0.23154591	-0.88532263	5.47538	-4.2553263	0.0	1.8125	-18.9375	-52.375	0.24434185	1.4051969	2.8857841
1277223467174	-2.6423476	6.0474343	3.6774938	-2.25169	0.0	2.5625	-20.5	-51.5625	0.16405106	0.5083831	0.41193777
1277223467204	-2.1792557	11.958665	5.2165933	3.4210358	0.0	3.3125	-22.25	-51.5625	0.018954318	0.40538144	0.1802544
1277223467244	-2.7921712	11.686258	3.6774938	2.758731	0.0	3.8125	-23.25	-51.0625	0.040380906	0.2970166	0.23453087
1277223467284	-1.334794	7.273266	8.240311	1.265151	0.0	3.5625	-23.8125	-50.8125	0.04952106	0.8394278	0.18150093
1277223467346	-2.1792557	8.499097	6.238119	0.9589405	0.0	4.5	-24.0625	-50.5625	0.05971595	0.61805344	0.2510027
1277223467440	-2.2201166	6.6331096	4.140586	-1.6782122	0.0	6.0	-25.3125	-48.8125	0.081200466	0.5344816	0.32298207
1277223467677	-0.23154591	4.7535014	6.1700177	-2.014442	0.0	9.4375	-28.875	-44.9375	-1.0840024	0.9137814	0.04867213
1277223467715	4.862464	2.2201166	4.2086873	-3.0033035	0.0	5.25	-26.625	-46.25	-0.6829376	0.6669853	-1.1424818
1277223467754	8.539958	-1.1441092	5.134871	0.22364235	0.0	-0.875	-23.0	-47.0	-0.5045261	0.5374374	-1.7039746
1277223467795	9.112013	-0.88532263	6.238119	1.2715588	0.0	-6.75	-18.6875	-48.5625	-0.47576877	0.5981301	-1.6676522
1277223467835	7.504812	2.4108016	8.049625	1.4596996	0.0	-14.0625	-12.3125	-53.875	-0.2838819	0.7958861	-1.2599742
1277223467874	6.4424243	3.9499009	7.273266	0.6817694	0.0	-12.8125	-11.5625	-54.125	-0.11553858	0.76627576	-1.0207944
1277223467915	5.7886477	3.9499009	6.6331096	-0.15738583	0.0	-10.375	-12.8125	-54.625	-0.16288286	0.75793236	-0.97201246
1277223467944	4.8216033	4.2495484	7.0553403	-0.26283836	0.0	-8.9375	-13.8125	-55.1875	-0.17316689	0.831968	-0.8483779
1277223467984	4.399372	4.5628166	7.246025	-0.1796751	0.0	-7.6875	-14.375	-55.1875	-0.17920633	0.8521221	-0.76716304
1277223468014	4.1814466	4.4810944	7.3958488	-0.20127296	0.0	-7.4375	-14.625	-55.1875	-0.19427522	0.8787936	-0.75082076
1277223468045	4.140586	4.2495484	7.4639506	-0.27178383	0.0	-7.4375	-14.625	-55.4375	-0.21602812	0.8991624	-0.77241194
1277223468104	4.2904096	4.140586	8.076866	0.23266411	0.0	-7.1875	-14.125	-55.1875	-0.24458677	0.9348731	-0.80316687
1277223468155	4.372132	4.099725	7.6273947	-0.10611248	0.0	-7.4375	-13.5625	-54.9375	-0.2115005	0.90477437	-0.8175414
1277223468194	4.5628166	3.568531	7.5865335	-0.26153564	0.0	-7.9375	-13.8125	-54.375	-0.2745741	0.91869116	-0.9070722
1277223468234	4.099725	3.990762	7.4639506	-0.40215683	0.0	-7.9375	-13.5625	-54.125	-0.19742997	0.9167984	-0.7988654
1277223468264	3.5957718	4.372132	7.3958488	-0.493021	0.0	-8.6875	-13.8125	-54.125	-0.102610104	0.917507	-0.68826884
1277223468295	3.405087	4.2904096	7.3958488	-0.6033459	0.0	-9.1875	-13.8125	-54.125	-0.07331107	0.9333329	-0.6708575
1277223468334	4.372132	3.5276701	7.8589406	-0.14627075	0.0	-8.9375	-12.5625	-54.625	-0.20843826	0.9501848	-0.89189035
1277223468374	4.2086873	3.6774938	8.539958	0.3996172	0.0	-8.9375	-11.8125	-54.625	-0.16796024	0.9912964	-0.8526541
1277223468414	3.8273177	5.012288	7.8589406	0.26977444	0.0	-8.1875	-10.25	-55.4375	0.011717521	0.8945595	-0.6521402
1277223468458	2.7240696	4.7126403	9.193735	0.8776512	0.0	-6.9375	-8.25	-55.4375	0.09793822	1.0362308	-0.524112
1277223468495	2.1792557	4.399372	8.499097	0.008556366	0.0	-5.75	-6.4375	-55.9375	0.11002515	1.0469692	-0.45992556
1277223468534	1.334794	3.486809	8.771504	-0.27361298	0.0	-3.8125	-4.125	-56.4375	0.11995449	1.1683778	-0.36560234
1277223468564	1.607201	3.0645783	8.812365	-0.33920574	0.0	-1.375	-1.875	-56.4375	0.018758679	1.1966149	-0.48301134
1277223468594	0.9942854	1.9885708	6.6331096	-2.8108544	0.0	1.8125	0.4375	-57.1875	-0.073672734	1.2473842	-0.4636476
1277223468634	-0.50395286	1.3075534	5.434519	-4.1943727	0.0	6.75	2.75	-56.4375	-0.47341153	1.3184402	0.36787167
1277223468675	-1.7978859	0.8036005	5.434519	-4.0263247	0.0	13.0625	5.0625	-54.625	-0.81709296	1.2231442	1.1504653
1277223468720	-0.46309182	1.4165162	5.366417	-4.2371435	0.0	21.625	8.625	-49.8125	-1.00506	1.299915	0.31597027
1277223468754	1.920469	1.8387469	1.920469	-6.526804	0.0	32.125	11.4375	-39.625	-0.27042928	0.62554145	-0.8071339
1277223468794	-1.0760075	2.070293	-0.53119355	-7.4137287	0.0	41.1875	12.9375	-26.875	-0.9904712	-0.22385019	0.4793121
1277223468824	-9.615966	2.3426998	-1.1168685	0.15339184	0.0	48.5625	11.4375	-13.0625	-0.8992609	-0.11237126	1.3318256
1277223468885	-14.246883	2.2201166	4.399372	5.2683983	0.0	51.4375	5.5625	-0.5625	-2.3790574	0.296141	1.4162079
1277223468924	-17.011814	1.607201	1.8387469	7.3795624	0.0	50.25	-3.375	7.5625	-3.0361145	0.107194826	1.4766003
1277223468964	-17.2025	2.3018389	-0.040861044	7.549217	0.0	47.5625	-12.8125	12.4375	2.6631224	-0.0023543094	1.4377781
1277223469006	-16.317177	1.7978859	-2.6014864	6.814131	0.0	45.1875	-25.3125	15.625	1.9463365	-0.15716635	1.4610554
1277223469044	-12.258313	1.0760075	-4.903325	3.4397316	0.0	42.5	-30.6875	16.375	1.5167359	-0.37918484	1.483243
1277223469085	-9.152874	3.214402	-11.141444	4.9662733	0.0	40.5	-33.0	16.375	0.5925769	-0.8544046	1.2330613
1277223469134	-8.049625	3.3778462	-4.7126403	0.11379814	0.0	39.8125	-33.5	16.625	1.0458763	-0.49501297	1.1734848
1277223469174	-11.604536	2.9147544	-0.95342433	2.196268	0.0	39.1875	-32.8125	18.3125	2.1509564	-0.07951648	1.3247133
1277223469215	-10.691973	2.8738933	-1.1849703	1.3280563	0.0	40.6875	-33.3125	18.75	2.1305923	-0.10662324	1.3082128
1277223469254	-5.9793324	4.862464	3.173541	-1.4719429	0.0	40.4375	-32.75	20.0	-3.1388736	0.39062038	0.88805115
1277223469297	-2.7240696	7.7772183	-2.070293	-1.3100748	0.0	39.5	-33.3125	20.0	-1.8856503	-0.24613991	0.33690882
1277223469334	-1.879608	9.152874	-1.525479	-0.33906746	0.0	38.0	-35.0625	18.25	-1.927592	-0.16183202	0.2025413
1277223469376	-2.4925237	10.337844	-1.2258313	0.89785194	0.0	34.8125	-38.875	15.6875	-1.966194	-0.11476726	0.23659116
1277223469414	-8.117727	10.61025	1.6480621	3.6540718	0.0	30.6875	-43.75	12.625	3.0261087	0.12274287	0.6530848
1277223469454	-7.273266	10.18802	3.5957718	3.2173939	0.0	25.8125	-47.8125	10.3125	2.8749735	0.27972066	0.61999655
1277223469494	-5.9793324	9.997335	0.6537767	1.8606787	0.0	21.625	-50.875	9.5625	2.6020358	0.056064192	0.5390158
1277223469534	-2.7921712	8.962189	1.1441092	-0.35011673	0.0	18.0	-52.4375	9.5625	-3.043874	0.12128324	0.3020193
1277223469574	-1.2666923	5.284695	1.4165162	-4.190688	0.0	15.25	-51.9375	11.375	-3.0315056	0.25498447	0.2352525
1277223469624	-3.1463003	9.466142	-3.486809	0.76051044	0.0	11.625	-51.125	13.375	0.83709973	-0.33626807	0.320887
1277223469664	-3.336985	9.915613	-1.9477097	0.8351736	0.0	7.9375	-50.625	14.4375	2.0917203	-0.18406159	0.32463238
1277223469694	-2.7513103	9.193735	0.53119355	-0.19537354	0.0	5.0	-50.125	15.6875	2.6614635	0.055295918	0.29077706
1277223469734	-1.1168685	8.117727	-0.23154591	-1.6091805	0.0	3.8125	-50.375	15.4375	2.9245224	-0.02824978	0.13672549
1277223469774	-1.56634	8.008764	0.313268	-1.6401415	0.0	5.75	-51.375	14.4375	2.8899071	0.038369503	0.19314027
1277223469814	-5.8158884	16.780268	0.14982383	7.953541	0.0	7.9375	-51.375	13.375	2.5475733	0.008436035	0.33363456
1277223469856	-2.982856	14.09706	-1.3075534	4.6617374	0.0	9.4375	-52.1875	12.125	2.9292777	-0.0904966	0.20851856
1277223469894	-0.9942854	11.836082	-2.9556155	2.4333296	0.0	8.6875	-52.1875	11.125	-1.146462	-0.24388272	0.08380783
1277223469934	0.10896278	13.184497	-5.6252036	4.528124	0.0	4.25	-51.6875	11.375	-0.44504228	-0.40325746	-0.008264274
1277223469964	-0.46309182	6.742072	-2.6014864	-2.565261	0.0	-2.8125	-50.625	13.375	0.84279305	-0.3674667	0.06857915
1277223470004	-0.6946377	2.070293	3.2961242	-5.8527822	0.0	-10.125	-48.0625	15.1875	2.6237843	0.9856758	0.3237229
1277223470044	-1.607201	2.0294318	2.2201166	-6.3962827	0.0	-17.25	-45.8125	15.9375	2.1674798	0.7088885	0.6698108
1277223470086	-2.2609777	7.6273947	-0.23154591	-1.8478322	0.0	-25.375	-43.4375	18.6875	2.0199633	-0.029097108	0.28817704
1277223470125	-2.0294318	18.619015	2.1792557	9.048998	0.0	-23.1875	-43.4375	18.4375	2.26304	0.115834616	0.10856921
1277223470181	2.7921712	14.410328	2.4108016	5.0683537	0.0	-16.3125	-45.1875	17.9375	2.857342	0.16278869	-0.19139017
1277223470214	4.440233	11.032481	-2.5333846	2.352682	0.0	-9.6875	-48.1875	15.1875	-2.0594037	-0.2098866	-0.38263312
1277223470254	0.50395286	12.258313	-11.413852	6.950325	0.0	-4.0625	-51.125	10.4375	0.07172664	-0.74931896	-0.04108797
1277223470294	0.8036005	9.507003	-5.938472	1.4314251	0.0	-2.3125	-52.6875	6.625	-0.09571644	-0.55674344	-0.08432676
1277223470335	0.92618364	9.384419	1.5390993	-0.25186253	0.0	-3.3125	-53.1875	4.3125	-2.9925346	0.16178635	-0.09837518
1277223470374	0.313268	10.841797	3.0645783	1.4643011	0.0	-2.5625	-52.6875	5.625	3.0890067	0.27536744	-0.028886434
1277223470414	-0.88532263	9.956474	3.1054392	0.6603899	0.0	-1.375	-51.6875	8.9375	2.896451	0.30122203	0.08868604
1277223470454	-2.1111538	8.430995	1.8387469	-0.9229784	0.0	-0.625	-51.125	11.75	2.6016026	0.20848763	0.24535874
1277223470495	-3.405087	10.038197	0.6537767	0.8134928	0.0	-0.375	-50.625	13.0	2.334733	0.061599012	0.3270329
1277223470534	-4.3312707	10.269742	0.14982383	1.3400965	0.0	-0.625	-50.625	14.0	2.1962237	0.013441442	0.39911523
1277223470571	-5.012288	9.343558	-0.08172209	0.79673576	0.0	-0.375	-50.625	13.25	2.0597086	-0.0077072456	0.49237534
1277223470604	-4.7943625	8.730643	-1.2666923	0.23399448	0.0	0.625	-50.875	11.75	1.8160617	-0.12649353	0.5021842
1277223470634	-2.7513103	9.466142	-2.6014864	0.3887062	0.0	1.125	-51.375	11.0	1.4186909	-0.25801715	0.2828546
1277223470674	-1.7570249	9.425281	-0.7218784	-0.19186115	0.0	1.5625	-51.6875	9.9375	2.223972	-0.07515072	0.18430074
1277223470714	-1.2666923	10.038197	1.9477097	0.49691582	0.0	2.3125	-51.375	10.1875	2.934509	0.19017687	0.12552379
1277223470744	-1.7978859	9.384419	2.4516625	0.057951927	0.0	3.0625	-50.875	11.25	2.868723	0.2511637	0.1892884
1277223470784	-2.6014864	9.193735	0.92618364	-0.20715427	0.0	3.8125	-50.375	11.5	2.5870917	0.09663285	0.27575412
1277223470814	-2.6832085	9.534244	-0.27240697	0.10171032	0.0	4.25	-49.625	11.75	2.4092007	-0.027496103	0.2743329
1277223470854	-2.7240696	9.384419	-0.42223078	-0.02574253	0.0	4.0625	-50.125	11.5	2.3197029	-0.043182295	0.28251177
1277223470894	-2.5333846	9.193735	0.92618364	-0.22538567	0.0	3.8125	-50.375	11.25	2.5959954	0.09681729	0.2688826
1277223470934	-2.3018389	9.234595	1.1849703	-0.21601105	0.0	3.3125	-50.375	12.0	2.6803203	0.123871416	0.24428448
1277223470975	-1.9885708	9.343558	0.5720546	-0.23671055	0.0	2.8125	-50.625	12.25	2.668738	0.059811853	0.2096992
1277223471014	-2.4516625	9.343558	0.23154591	-0.1440239	0.0	2.5625	-50.125	12.75	2.5073347	0.023965335	0.25660604
1277223471054	-2.3699405	9.275456	0.7627395	-0.20287609	0.0	2.0625	-49.625	13.25	2.5991857	0.079504535	0.2501546
1277223471094	-2.6423476	9.384419	1.3075534	0.029966354	0.0	1.8125	-49.625	13.5	2.6075838	0.13332176	0.27446166
1277223471134	-2.3426998	9.425281	1.0760075	-0.03516388	0.0	1.125	-49.625	14.5625	2.6393437	0.11034083	0.2436181
1277223471174	-2.5333846	9.847511	0.92618364	0.4036064	0.0	0.875	-49.625	15.0625	2.605405	0.090835966	0.25180116
1277223471215	-0.0	9.80665	-2.5333846	0.32194424	0.0	0.125	-50.125	15.8125	-3.0965378	-0.2528063	0.0
1277223471255	1.0351465	10.378705	-4.440233	1.5293417	0.0	-1.125	-49.875	16.5625	-0.73423094	-0.4024713	-0.09940878
1277223471294	-0.95342433	10.732834	-3.759216	1.605381	0.0	-1.125	-49.375	18.625	1.8235062	-0.3356767	0.08859992
1277223471334	-0.14982383	8.662541	-0.27240697	-1.1385317	0.0	-1.5625	-47.8125	21.4375	3.0222607	-0.03143148	0.017293874
1277223471374	0.46309182	8.921328	-1.607201	-0.729887	0.0	-2.3125	-45.8125	24.0	-3.1373687	-0.17800619	-0.051861852
1277223471404	-0.3405087	9.234595	-2.8330324	-0.14126015	0.0	-2.3125	-44.0	26.25	2.8306005	-0.29747915	0.03685646
1277223471446	-1.1168685	8.662541	-1.7978859	-0.88928413	0.0	-2.3125	-42.5	27.5625	2.7469995	-0.20300779	0.12822343
1277223471485	-1.3075534	7.504812	-1.525479	-2.0375457	0.0	-1.8125	-42.5	27.3125	2.6878738	-0.19763608	0.17249715
1277223471524	-1.2666923	8.308413	-2.6014864	-1.008812	0.0	-0.625	-42.75	27.0625	2.6561177	-0.30018413	0.15129396
1277223471564	-2.8738933	11.536434	-6.891896	3.935504	0.0	1.375	-43.75	26.25	1.7055476	-0.5253489	0.2441451
1277223471604	-0.29964766	10.228881	-3.336985	0.9569578	0.0	2.5625	-45.0	24.25	-3.005566	-0.31521907	0.029285902
1277223471647	3.636633	8.539958	-2.1792557	-0.27223206	0.0	2.3125	-45.25	24.0	-2.186795	-0.23060572	-0.40257967
1277223471684	2.1111538	9.275456	-2.9147544	0.14256382	0.0	1.375	-45.5625	24.0	-2.2896378	-0.29732466	-0.22379391
1277223471724	-1.6480621	10.528529	-3.1463003	1.304842	0.0	0.125	-44.75	23.75	2.5562077	-0.28708458	0.15527298
1277223471754	-2.9556155	9.575105	-2.982856	0.64876556	0.0	-0.125	-44.0	25.0	2.3115578	-0.28931203	0.2993983
1277223471784	-1.920469	9.00305	-1.607201	-0.46180153	0.0	0.875	-44.0	25.25	2.6963284	-0.17284729	0.2101633
1277223471814	-1.879608	8.962189	-0.9942854	-0.59565926	0.0	2.5625	-44.0	25.0	2.8284736	-0.10815628	0.20673019
1277223471844	-1.2666923	8.812365	-1.9885708	-0.6843319	0.0	3.8125	-44.5	25.25	2.9718478	-0.21975408	0.14276248
1277223471874	-0.6946377	9.112013	-2.6014864	-0.30512238	0.0	4.25	-44.75	24.5	-3.0674608	-0.27733833	0.07608602
1277223471904	-0.42223078	9.466142	-2.4108016	-0.029222488	0.0	4.25	-44.75	24.5	-3.0674608	-0.27733833	0.07608602
1277223471934	-0.50395286	9.697687	-2.4925237	0.2189064	0.0	4.0625	-44.5	24.75	-3.0066464	-0.25125214	0.05191959
1277223471976	-0.46309182	9.80665	-3.0645783	0.4781189	0.0	3.5625	-45.0	24.75	-3.0014906	-0.30256796	0.04718717
1277223472014	-1.2666923	9.507003	-2.9556155	0.22944832	0.0	2.8125	-44.75	24.75	2.852027	-0.29893067	0.13245769
1277223472054	-2.0294318	9.302697	-2.070293	-0.06268406	0.0	2.0625	-45.0	24.75	2.6670895	-0.21410118	0.21479
1277223472094	-1.9477097	9.112013	-1.7297841	-0.32959938	0.0	1.8125	-45.0	24.25	2.690052	-0.18355241	0.21058285
1277223472124	-1.334794	9.302697	-1.920469	-0.21446323	0.0	1.5625	-44.25	24.5	2.839229	-0.20157409	0.14251193
1277223472155	-0.88532263	9.507003	-2.1792557	-0.012975693	0.0	1.5625	-44.5	25.25	2.9687805	-0.22439508	0.092855416
1277223472194	-0.42223078	9.425281	-2.3018389	-0.09517956	0.0	1.8125	-44.5	25.0	3.1284254	-0.23930007	0.044767756
1277223472224	-0.19068487	9.343558	-2.1792557	-0.21042252	0.0	1.8125	-44.75	25.75	-3.081361	-0.22909375	0.020405332
1277223472255	-0.14982383	9.425281	-2.3426998	-0.09343243	0.0	1.8125	-45.0	25.5	-3.0627654	-0.24358855	0.015894616
1277223472294	-0.19068487	9.507003	-2.3018389	-0.023096085	0.0	2.0625	-45.25	24.75	-3.055644	-0.2375029	0.020054618
1277223472324	-0.19068487	9.302697	-2.0294318	-0.2832508	0.0	2.5625	-45.0	24.75	-3.029619	-0.21474625	0.020494934
1277223472364	-0.23154591	9.507003	-1.9885708	-0.09114075	0.0	3.3125	-45.25	24.25	-2.9899576	-0.20613682	0.024350487
1277223472394	-0.38136974	9.656827	-2.1383946	0.091454506	0.0	3.5625	-45.0	24.5	-3.016414	-0.21775769	0.039471727
1277223472434	-0.42223078	9.615966	-2.2201166	0.07130432	0.0	3.8125	-44.5	24.75	-3.0105448	-0.22669128	0.04388116
1277223472464	-0.53119355	9.575105	-2.3018389	0.055563927	0.0	3.5625	-44.25	25.5	-3.0651388	-0.2355726	0.055419717
1277223472495	-0.61291564	9.384419	-2.4925237	-0.07753563	0.0	3.0625	-44.5	25.75	-3.1300223	-0.25908092	0.06521941
1277223472552	-0.88532263	9.507003	-2.7921712	0.14137077	0.0	3.0625	-44.75	25.5	3.0493333	-0.2844984	0.092855416
1277223472612	-1.607201	9.234595	-2.4108016	-0.1281786	0.0	3.0625	-45.0	25.5	2.8071682	-0.25173956	0.1723153
1277223472667	-1.9885708	9.112013	-2.1792557	-0.22894955	0.0	3.0625	-45.25	24.75	2.6948125	-0.22954485	0.21486728
1277223472704	-1.7570249	9.343558	-2.3699405	-0.008393288	0.0	3.0625	-45.0	24.75	2.7588625	-0.2442964	0.18587598
1277223472734	-1.4982382	9.302697	-2.4516625	-0.07034969	0.0	3.5625	-45.25	24.5	2.8514607	-0.2545463	0.15968296
1277223472774	-1.3075534	9.343558	-2.4925237	-0.048348427	0.0	3.5625	-45.5625	24.5	2.9140854	-0.25828826	0.13903876
1277223472819	-1.0351465	9.302697	-2.4516625	-0.13078594	0.0	3.3125	-45.25	24.5	3.0023112	-0.25617182	0.11081793
1277223472854	-0.9942854	9.466142	-2.4108016	0.012127876	0.0	3.3125	-45.0	24.25	3.0289667	-0.24806608	0.10465223
1277223472884	-0.95342433	9.425281	-2.3018389	-0.057629585	0.0	2.8125	-44.5	24.25	3.013475	-0.23836046	0.10081314
1277223472914	-0.88532263	9.343558	-2.1111538	-0.18673134	0.0	2.5625	-43.75	24.0	3.0279214	-0.22125737	0.09447015
1277223472944	-0.9125633	9.302697	-2.1383946	-0.21781921	0.0	2.5625	-44.0	24.25	3.0159464	-0.2249	0.09778379
1277223472974	-0.88532263	9.343558	-2.2201166	-0.1622324	0.0	2.3125	-44.25	24.0	3.000346	-0.23228018	0.09447015
1277223473005	-0.84446156	9.425281	-2.2609777	-0.07725906	0.0	2.0625	-44.25	24.0	2.9975152	-0.23453048	0.089356795
1277223473034	-0.88532263	9.534244	-2.3018389	0.04139805	0.0	2.0625	-44.5	24.75	2.991894	-0.23591788	0.09259163
1277223473064	-0.84446156	9.534244	-2.3426998	0.04744339	0.0	2.8125	-44.5	24.5	3.0566094	-0.24003719	0.0883409
1277223473094	-0.84446156	9.343558	-2.3018389	-0.1467514	0.0	3.0625	-44.0	24.75	3.074398	-0.24060278	0.09013412
1277223473134	-0.88532263	9.343558	-2.2201166	-0.1622324	0.0	3.3125	-44.25	25.0	3.079589	-0.23228018	0.09447015
1277223473164	-0.9942854	9.425281	-2.3426998	-0.04382515	0.0	3.3125	-44.0	24.25	3.0399394	-0.24232593	0.105102606
1277223473194	-1.0351465	9.384419	-2.3018389	-0.08876419	0.0	2.8125	-43.75	24.25	2.9909801	-0.239139	0.109860666
1277223473224	-1.1441092	9.384419	-2.3699405	-0.06021881	0.0	2.5625	-43.5	24.0	2.930628	-0.24562211	0.121317126
1277223473254	-1.1849703	9.384419	-2.3699405	-0.055337906	0.0	2.5625	-43.25	24.0	2.9201488	-0.24549665	0.12560523
1277223473284	-1.0760075	9.343558	-2.3018389	-0.12376118	0.0	2.0625	-43.75	24.25	2.9207318	-0.24002028	0.114655286
1277223473314	-1.1441092	9.343558	-2.3018389	-0.11595726	0.0	2.0625	-44.0	24.5	2.899485	-0.23982319	0.12184244
1277223473354	-1.2666923	9.425281	-2.3699405	-0.0057811737	0.0	1.5625	-44.5	25.0	2.8288906	-0.24422997	0.1335926
1277223473394	-0.9942854	9.425281	-2.3018389	-0.053548813	0.0	1.375	-45.0	25.25	2.9055243	-0.23825878	0.105102606
1277223473434	-0.9125633	9.384419	-2.3426998	-0.0912838	0.0	1.8125	-45.0	25.25	2.9569771	-0.2435336	0.096937604
1277223473477	-0.7218784	9.384419	-2.2609777	-0.12674999	0.0	1.375	-45.0	25.75	2.999411	-0.23575225	0.076771885
1277223473532	-0.61291564	9.302697	-2.1383946	-0.24168396	0.0	1.375	-44.75	26.25	3.0411782	-0.22547084	0.065790705
1277223473564	-0.7218784	9.466142	-2.3018389	-0.03795433	0.0	1.5625	-44.25	25.75	3.0184736	-0.2378711	0.07611168
1277223473594	-0.7627395	9.425281	-2.3018389	-0.074427605	0.0	1.375	-43.75	25.5	2.99318	-0.23877986	0.0807489
1277223473634	-0.7218784	9.466142	-2.3426998	-0.028245926	0.0	1.375	-44.0	25.25	3.0012584	-0.24193214	0.076111674
1277223473674	-0.61291564	9.425281	-2.4108016	-0.05864811	0.0	1.375	-43.75	24.75	3.0305996	-0.24990548	0.064937465
1277223473704	-0.6537767	9.425281	-2.4108016	-0.055994034	0.0	0.875	-44.25	24.75	2.9754207	-0.24983601	0.069253236
1277223473734	-0.7627395	9.466142	-2.4108016	-0.008610725	0.0	0.875	-44.75	25.0	2.9388187	-0.24860221	0.08040184
1277223473774	-0.88532263	9.534244	-2.2609777	0.031928062	0.0	0.875	-44.5	24.25	2.904126	-0.23187974	0.09259163
1277223473814	-0.5720546	9.507003	-2.0294318	-0.06863499	0.0	1.125	-45.0	24.0	3.0299923	-0.20994185	0.060099456
1277223473854	-0.29964766	9.343558	-1.9885708	-0.24912548	0.0	1.375	-44.75	24.5	3.1374898	-0.20959458	0.032058984
1277223473894	-0.5720546	9.152874	-2.0294318	-0.4140501	0.0	1.5625	-44.5	24.5	3.0567589	-0.2177846	0.06241881
1277223473934	-1.1441092	9.275456	-2.3426998	-0.17174911	0.0	1.5625	-44.75	25.0	2.856562	-0.24560916	0.12272811
1277223473964	-1.1849703	9.534244	-2.6423476	0.15768433	0.0	1.375	-44.5	25.25	2.825061	-0.2683912	0.12365163
1277223473994	-1.1168685	9.534244	-2.7921712	0.19062042	0.0	1.375	-44.25	25.0	2.8285327	-0.2830581	0.1166114
1277223474024	-0.88532263	9.425281	-2.982856	0.11892986	0.0	0.875	-44.25	25.25	2.848311	-0.30524	0.09365585
1277223474054	-0.8036005	9.425281	-2.9556155	0.103816986	0.0	0.875	-44.0	25.0	2.8814003	-0.3028395	0.08505441
1277223474094	-0.8036005	9.384419	-2.5606253	-0.046019554	0.0	0.875	-44.0	24.75	2.9125426	-0.26544863	0.085422955
1277223474134	-0.9125633	9.384419	-2.1383946	-0.13851547	0.0	1.375	-44.5	24.75	2.939085	-0.22302389	0.096937604
1277223474174	-0.95342433	9.275456	-1.9885708	-0.2726307	0.0	1.8125	-44.75	24.75	2.957391	-0.21011904	0.10243028
1277223474204	-0.9125633	9.275456	-1.9885708	-0.2766304	0.0	1.8125	-44.5	24.5	2.9694169	-0.21020855	0.098069124
1277223474234	-0.88532263	9.302697	-2.1111538	-0.22641277	0.0	2.3125	-44.75	25.0	3.008939	-0.22218917	0.094882615
1277223474274	-0.8036005	9.343558	-2.4108016	-0.12368488	0.0	2.0625	-44.5	25.0	3.008474	-0.25162023	0.08579471
1277223474314	-0.5720546	9.466142	-2.5333846	0.00931263	0.0	1.5625	-44.25	24.75	3.052971	-0.2610429	0.060358256
1277223474344	-0.50395286	9.384419	-2.6423476	-0.044309616	0.0	1.375	-44.0	25.0	3.0606139	-0.27408624	0.053649485
1277223474384	-0.6537767	9.384419	-2.5333846	-0.064331055	0.0	0.875	-43.75	24.5	2.9670434	-0.26306278	0.06955381
1277223474424	-1.0351465	9.384419	-2.4925237	-0.0418396	0.0	0.375	-43.25	25.0	2.8216753	-0.2581122	0.10986067
1277223474464	-1.0760075	9.343558	-2.4925237	-0.07666874	0.0	0.375	-43.75	25.0	2.799775	-0.25905728	0.114655286
1277223474494	-0.9125633	9.343558	-2.6014864	-0.06485462	0.0	0.375	-44.25	25.25	2.838541	-0.27032414	0.09735886
1277223474534	-0.88532263	9.384419	-2.5606253	-0.038951874	0.0	1.125	-44.25	25.75	2.9167187	-0.2652519	0.09406124
1277223474574	-0.95342433	9.384419	-2.4516625	-0.060523033	0.0	1.125	-44.5	25.25	2.89233	-0.254284	0.101249106
1277223474604	-0.9942854	9.384419	-2.3426998	-0.08326721	0.0	1.375	-44.0	25.25	2.9111083	-0.24332875	0.10555685
1277223474644	-1.0351465	9.234595	-2.2609777	-0.24311066	0.0	1.8125	-43.5	24.75	2.9241552	-0.23867604	0.11162843
1277223474676	-1.2666923	9.425281	-2.3018389	-0.022025108	0.0	1.5625	-43.5	24.0	2.8289816	-0.2374764	0.13359259
1277223474714	-1.2666923	9.302697	-2.4516625	-0.10328293	0.0	2.3125	-43.75	23.75	2.848062	-0.25542954	0.13533169
1277223474754	-1.2666923	9.275456	-2.3018389	-0.16626263	0.0	2.5625	-43.75	23.75	2.8800476	-0.24109939	0.13572429
1277223474784	-1.2258313	9.302697	-2.2609777	-0.15497398	0.0	2.8125	-44.25	24.0	2.9148185	-0.23645477	0.13101676
1277223474824	-1.1441092	9.302697	-2.2201166	-0.17451286	0.0	2.5625	-44.75	24.0	2.9214327	-0.23258178	0.122372314
1277223474854	-0.9125633	9.425281	-2.2609777	-0.07111168	0.0	2.3125	-44.75	24.5	2.993014	-0.23437962	0.09651997
1277223474894	-0.8036005	9.343558	-2.1792557	-0.17872143	0.0	2.3125	-45.0	24.75	3.030512	-0.22832601	0.0857947
1277223474934	-0.6537767	9.302697	-2.1111538	-0.2450304	0.0	1.5625	-44.5	24.5	3.031097	-0.22262909	0.07016283
1277223474964	-0.50395286	9.425281	-2.3426998	-0.08152199	0.0	1.375	-44.0	24.75	3.0689745	-0.2432842	0.053417344
1277223475004	-0.46309182	9.425281	-2.4925237	-0.04637146	0.0	0.625	-44.0	24.75	3.021297	-0.25823474	0.049093466
1277223475034	-0.50395286	9.466142	-2.6014864	0.023382187	0.0	-0.125	-43.75	24.75	2.945042	-0.26783764	0.053187195
1277223475065	-0.42223078	9.425281	-2.7240696	0.013469696	0.0	-0.375	-44.25	25.0	2.943974	-0.28108346	0.04476776
1277223475104	-0.3405087	9.507003	-2.6832085	0.07761288	0.0	-0.375	-44.25	25.25	2.9836924	-0.27491245	0.035801314
1277223475134	-0.29964766	9.534244	-2.6014864	0.08068085	0.0	-0.375	-44.25	25.25	2.9836924	-0.27491245	0.035801314
1277223475174	-0.42223078	9.343558	-2.5606253	-0.10937405	0.0	-0.125	-44.5	25.0	2.9708557	-0.2672252	0.04515878
1277223475204	-0.84446156	9.425281	-2.6014864	0.0074596405	0.0	0.125	-44.25	25.25	2.848254	-0.26828292	0.08935679
1277223475234	-1.1849703	9.425281	-2.5333846	0.024835587	0.0	0.375	-44.0	25.25	2.7701643	-0.26062113	0.12506637
1277223475264	-1.3075534	9.275456	-2.4516625	-0.1239624	0.0	0.625	-43.75	25.5	2.7600164	-0.25598726	0.14004636
1277223475304	-1.3075534	9.234595	-2.4925237	-0.1526289	0.0	0.625	-43.5	25.5	2.7558224	-0.26114303	0.1406579
1277223475334	-1.2666923	9.384419	-2.4516625	-0.024908066	0.0	0.625	-43.5	25.25	2.77688	-0.2533378	0.13416734
1277223475374	-1.0760075	9.302697	-2.3699405	-0.14670277	0.0	0.625	-44.0	25.0	2.8240888	-0.24786708	0.11515447
1277223475404	-0.7218784	9.302697	-2.3018389	-0.19625187	0.0	0.875	-44.5	25.0	2.955191	-0.24186675	0.07744364
1277223475434	-0.61291564	9.425281	-2.3426998	-0.07526684	0.0	1.5625	-44.5	25.0	3.0438633	-0.24312466	0.064937465
1277223475464	-0.6537767	9.466142	-2.4925237	0.00395298	0.0	2.3125	-44.5	25.75	3.0857773	-0.2568801	0.06895525
1277223475504	-0.7627395	9.425281	-2.5333846	-0.0170784	0.0	2.8125	-44.5	26.5	3.0857422	-0.2617631	0.08074889
1277223475534	-1.1168685	9.466142	-2.3699405	0.015358925	0.0	3.0625	-44.0	26.5	3.002364	-0.24369363	0.11744266
1277223475574	-0.9942854	9.425281	-2.3699405	-0.037252426	0.0	3.3125	-44.25	27.3125	3.0561428	-0.24503285	0.105102606
1277223475604	-1.0760075	9.234595	-2.3699405	-0.21226883	0.0	3.0625	-44.5	27.0625	3.0039275	-0.24959691	0.11599612
1277223475634	-1.334794	9.275456	-2.3018389	-0.15707874	0.0	3.0625	-44.25	26.25	2.926014	-0.2408654	0.14292482
1277223475674	-1.4573772	9.384419	-2.3699405	-0.018499374	0.0	3.3125	-44.0	26.0	2.9073043	-0.24455379	0.15406685
1277223475704	-1.334794	9.384419	-2.3426998	-0.042571068	0.0	2.8125	-43.75	25.5	2.9092283	-0.24229419	0.14128742
1277223475744	-1.1441092	9.302697	-2.4108016	-0.12878227	0.0	3.3125	-43.5	25.5	2.9965115	-0.25175563	0.12237231
1277223475784	-1.1168685	9.384419	-2.5606253	-0.015249252	0.0	3.3125	-43.75	26.0	3.0044668	-0.26459435	0.11845589
1277223475814	-0.95342433	9.425281	-2.6014864	0.017436028	0.0	3.5625	-44.25	25.75	3.0721948	-0.26800373	0.10081314
1277223475854	-1.0760075	9.384419	-2.4925237	-0.037423134	0.0	3.5625	-44.5	25.75	3.0288749	-0.2579928	0.114160396
1277223475894	-1.3075534	9.343558	-2.4516625	-0.05870533	0.0	3.0625	-44.25	25.5	2.9167309	-0.25423554	0.13903876
1277223475924	-1.1849703	9.302697	-2.4108016	-0.123867035	0.0	3.0625	-44.0	25.25	2.9568036	-0.25162506	0.12669691
1277223475954	-1.1441092	9.234595	-2.3426998	-0.2110796	0.0	2.8125	-43.75	25.75	2.9623766	-0.24663675	0.123265676
1277223475984	-1.1849703	9.275456	-2.3699405	-0.1601553	0.0	2.8125	-43.75	25.75	2.9623766	-0.24663675	0.123265676
1277223476014	-1.2666923	9.343558	-2.4516625	-0.06410217	0.0	3.5625	-44.0	25.75	2.9711075	-0.25437948	0.13474701
1277223476074	-1.2666923	9.302697	-2.6014864	-0.06435013	0.0	3.3125	-43.5	26.0	2.95127	-0.2703098	0.1353317
1277223476104	-1.1849703	9.302697	-2.6014864	-0.07463837	0.0	3.5625	-43.0	25.75	2.9996336	-0.27060273	0.12669691
1277223476134	-1.334794	9.425281	-2.6014864	0.061750412	0.0	3.3125	-43.25	26.0	2.9406185	-0.2667708	0.14068297
1277223476174	-1.334794	9.425281	-2.5606253	0.051056862	0.0	3.5625	-43.25	25.5	2.9540741	-0.26277232	0.14068297
1277223476204	-1.2258313	9.384419	-2.3426998	-0.056868553	0.0	3.5625	-43.25	25.25	2.9958124	-0.24265665	0.12988868
1277223476234	-0.9942854	9.302697	-2.3018389	-0.17196083	0.0	3.0625	-43.75	25.5	3.0297897	-0.24124482	0.10647719
1277223476264	-0.7627395	9.152874	-2.4925237	-0.28984642	0.0	2.8125	-43.5	25.5	3.080306	-0.26499832	0.08314123
1277223476304	-0.9125633	9.302697	-2.4925237	-0.13268375	0.0	2.8125	-44.0	26.0	3.0333254	-0.26059213	0.09778378
1277223476334	-1.1441092	9.384419	-2.3699405	-0.06021881	0.0	2.5625	-44.0	26.5	2.9583666	-0.24562211	0.121317126
1277223476364	-1.0760075	9.384419	-2.4925237	-0.037423134	0.0	2.8125	-44.0	26.5	2.9886444	-0.2579928	0.114160396
1277223476394	-0.88532263	9.425281	-2.6423476	0.021966934	0.0	2.0625	-44.0	26.5	2.9921973	-0.27219084	0.09365585
1277223476424	-0.7218784	9.507003	-2.9147544	0.16330528	0.0	1.5625	-43.75	26.5	3.002739	-0.29668722	0.0757858
1277223476454	-0.8036005	9.534244	-2.7513103	0.14911652	0.0	1.125	-43.75	25.5	2.939034	-0.2799977	0.08408696
1277223476484	-0.6946377	9.507003	-2.6014864	0.07430935	0.0	0.625	-44.0	25.75	2.949429	-0.26642346	0.07293629
1277223476524	-0.61291564	9.384419	-2.4108016	-0.09815121	0.0	0.625	-44.5	25.5	2.9765067	-0.25094417	0.06521942
1277223476564	-0.9125633	9.384419	-2.0294318	-0.16203022	0.0	0.625	-45.0	25.0	2.8977098	-0.2120057	0.0969376
1277223476594	-0.88532263	9.343558	-2.2201166	-0.1622324	0.0	0.875	-45.5625	25.5	2.9072537	-0.23228018	0.09447015
1277223476624	-0.7627395	9.425281	-2.4108016	-0.04808235	0.0	0.875	-45.25	25.5	2.9393902	-0.24962915	0.08074889
1277223476664	-0.6537767	9.534244	-2.4108016	0.049372673	0.0	0.375	-44.75	25.5	2.9492545	-0.24710907	0.06846426
1277223476694	-0.3405087	9.425281	-2.7240696	0.010294914	0.0	-0.125	-44.25	25.5	3.00166	-0.28117684	0.036111463
1277223476724	-0.29964766	9.466142	-2.7921712	0.06724739	0.0	-0.375	-44.25	25.25	2.9912462	-0.2866944	0.03164411
1277223476764	-0.50395286	9.575105	-2.5333846	0.11074066	0.0	-0.375	-44.25	25.0	2.9350605	-0.25831178	0.05258306
1277223476804	-0.6946377	9.384419	-2.1111538	-0.16264534	0.0	0.125	-44.5	24.75	2.9260316	-0.22069561	0.073885575
1277223476834	-0.88532263	9.275456	-1.9477097	-0.2876444	0.0	0.625	-44.5	24.5	2.9042253	-0.20606804	0.0951596
1277223476864	-1.0760075	9.384419	-2.1792557	-0.11261749	0.0	0.625	-44.25	24.5	2.8352692	-0.22674172	0.114160396
1277223476904	-0.8036005	9.534244	-2.4516625	0.07050705	0.0	0.875	-44.0	24.0	2.9167883	-0.25083756	0.08408696
1277223476934	-0.3405087	9.466142	-2.3018389	-0.058714867	0.0	1.125	-43.75	24.0	3.107077	-0.23838751	0.035955723
1277223476964	-0.14982383	9.507003	-2.4516625	0.012524605	0.0	0.625	-44.0	24.25	3.1361184	-0.25235096	0.015758008
1277223477004	-0.23154591	9.534244	-2.5606253	0.06817722	0.0	0.375	-44.25	24.5	3.084271	-0.262306	0.024280941
1277223477034	-0.53119355	9.384419	-2.3699405	-0.11303806	0.0	0.125	-44.25	25.0	2.9666011	-0.2469883	0.05654344
1277223477064	-0.7627395	9.302697	-2.3426998	-0.18323135	0.0	-0.125	-44.0	25.5	2.8829293	-0.24590826	0.081808224
1277223477106	-1.0351465	9.466142	-2.3426998	-1.411438E-4	0.0	-0.125	-44.0	26.0	2.8214583	-0.24122499	0.10891975
1277223477144	-0.9942854	9.507003	-2.6832085	0.121658325	0.0	0.375	-44.0	25.75	2.8278065	-0.27366138	0.1042057
1277223477184	-0.9942854	9.425281	-2.4516625	-0.017106056	0.0	0.375	-44.25	25.75	2.8435724	-0.25313145	0.105102606
1277223477214	-0.7627395	9.425281	-2.3426998	-0.06468296	0.0	0.875	-44.5	25.5	2.950796	-0.2428552	0.08074889
1277223477254	-0.9125633	9.302697	-2.3699405	-0.16354084	0.0	1.5625	-44.0	25.0	2.9403458	-0.24830902	0.09778379
1277223477284	-1.0760075	9.193735	-2.1792557	-0.29709148	0.0	1.8125	-43.75	25.0	2.9161932	-0.23121953	0.11650701
1277223477314	-1.1441092	9.112013	-2.070293	-0.39262486	0.0	2.3125	-43.5	24.75	2.9305878	-0.22172816	0.124906875
1277223477344	-1.1441092	9.112013	-2.2609777	-0.34886074	0.0	1.8125	-43.75	24.25	2.8700159	-0.24139753	0.124906875
1277223477384	-1.1441092	9.384419	-2.7513103	0.039466858	0.0	1.5625	-44.0	24.5	2.81838	-0.28320146	0.121317126
1277223477414	-1.0760075	9.534244	-2.6832085	0.15624142	0.0	1.8125	-44.25	24.75	2.8827307	-0.27268714	0.11238163
1277223477444	-0.88532263	9.425281	-2.5606253	3.1280518E-4	0.0	1.5625	-44.5	25.0	2.9364834	-0.26416445	0.09365585
1277223477474	-0.8036005	9.384419	-2.6832085	-0.0131464	0.0	2.0625	-44.5	25.5	3.001245	-0.27752727	0.08542296
1277223477504	-0.9125633	9.466142	-2.6014864	0.052779198	0.0	1.8125	-44.25	25.75	2.9582496	-0.26701945	0.096105896
1277223477534	-0.9942854	9.425281	-2.4108016	-0.027259827	0.0	1.8125	-44.0	25.75	2.9449317	-0.24908635	0.105102606
1277223477574	-0.9942854	9.384419	-2.3426998	-0.08326721	0.0	2.5625	-43.75	25.5	2.9974527	-0.24332875	0.10555685
1277223477605	-0.9125633	9.466142	-2.3699405	-0.005771637	0.0	2.5625	-43.5	25.5	3.0278645	-0.24422973	0.096105896
1277223477644	-0.9942854	9.466142	-2.2201166	-0.032942772	0.0	3.8125	-44.0	25.5	3.0872881	-0.22915217	0.10465224
1277223477684	-0.88532263	9.425281	-1.7978859	-0.17067051	0.0	3.5625	-43.75	25.0	3.1083422	-0.18768038	0.09365585
1277223477714	-0.95342433	9.152874	-1.8387469	-0.42234898	0.0	3.3125	-43.75	25.0	3.063989	-0.19721451	0.10379233
1277223477754	-0.9125633	9.343558	-1.920469	-0.22421551	0.0	3.0625	-43.75	24.75	3.063832	-0.20178208	0.09735886
1277223477794	-0.95342433	9.507003	-2.3426998	0.031050682	0.0	2.3125	-43.25	24.5	2.9933596	-0.24044505	0.09995234
1277223477824	-0.84446156	9.425281	-2.4925237	-0.020859718	0.0	2.8125	-43.5	25.0	3.0591416	-0.25754622	0.08935679
1277223477864	-0.5720546	9.534244	-2.8330324	0.15603638	0.0	3.0625	-43.75	25.25	-3.1044009	-0.2883433	0.059928156
1277223477904	-0.50395286	9.302697	-2.6832085	-0.11161232	0.0	3.5625	-43.75	25.25	-3.043663	-0.2804218	0.05411987
1277223477934	-0.38136974	9.152874	-2.6423476	-0.27236748	0.0	3.5625	-44.25	25.25	-2.9990654	-0.28081802	0.041642576
1277223477964	-0.84446156	9.534244	-2.7240696	0.14500618	0.0	3.5625	-44.25	25.0	3.1117208	-0.2772693	0.0883409
1277223478004	-1.3075534	9.847511	-2.3699405	0.40607643	0.0	3.5625	-43.75	24.5	2.9799569	-0.23419246	0.13200791
1277223478034	-1.2258313	9.466142	-1.9885708	-0.056526184	0.0	4.25	-43.25	24.75	3.0546627	-0.2053945	0.12877974
1277223478064	-1.1168685	9.152874	-1.6889231	-0.43248558	0.0	5.0	-43.0	24.75	3.1267738	-0.1811571	0.12142353
1277223478094	-1.4165162	9.043911	-1.7297841	-0.49048138	0.0	5.5	-43.0	25.25	3.0689464	-0.18675926	0.15536425
1277223478124	-1.879608	9.00305	-1.920469	-0.41111755	0.0	5.75	-43.25	26.0	2.9500768	-0.20585313	0.20581825
1277223478154	-1.9885708	9.234595	-2.1111538	-0.12733555	0.0	5.5	-43.5	25.75	2.9038653	-0.21987729	0.2121004
1277223478194	-1.7978859	9.343558	-2.4516625	0.019087791	0.0	5.25	-43.5	25.75	2.926571	-0.2521787	0.19009642
1277223478224	-1.3756552	9.384419	-2.7240696	0.06149578	0.0	4.5	-43.75	25.5	2.9898522	-0.2796786	0.1455526
1277223478254	-1.2666923	9.384419	-2.6014864	0.01371479	0.0	4.0625	-44.0	25.25	2.9956598	-0.2681078	0.13416734
1277223478284	-1.1849703	9.343558	-2.3699405	-0.09465504	0.0	3.0625	-44.0	25.25	2.9617882	-0.24651107	0.12614872
1277223478324	-1.0760075	9.302697	-2.2609777	-0.17285633	0.0	3.0625	-44.0	25.25	2.9617882	-0.24651107	0.12614872
1277223478354	-0.9942854	9.343558	-2.1383946	-0.170084	0.0	3.0625	-44.0	24.75	3.0298378	-0.22376692	0.10601503
1277223478394	-1.1168685	9.302697	-1.8387469	-0.25842667	0.0	2.5625	-44.0	25.25	2.9774544	-0.19378535	0.11948666
1277223478424	-1.1168685	9.302697	-1.6480621	-0.2933073	0.0	2.5625	-44.25	25.5	2.9863806	-0.17411534	0.11948667
1277223478454	-0.5720546	9.384419	-1.9477097	-0.20518398	0.0	1.8125	-44.25	25.5	3.0864034	-0.2042731	0.06088258
1277223478485	-0.19068487	9.575105	-2.4108016	0.06912613	0.0	1.375	-44.0	25.75	-3.1065533	-0.24660452	0.01991202
1277223478524	-0.27240697	9.656827	-2.4925237	0.17038345	0.0	1.5625	-43.75	25.25	-3.1173067	-0.25250068	0.028201267
1277223478554	-0.27240697	9.575105	-2.4925237	0.09130478	0.0	1.375	-44.0	25.75	-3.1326897	-0.25456256	0.028441831
1277223478584	-0.3405087	9.534244	-2.3699405	0.023627281	0.0	1.5625	-44.0	25.5	3.1409614	-0.24348453	0.035699114
1277223478614	-0.5720546	9.534244	-2.3018389	0.018191338	0.0	1.8125	-44.25	25.5	3.0833225	-0.23648575	0.059928156
1277223478644	-0.7218784	9.384419	-2.2201166	-0.1362133	0.0	1.375	-44.5	25.5	3.0027087	-0.23164377	0.07677189
1277223478684	-0.95342433	9.302697	-2.1383946	-0.2138443	0.0	1.8125	-44.5	24.75	2.9516234	-0.22480522	0.10213242
1277223478724	-1.1168685	9.234595	-2.2201166	-0.24348831	0.0	1.375	-45.0	25.0	2.8590088	-0.23429056	0.120359376
1277223478754	-1.1168685	9.466142	-2.1792557	-0.028900146	0.0	1.125	-45.0	25.25	2.8647506	-0.22476682	0.11744266
1277223478794	-0.88532263	9.302697	-2.3018389	-0.18259525	0.0	1.375	-45.0	25.5	2.937917	-0.2415167	0.09488262
1277223478824	-0.7627395	9.193735	-2.4516625	-0.26111794	0.0	1.125	-45.0	25.5	2.9457462	-0.2597498	0.08277341
1277223478854	-0.8036005	9.275456	-2.4925237	-0.16857243	0.0	1.375	-44.5	25.25	2.952256	-0.26158518	0.086421505
1277223478894	-0.7627395	9.466142	-2.3426998	-0.025144577	0.0	0.875	-44.5	25.25	2.9492688	-0.24185391	0.08040184
1277223478924	-0.9942854	9.534244	-2.2609777	0.042330742	0.0	0.375	-44.5	25.0	2.850535	-0.23163036	0.10391011
1277223478954	-0.9942854	9.534244	-2.1383946	0.014914513	0.0	0.125	-44.75	25.0	2.8435836	-0.21948238	0.10391011
1277223478990	-0.84446156	9.466142	-2.070293	-0.080034256	0.0	0.125	-44.75	25.25	2.8931236	-0.21448907	0.08897311
1277223479024	-0.46309182	9.384419	-2.1383946	-0.17054558	0.0	0.375	-44.5	24.75	3.0147865	-0.22377783	0.04930688
1277223479054	-0.27240697	9.425281	-2.2201166	-0.11959553	0.0	0.375	-44.5	24.75	3.0147865	-0.22377783	0.04930688
1277223479084	-0.29964766	9.302697	-2.2609777	-0.228446	0.0	0.625	-44.25	25.0	3.083896	-0.23830354	0.032199703
1277223479114	-0.46309182	9.343558	-2.3018389	-0.17259598	0.0	0.625	-44.25	25.0	3.083896	-0.23830354	0.032199703
1277223479144	-0.50395286	9.466142	-2.4516625	-0.015201569	0.0	1.125	-44.25	25.75	3.0530918	-0.25308114	0.0531872
1277223479184	-0.6537767	9.507003	-2.4516625	0.033124924	0.0	1.5625	-44.5	26.0	3.0359588	-0.25181115	0.06865982
1277223479214	-0.8036005	9.534244	-2.4516625	0.07050705	0.0	1.5625	-44.25	26.25	2.9932573	-0.25083756	0.08408696
1277223479254	-0.95342433	9.466142	-2.2609777	-0.027647972	0.0	1.375	-44.5	25.75	2.9354532	-0.23331852	0.100380905
1277223479284	-0.9942854	9.275456	-2.2201166	-0.21750927	0.0	1.375	-44.25	25.5	2.915897	-0.233644	0.10678753
1277223479324	-0.9125633	9.384419	-2.3018389	-0.1010561	0.0	1.375	-43.75	25.5	2.9453235	-0.23944777	0.096937604
1277223479354	-0.84446156	9.343558	-2.3426998	-0.13693237	0.0	1.375	-43.75	25.5	2.9453235	-0.23944777	0.096937604
1277223479394	-0.84446156	9.343558	-2.3699405	-0.13029766	0.0	1.375	-43.75	26.25	2.96916	-0.24743806	0.09013413
1277223479434	-0.9125633	9.425281	-2.3699405	-0.045230865	0.0	1.125	-44.0	26.25	2.9338636	-0.24523723	0.09651997
1277223479474	-0.95342433	9.343558	-2.4516625	-0.099861145	0.0	1.375	-43.75	26.0	2.9274075	-0.25533745	0.101688854
1277223479504	-0.9942854	9.343558	-2.4108016	-0.10599804	0.0	1.5625	-44.0	26.0	2.9275265	-0.25115153	0.10601503
1277223479534	-1.0351465	9.384419	-2.3699405	-0.07240772	0.0	2.0625	-43.75	25.75	2.9522521	-0.24593604	0.10986067
1277223479564	-1.0351465	9.384419	-2.4108016	-0.062378883	0.0	2.3125	-43.5	25.5	2.9662597	-0.25000322	0.109860666
1277223479594	-1.0351465	9.384419	-2.3426998	-0.07900429	0.0	2.0625	-44.0	25.5	2.9481652	-0.24321996	0.109860666
1277223479624	-0.9125633	9.384419	-2.3018389	-0.1010561	0.0	1.375	-43.75	25.5	2.9453235	-0.23944777	0.096937604
1277223479654	-0.84446156	9.343558	-2.3699405	-0.13029766	0.0	0.625	-44.0	25.75	2.9110098	-0.24743806	0.09013413
1277223479684	-0.8036005	9.343558	-2.3018389	-0.15023708	0.0	0.375	-44.5	26.5	2.9184828	-0.24069136	0.0857947
1277223479724	-0.88532263	9.384419	-2.3699405	-0.08719826	0.0	0.375	-44.5	26.8125	2.8961043	-0.24631804	0.09406124
1277223479764	-0.9942854	9.384419	-2.4108016	-0.06663513	0.0	0.875	-44.75	26.25	2.880607	-0.2501148	0.10555686
1277223479794	-1.0351465	9.425281	-2.4516625	-0.012871742	0.0	1.5625	-44.5	25.75	2.9067695	-0.25301963	0.10938819
1277223479836	-1.1441092	9.343558	-2.3426998	-0.106170654	0.0	1.8125	-44.5	25.0	2.8810613	-0.2439149	0.121842444
1277223479874	-0.84446156	9.343558	-2.5606253	-0.0818367	0.0	1.5625	-44.25	24.75	2.9457862	-0.26645005	0.09013413
1277223479914	-0.88532263	9.425281	-2.3426998	-0.05431938	0.0	1.375	-44.25	25.0	2.9414907	-0.24259193	0.09365585
1277223479944	-0.84446156	9.343558	-2.3426998	-0.13693237	0.0	1.125	-44.25	25.25	2.9370039	-0.2447067	0.09013413
1277223479974	-0.8036005	9.384419	-2.3018389	-0.11069393	0.0	0.875	-44.0	25.75	2.9465363	-0.23969047	0.08542296
1277223480004	-0.84446156	9.425281	-2.2201166	-0.08667374	0.0	1.375	-44.0	26.0	2.975734	-0.23044175	0.08935678
1277223480064	-0.9125633	9.384419	-2.3018389	-0.1010561	0.0	1.5625	-44.0	26.0	2.9613504	-0.23944777	0.096937604
1277223480094	-0.6946377	9.384419	-2.3426998	-0.10932636	0.0	1.8125	-44.0	26.25	3.0448272	-0.2439959	0.073885575
1277223480124	-0.5720546	9.384419	-2.3018389	-0.12713337	0.0	1.8125	-44.25	26.5	3.0835884	-0.24010554	0.060882576
1277223480154	-0.5720546	9.384419	-2.3699405	-0.110713005	0.0	1.5625	-44.25	26.0	3.063047	-0.24692784	0.060882576
1277223480194	-0.7218784	9.425281	-2.4108016	-0.051190376	0.0	1.5625	-44.25	26.0	3.063047	-0.24692784	0.060882576
1277223480224	-0.9942854	9.343558	-2.4108016	-0.10599804	0.0	0.875	-44.25	26.0	2.8797646	-0.25115153	0.10601503
1277223480254	-1.1849703	9.302697	-2.2609777	-0.16007805	0.0	0.875	-44.5	25.25	2.8179278	-0.23658226	0.12669691
1277223480284	-1.1441092	9.234595	-2.6423476	-0.13355732	0.0	0.625	-44.75	25.75	2.7724369	-0.27668133	0.12326568
1277223480314	-1.0351465	9.302697	-2.7921712	-0.038951874	0.0	0.375	-44.5	25.5	2.7731414	-0.28990132	0.110817924
1277223480344	-0.9942854	9.466142	-2.6832085	0.082538605	0.0	0.375	-44.75	25.25	2.8030338	-0.27477196	0.10465224
1277223480384	-0.5720546	9.302697	-2.6014864	-0.13012409	0.0	0.125	-44.5	25.5	2.9378862	-0.27219376	0.061416082
1277223480424	-0.5720546	9.302697	-2.4516625	-0.16932297	0.0	0.125	-44.25	25.5	2.9509041	-0.25721934	0.061416082
1277223480464	-0.84446156	9.302697	-2.6423476	-0.09916401	0.0	0.625	-44.25	26.0	2.887513	-0.2756754	0.09052788
1277223480494	-0.95342433	9.302697	-2.7513103	-0.058885574	0.0	0.875	-44.0	26.0	2.8613777	-0.28613907	0.10213242
1277223480534	-0.9125633	9.425281	-2.5333846	-0.004266739	0.0	1.125	-43.75	26.0	2.9213986	-0.26141298	0.09651996
1277223480564	-0.9942854	9.575105	-2.2201166	0.072628975	0.0	1.125	-43.75	26.0	2.9213986	-0.26141298	0.09651996
1277223480594	-0.88532263	9.343558	-2.3426998	-0.13327885	0.0	0.875	-44.0	25.75	2.9169972	-0.2446124	0.09447014
1277223480634	-0.88532263	9.234595	-2.5606253	-0.18280792	0.0	1.125	-44.25	26.0	2.9126203	-0.2693148	0.095578104
1277223480664	-1.0351465	9.425281	-2.4925237	-0.0025634766	0.0	0.875	-44.0	26.25	2.872139	-0.25705472	0.109388195
1277223480704	-1.0351465	9.425281	-2.4108016	-0.023020744	0.0	1.125	-44.0	25.75	2.8867862	-0.24897613	0.109388195
1277223480744	-0.95342433	9.302697	-2.3018389	-0.1760912	0.0	1.125	-44.25	25.75	2.9110792	-0.24135034	0.10213242
1277223480774	-0.9942854	9.384419	-2.3018389	-0.09303093	0.0	1.125	-43.75	25.25	2.9004266	-0.2392461	0.10555686
1277223480814	-0.9125633	9.384419	-2.3426998	-0.0912838	0.0	1.375	-43.75	25.0	2.935821	-0.2435336	0.096937604
1277223480844	-0.88532263	9.275456	-2.5333846	-0.15077496	0.0	1.375	-43.75	25.25	2.9288023	-0.2654745	0.0951596
1277223480874	-0.8036005	9.275456	-2.4925237	-0.16857243	0.0	1.5625	-43.75	25.25	2.9735537	-0.26158518	0.086421505
1277223480914	-0.88532263	9.384419	-2.5606253	-0.038951874	0.0	1.125	-44.25	25.75	2.9167187	-0.2652519	0.09406124
1277223480944	-1.1441092	9.343558	-2.4108016	-0.08949852	0.0	0.625	-44.5	25.75	2.8113382	-0.25071594	0.121842444
1277223480974	-1.1168685	9.275456	-2.4108016	-0.15815449	0.0	0.125	-44.5	25.75	2.78365	-0.2525387	0.11983423
1277223481004	-0.9125633	9.234595	-2.5333846	-0.1874733	0.0	-0.625	-44.0	26.0	2.7917936	-0.26651195	0.09850027
1277223481044	-0.7627395	9.425281	-2.7240696	0.033991814	0.0	-0.625	-43.75	25.75	2.8253074	-0.2804814	0.0807489
1277223481074	-0.8036005	9.507003	-2.5606253	0.07189655	0.0	-0.875	-43.75	25.5	2.812598	-0.26220492	0.08432677
1277223481104	-0.7218784	9.384419	-2.2201166	-0.1362133	0.0	-1.125	-43.5	25.75	2.8549628	-0.23164377	0.07677189
1277223481144	-0.53119355	9.302697	-2.3699405	-0.192132	0.0	-1.125	-43.75	25.5	2.8880918	-0.24906306	0.057039086
1277223481174	-0.6537767	9.425281	-2.6423476	0.0038204193	0.0	-0.875	-44.0	25.75	2.8487275	-0.27270716	0.069253236
1277223481214	-0.8036005	9.575105	-2.5606253	0.13745403	0.0	-0.625	-44.25	26.25	2.8425376	-0.260436	0.08372981
1277223481244	-0.6946377	9.343558	-2.3426998	-0.14886379	0.0	-0.125	-44.5	26.0	2.9091089	-0.24501522	0.07420751
1277223481274	-0.5720546	9.234595	-2.2609777	-0.28210163	0.0	-0.125	-44.75	26.0	2.946798	-0.23967224	0.06186785
1277223481304	-0.46309182	9.343558	-2.5333846	-0.11466503	0.0	-0.375	-44.5	25.75	2.9493601	-0.2644616	0.049522158
1277223481344	-0.42223078	9.507003	-2.4108016	0.010342598	0.0	-0.125	-44.5	25.5	2.9906619	-0.24811214	0.044383444
1277223481374	-0.23154591	9.534244	-2.0294318	-0.056059837	0.0	-0.125	-44.5	25.25	3.0636754	-0.20966704	0.02428094
1277223481414	-0.08172209	9.615966	-2.0294318	0.021475792	0.0	-0.375	-44.0	25.25	3.0936873	-0.20798858	0.008498378
1277223481444	0.10896278	9.656827	-2.3699405	0.13733292	0.0	0.375	-43.75	25.25	-3.0800555	-0.240645	-0.011283019
1277223481488	-0.10896278	9.615966	-2.4925237	0.12770176	0.0	0.625	-43.5	25.25	-3.1318293	-0.25360933	0.01133096
1277223481524	-0.6946377	9.615966	-2.5333846	0.16166782	0.0	0.375	-43.75	25.75	2.9430404	-0.25696215	0.072112694
1277223481554	-0.9942854	9.343558	-2.7921712	-0.004257202	0.0	1.125	-44.0	25.5	2.8537347	-0.28884566	0.10601503
1277223481584	-1.4573772	9.234595	-2.6832085	-0.080329895	0.0	1.375	-44.5	25.5	2.7165484	-0.2794956	0.15652615
1277223481614	-1.525479	9.343558	-2.3426998	-0.053834915	0.0	1.8125	-44.75	25.25	2.7680147	-0.24257964	0.16183743
1277223481644	-1.525479	9.152874	-2.0294318	-0.30818844	0.0	2.8125	-44.5	25.25	2.8510652	-0.21531893	0.16514868
1277223481674	-1.4982382	8.921328	-2.0294318	-0.5355444	0.0	4.0625	-44.75	26.0	2.9261763	-0.22068551	0.16638629
1277223481714	-1.7297841	9.112013	-2.4925237	-0.20281696	0.0	4.25	-44.5	26.0	2.8462822	-0.2625399	0.18760324
1277223481744	-1.3075534	9.343558	-2.9147544	0.067941666	0.0	4.25	-44.25	26.5	2.9853258	-0.29964095	0.13903876
1277223481774	-1.0351465	9.384419	-2.8738933	0.062397957	0.0	4.25	-44.0	26.0	3.0916607	-0.29548377	0.109860666
1277223481814	-0.95342433	9.343558	-2.7513103	-0.019883156	0.0	3.3125	-43.5	25.25	3.0482697	-0.2849668	0.101688854
1277223481844	-1.1168685	9.302697	-2.4925237	-0.11127758	0.0	3.0625	-44.0	25.25	2.9745963	-0.2600034	0.11948666
1277223481874	-1.2666923	9.507003	-2.3426998	0.06633568	0.0	3.0625	-44.25	25.0	2.9405708	-0.23956884	0.13245769
1277223481914	-1.4165162	9.80665	-2.4516625	0.4005804	0.0	2.8125	-44.75	25.25	2.8850455	-0.24256036	0.14345227
1277223481954	-0.9125633	9.888372	-2.3699405	0.40262508	0.0	3.0625	-44.5	25.75	3.070949	-0.23427312	0.092025846
1277223481988	0.10896278	9.697687	-2.5606253	0.2239933	0.0	2.8125	-43.75	26.25	-2.9133117	-0.25813755	-0.011235482
1277223482024	-0.10896278	9.152874	-2.982856	-0.1793766	0.0	2.8125	-43.5	26.25	-2.9441745	-0.3150184	0.011904199
1277223482054	-1.1168685	9.275456	-3.1054392	0.038412094	0.0	3.0625	-43.25	26.25	2.9544806	-0.32091093	0.11983423
1277223482084	-1.2666923	8.962189	-2.4108016	-0.43983078	0.0	2.8125	-43.25	26.0	2.912292	-0.26030654	0.14040737
1277223482114	-1.1168685	8.471856	-1.920469	-1.0483427	0.0	3.3125	-43.0	26.0	2.9959326	-0.22107029	0.13107692
1277223482154	-1.3075534	8.349273	-2.4108016	-1.0184755	0.0	3.5625	-42.75	26.25	2.916339	-0.277886	0.15534508
1277223482184	-1.879608	8.921328	-2.4108016	-0.3761158	0.0	3.5625	-42.75	26.0	2.783933	-0.25850746	0.20765013
1277223482224	-1.4982382	9.466142	-2.1792557	0.021966934	0.0	3.8125	-43.25	25.75	2.950748	-0.22358373	0.15697128
1277223482254	-0.6946377	9.615966	-2.3699405	0.12138748	0.0	3.8125	-44.25	25.25	-3.0974822	-0.24103917	0.072112694
1277223482284	-0.50395286	9.302697	-2.3018389	-0.21016121	0.0	3.5625	-44.25	25.25	-3.0578814	-0.24222434	0.054119866
1277223482314	-0.6537767	9.193735	-1.9477097	-0.38615322	0.0	3.8125	-44.5	25.5	-3.100484	-0.2082544	0.070991606
1277223482344	-0.9125633	9.384419	-1.9477097	-0.178895	0.0	3.8125	-44.5	25.5	-3.100484	-0.2082544	0.070991606
1277223482374	-0.6537767	9.615966	-2.070293	0.051358223	0.0	3.8125	-44.25	25.25	-3.08942	-0.2115865	0.0678842
1277223482414	-0.5720546	9.697687	-2.2201166	0.1583538	0.0	4.0625	-44.75	24.75	-3.0413575	-0.22467685	0.05892049
1277223482454	-0.7627395	9.575105	-2.7240696	0.1775856	0.0	3.8125	-44.75	24.75	-3.120225	-0.27634075	0.07949075
1277223482484	-1.0760075	9.888372	-2.982856	0.5777197	0.0	4.0625	-44.75	24.5	3.065785	-0.29134917	0.10838897
1277223482524	-0.9942854	9.656827	-2.6014864	0.24375534	0.0	4.0625	-44.75	24.5	3.065785	-0.29134917	0.10838897
1277223482554	-1.1168685	9.384419	-2.070293	-0.13189793	0.0	4.0625	-44.75	24.75	3.055675	-0.215657	0.11845589
1277223482584	-1.4573772	9.384419	-1.9885708	-0.10377979	0.0	5.0	-44.5	24.25	3.0126863	-0.2064092	0.15406683
1277223482614	-1.6889231	9.234595	-1.9477097	-0.21896076	0.0	5.25	-44.25	24.75	2.9596386	-0.2045708	0.18089166
1277223482654	-1.56634	9.084772	-1.7570249	-0.42189407	0.0	5.75	-44.25	25.25	3.0295262	-0.18833251	0.17073521
1277223482684	-1.4573772	9.043911	-1.7570249	-0.47908783	0.0	6.5	-43.75	25.0	3.1081266	-0.1895013	0.15977107
1277223482714	-1.56634	8.894087	-2.1383946	-0.5259752	0.0	6.25	-44.25	25.5	3.0373437	-0.23250279	0.17432272
1277223482744	-1.7297841	9.00305	-2.6832085	-0.25433826	0.0	6.25	-44.5	25.25	2.9497228	-0.2847278	0.18981995
1277223482774	-2.1111538	9.343558	-3.0237172	0.23834419	0.0	5.75	-44.5	24.75	2.7495153	-0.30575928	0.22221613
1277223482814	-2.4516625	9.656827	-2.7513103	0.5294361	0.0	5.0	-44.75	25.0	2.6744854	-0.269433	0.24862586
1277223482854	-1.920469	9.534244	-1.9477097	0.11219978	0.0	4.0625	-44.25	24.75	2.845586	-0.19764882	0.1987688
1277223482894	-1.0760075	9.302697	-1.7297841	-0.28351402	0.0	3.3125	-44.25	24.75	3.0318851	-0.18265411	0.11515447
1277223482924	-0.27240697	9.275456	-1.8387469	-0.3467722	0.0	2.5625	-43.75	25.25	-3.063182	-0.19561845	0.029360138
1277223482957	-0.0	9.343558	-1.9885708	-0.25382328	0.0	2.0625	-43.5	25.0	-3.008432	-0.2096992	0.0
1277223482994	-0.10896278	9.615966	-2.2609777	0.07215023	0.0	1.8125	-43.5	25.25	-3.0515823	-0.23091845	0.011330959
1277223483034	-0.23154591	9.847511	-2.2609777	0.29973984	0.0	1.5625	-43.25	25.25	-3.105075	-0.22562714	0.023508808
1277223483064	-0.19068487	9.534244	-2.1383946	-0.033682823	0.0	1.8125	-44.0	25.0	-3.0785146	-0.22059178	0.019997334
1277223483094	-0.42223078	9.234595	-1.9885708	-0.3509407	0.0	1.8125	-44.5	25.0	3.1268718	-0.2118856	0.045690894
1277223483124	-0.6946377	9.234595	-2.070293	-0.31737328	0.0	1.8125	-44.5	25.0	3.1268718	-0.2118856	0.045690894
1277223483154	-0.8036005	9.343558	-2.1383946	-0.18788815	0.0	1.5625	-45.0	25.25	2.9856114	-0.2241882	0.08579471
1277223483184	-0.5720546	9.384419	-2.3699405	-0.110713005	0.0	1.125	-44.75	25.25	3.0240595	-0.24692784	0.060882576
1277223483214	-0.50395286	9.425281	-2.5606253	-0.026738167	0.0	0.125	-44.75	25.75	2.9710624	-0.2649127	0.053417344
1277223483244	-0.6537767	9.466142	-2.6423476	0.043084145	0.0	-0.375	-44.75	25.5	2.8737025	-0.27159247	0.06895525
1277223483274	-0.5720546	9.466142	-2.5606253	0.016378403	0.0	-1.125	-44.5	25.5	2.8578734	-0.2637221	0.060358252
1277223483304	-0.38136974	9.425281	-2.4516625	-0.06026554	0.0	-1.5625	-44.25	25.25	2.895402	-0.25427714	0.04044037
1277223483334	-0.38136974	9.384419	-2.3699405	-0.120093346	0.0	-1.5625	-44.25	25.25	2.895402	-0.25427714	0.04044037
1277223483365	-0.6946377	9.384419	-2.2201166	-0.13820839	0.0	-2.0625	-44.5	25.5	2.7922351	-0.23169243	0.07388558
1277223483404	-0.6537767	9.343558	-1.9477097	-0.23988152	0.0	-1.5625	-44.75	25.25	2.8509693	-0.20502453	0.06985699
1277223483444	-0.38136974	9.275456	-2.1111538	-0.28632927	0.0	-1.375	-45.0	25.0	2.921726	-0.22361124	0.04109286
1277223483484	-0.3405087	9.343558	-2.4108016	-0.15108204	0.0	-1.5625	-45.0	24.75	2.8957086	-0.2523497	0.036427032
1277223483514	-0.42223078	9.534244	-2.6014864	0.08515453	0.0	-0.875	-45.0	25.25	2.9171166	-0.26612425	0.0442568
1277223483554	-0.38136974	9.615966	-2.6014864	0.16230011	0.0	-0.625	-44.5	25.0	2.9533665	-0.2640154	0.039639283
1277223483584	-0.6537767	9.234595	-2.4516625	-0.22981262	0.0	-1.125	-44.25	25.5	2.8340337	-0.25888118	0.07067854
1277223483614	-0.8036005	9.152874	-2.3426998	-0.32460785	0.0	-0.625	-44.5	25.25	2.819498	-0.24965225	0.08757306
1277223483654	-0.9942854	9.234595	-2.1111538	-0.2817707	0.0	-1.125	-44.25	24.25	2.7434592	-0.22350238	0.107256435
1277223483684	-0.9125633	9.343558	-2.3426998	-0.1307478	0.0	-1.5625	-44.5	24.75	2.726033	-0.2445471	0.09735886
1277223483714	-0.7218784	9.507003	-2.6014864	0.07626152	0.0	-1.375	-44.5	24.75	2.7716708	-0.26636955	0.07578581
1277223483744	-0.53119355	9.507003	-2.5606253	0.05347538	0.0	-1.125	-44.25	25.0	2.86566	-0.26270634	0.055815887
1277223483774	-0.29964766	9.466142	-2.4516625	-0.023589134	0.0	-1.125	-44.25	25.5	2.9582126	-0.25330287	0.03164411
1277223483804	-0.14982383	9.425281	-2.3699405	-0.086826324	0.0	-0.875	-44.0	25.25	3.0277178	-0.2463084	0.015894616
1277223483834	-0.3405087	9.234595	-2.2609777	-0.29320145	0.0	-0.375	-44.0	25.75	3.0054007	-0.23995736	0.03685646
1277223483864	-0.88532263	9.193735	-2.1792557	-0.31677532	0.0	-0.125	-44.0	26.0	2.864219	-0.23170789	0.09600029
1277223483894	-1.334794	9.234595	-2.1383946	-0.2341814	0.0	0.125	-44.0	26.25	2.7704227	-0.22529107	0.14354858
1277223483934	-1.2666923	9.234595	-2.1383946	-0.24343967	0.0	-0.125	-44.0	26.25	2.7738538	-0.22551295	0.13631745
1277223483964	-0.95342433	9.343558	-2.5333846	-0.07889938	0.0	-0.125	-44.0	25.75	2.8130004	-0.2634661	0.10168886
1277223483996	-0.6537767	9.343558	-2.8330324	-0.021172523	0.0	-0.375	-43.75	25.25	2.852874	-0.293719	0.069856994
1277223484034	-0.3405087	9.425281	-2.8330324	0.04108715	0.0	-0.125	-44.25	25.25	2.9924314	-0.2918073	0.036111467
1277223484064	-0.38136974	9.425281	-2.7240696	0.011796951	0.0	-0.125	-44.5	25.5	2.9847224	-0.28113267	0.040440366
1277223484094	-0.50395286	9.384419	-2.5606253	-0.066111565	0.0	0.125	-44.75	25.25	2.9631543	-0.26600945	0.053649485
1277223484124	-0.5720546	9.302697	-2.3699405	-0.18978786	0.0	-0.125	-45.0	25.5	2.9331315	-0.24900106	0.061416082
1277223484164	-0.84446156	9.275456	-2.3018389	-0.21260643	0.0	-0.125	-44.75	25.5	2.8526034	-0.24228731	0.09079229
1277223484194	-0.8036005	9.425281	-2.3426998	-0.061398506	0.0	0.375	-44.5	25.75	2.9081666	-0.2427717	0.08505442
1277223484224	-0.7627395	9.425281	-2.4925237	-0.027572632	0.0	0.375	-44.5	26.25	2.9169047	-0.25772703	0.08074889
1277223484254	-0.7218784	9.425281	-2.6014864	-0.0023269653	0.0	-0.125	-44.25	26.25	2.8895226	-0.2685573	0.076440364
1277223484284	-0.6537767	9.425281	-2.5333846	-0.024964333	0.0	-0.125	-44.0	25.75	2.9110847	-0.2619791	0.069253236
1277223484324	-0.53119355	9.302697	-2.3699405	-0.192132	0.0	-0.125	-44.25	25.5	2.9523919	-0.24906306	0.057039086
1277223484354	-0.6537767	9.193735	-2.3018389	-0.30661583	0.0	-0.875	-44.0	25.0	2.856671	-0.24473369	0.070991606
1277223484384	-0.8036005	9.275456	-2.4108016	-0.18938255	0.0	0.125	-44.5	24.75	2.8599265	-0.25337672	0.086421505
1277223484424	-0.8036005	9.384419	-2.4516625	-0.07403755	0.0	0.375	-44.5	25.0	2.8844457	-0.25464493	0.08542296
1277223484464	-0.6537767	9.425281	-2.5606253	-0.017873764	0.0	0.375	-44.5	24.75	2.924568	-0.264667	0.069253236
1277223484497	-0.50395286	9.466142	-2.4925237	-0.004890442	0.0	0.625	-44.75	25.0	3.0054064	-0.25711712	0.0531872
1277223484534	-0.46309182	9.384419	-2.3699405	-0.11653137	0.0	0.125	-44.0	25.25	2.9938605	-0.2470792	0.049306884
1277223484564	-0.27240697	9.234595	-2.1792557	-0.31449032	0.0	-0.375	-44.0	25.0	3.0246766	-0.23165108	0.029489977
1277223484594	-0.46309182	9.234595	-2.2609777	-0.2880249	0.0	-0.625	-44.0	25.5	2.946876	-0.2398243	0.050105523
1277223484624	-0.7627395	9.384419	-2.4516625	-0.07732582	0.0	-0.875	-43.75	25.0	2.819252	-0.25473288	0.08109895
1277223484664	-0.8036005	9.507003	-2.6014864	0.08256626	0.0	-0.875	-44.25	25.0	2.7900743	-0.2661956	0.08432676
1277223484694	-0.53119355	9.534244	-2.7513103	0.1308384	0.0	-0.875	-44.0	25.25	2.873987	-0.28052664	0.055656746
1277223484724	-0.23154591	9.507003	-2.9147544	0.1398325	0.0	-1.125	-44.0	25.0	2.9449039	-0.2974088	0.024350487
1277223484764	-0.29964766	9.302697	-2.7921712	-0.089336395	0.0	-1.125	-44.5	25.5	2.9256196	-0.29144835	0.032199707
1277223484794	-0.6537767	9.384419	-2.5333846	-0.064331055	0.0	-1.125	-44.5	25.75	2.8355727	-0.26306278	0.06955381
1277223484824	-0.9125633	9.425281	-2.3426998	-0.05180931	0.0	-0.875	-44.75	26.0	2.7996244	-0.24252824	0.09651996
1277223484854	-1.1441092	9.275456	-2.1792557	-0.21018028	0.0	-0.375	-44.75	26.0	2.775168	-0.22908784	0.1227281
1277223484884	-1.2258313	9.112013	-2.1792557	-0.35780907	0.0	0.125	-44.0	26.0	2.7811892	-0.23273265	0.13372627
1277223484925	-1.1849703	9.275456	-2.4108016	-0.1500349	0.0	0.375	-43.5	26.0	2.7985497	-0.25232175	0.12706502
1277223484964	-1.0351465	9.302697	-2.6423476	-0.0807209	0.0	0.125	-44.0	26.0	2.7952144	-0.27513903	0.110817924
1277223484996	-0.9942854	9.152874	-2.6832085	-0.21689987	0.0	-0.125	-43.75	26.0	2.7793524	-0.2835854	0.108206645
1277223485034	-1.0760075	9.084772	-2.6014864	-0.29567719	0.0	-0.375	-44.0	26.25	2.746673	-0.27705562	0.11789156
1277223485064	-0.95342433	9.084772	-2.4108016	-0.35921288	0.0	-1.125	-44.25	26.25	2.7571366	-0.25803435	0.10456475
1277223485094	-0.7218784	9.084772	-2.2609777	-0.41696358	0.0	-1.8125	-43.5	26.0	2.8011565	-0.24318357	0.07929366
1277223485125	-0.50395286	9.152874	-2.3018389	-0.3553257	0.0	-1.8125	-43.5	26.25	2.8668642	-0.24602099	0.055003986
1277223485165	-0.29964766	9.193735	-2.2201166	-0.34390926	0.0	-2.3125	-43.5	25.75	2.8955896	-0.2368242	0.03258106
1277223485194	-0.23154591	9.384419	-2.3018389	-0.14127922	0.0	-1.8125	-43.75	25.25	2.939607	-0.24046388	0.024668435
1277223485224	-0.10896278	9.384419	-2.3018389	-0.14343834	0.0	-1.375	-44.25	24.75	3.0026085	-0.24051867	0.011610509
1277223485264	-0.14982383	9.193735	-2.2609777	-0.3377943	0.0	-2.0625	-44.75	24.75	2.9355907	-0.24110979	0.016294854
1277223485294	-0.29964766	9.112013	-2.1792557	-0.43287182	0.0	-1.8125	-45.0	24.75	2.904699	-0.23463112	0.032873057
1277223485324	-0.38136974	9.112013	-2.2201166	-0.42032337	0.0	-2.0625	-45.25	24.5	2.8492007	-0.23878951	0.041829098
1277223485354	-0.5720546	9.152874	-2.4108016	-0.32433414	0.0	-2.3125	-44.75	25.0	2.7640786	-0.25706372	0.06241881
1277223485394	-0.7218784	9.275456	-2.5606253	-0.15719414	0.0	-1.8125	-44.25	24.75	2.735668	-0.2685822	0.07767017
1277223485434	-0.7627395	9.343558	-2.6423476	-0.066740036	0.0	-1.8125	-44.25	24.5	2.7072847	-0.2747338	0.08145204
1277223485465	-0.8036005	9.343558	-2.6832085	-0.052293777	0.0	-1.5625	-44.5	25.0	2.7169516	-0.2786708	0.0857947
1277223485504	-0.53119355	9.302697	-2.6423476	-0.121385574	0.0	-1.125	-45.0	24.5	2.8268871	-0.27632448	0.057039086
1277223485544	-0.6537767	9.302697	-2.7921712	-0.07197952	0.0	-0.875	-45.0	24.25	2.77124	-0.29091355	0.070162825
1277223485574	-0.9942854	8.921328	-2.2609777	-0.5497227	0.0	-0.625	-44.5	24.75	2.7439775	-0.24674322	0.11099235
1277223485604	-0.95342433	8.539958	-1.6889231	-1.0492325	0.0	-0.625	-44.0	24.75	2.807718	-0.19407225	0.11118234
1277223485644	-0.9125633	8.580819	-1.525479	-1.043642	0.0	-0.625	-44.0	25.5	2.8489327	-0.1749731	0.10595097
1277223485674	-1.1168685	8.853226	-1.334794	-0.7839737	0.0	-0.125	-44.5	25.75	2.8495321	-0.1484827	0.12549093
1277223485704	-1.1168685	8.812365	-0.9125633	-0.8770399	0.0	0.875	-45.25	25.25	2.9108076	-0.10237393	0.12606667
1277223485734	-1.2666923	8.894087	-0.3405087	-0.8163643	0.0	1.5625	-45.25	25.0	2.9368625	-0.037884243	0.14146823
1277223485774	-1.2666923	9.112013	-0.10896278	-0.60637	0.0	3.0625	-45.5625	23.5	3.0013905	-0.011843696	0.13812824
1277223485804	-1.0351465	9.112013	-0.42223078	-0.6263132	0.0	4.0625	-46.0625	22.1875	3.083626	-0.046009183	0.11311744
1277223485844	-0.23154591	9.302697	-0.46309182	-0.4895563	0.0	4.0625	-46.8125	20.9375	-2.9869523	-0.049723953	0.024885055
1277223485884	0.14982383	9.343558	-0.3405087	-0.45568943	0.0	4.75	-47.8125	19.125	-2.834178	-0.036422353	-0.016033614
1277223485924	-0.9942854	10.923519	0.50395286	1.1735973	0.0	4.75	-48.625	18.125	-3.125735	0.045912437	0.09077231
1277223485954	-2.8738933	12.067628	-3.718355	3.1437578	0.0	4.5	-48.875	16.0625	1.7746131	-0.29122162	0.23379405
1277223485998	-0.8036005	8.430995	-2.4925237	-0.97828007	0.0	4.75	-49.125	15.3125	-3.0526721	-0.28622323	0.095027946
1277223486034	-1.6889231	7.164303	1.9477097	-2.1926322	0.0	4.25	-49.125	15.3125	2.8858018	0.25868112	0.2315145
1277223486074	-2.7513103	8.499097	2.3699405	-0.5643034	0.0	4.0625	-48.875	15.0625	2.7461772	0.25931856	0.3130719
1277223486104	-4.0588636	9.724928	2.1111538	0.9407015	0.0	3.8125	-48.625	15.5625	2.5834715	0.19772054	0.39538768
1277223486134	-5.8158884	10.651112	-1.3756552	2.4065866	0.0	3.3125	-48.625	15.0625	2.0258896	-0.11287595	0.4997946
1277223486174	-5.366417	10.732834	-6.3607025	3.7746124	0.0	3.3125	-49.125	14.0	1.1327504	-0.48741555	0.4636476
1277223486204	-3.9771416	9.466142	-0.23154591	0.4636526	0.0	3.5625	-49.625	13.25	2.223503	-0.0225471	0.39775032
1277223486234	-0.040861044	8.580819	1.9885708	-0.9983282	0.0	4.75	-50.125	13.25	-2.957509	0.22772358	0.0047618686
1277223486274	2.2201166	8.117727	2.4108016	-1.0523148	0.0	6.5	-49.875	13.25	-2.490817	0.27898887	-0.26696175
1277223486304	-1.3756552	7.9270425	2.4516625	-1.3958788	0.0	7.4375	-48.875	13.0	3.1032822	0.29578495	0.17182824
1277223486345	-4.1814466	10.079058	0.8036005	1.1349068	0.0	7.6875	-48.875	12.75	2.5204196	0.07351099	0.39325485
1277223486384	-3.6774938	9.847511	-2.6832085	1.0421772	0.0	6.9375	-48.875	11.5	1.497173	-0.24992064	0.35740578
1277223486414	-2.9147544	9.152874	0.50395286	-0.18766594	0.0	6.5	-48.875	11.25	2.5816443	0.052415483	0.30829844
1277223486454	-2.7513103	9.043911	1.3756552	-0.2539301	0.0	6.25	-49.625	11.0	2.7017229	0.14450909	0.295321
1277223486498	-2.2201166	9.00305	0.6537767	-0.51088524	0.0	6.9375	-49.625	10.6875	2.7931814	0.070388705	0.2417724
1277223486534	-2.982856	8.853226	1.3075534	-0.37337208	0.0	7.1875	-49.375	10.6875	2.6660776	0.13905846	0.32497784
1277223486574	-2.1792557	9.084772	0.23154591	-0.4612856	0.0	7.1875	-49.625	10.1875	2.7597415	0.024779087	0.23543157
1277223486604	-2.5333846	8.771504	0.88532263	-0.6338024	0.0	7.6875	-49.375	9.9375	2.7352366	0.09666605	0.2811685
1277223486634	-2.7921712	8.580819	1.879608	-0.5892973	0.0	7.4375	-49.375	9.9375	2.7482257	0.205361	0.31459075
1277223486674	-2.8738933	8.921328	0.8036005	-0.39946556	0.0	7.9375	-49.375	10.4375	2.6631055	0.08552836	0.3116406
1277223486704	-2.5333846	9.343558	-0.3405087	-0.11974907	0.0	7.6875	-49.125	10.1875	2.5696142	-0.0351587	0.26477128
1277223486734	-2.4925237	8.853226	0.23154591	-0.6063299	0.0	7.4375	-49.375	10.1875	2.6431613	0.025169816	0.27443475
1277223486774	-2.9556155	8.894087	1.4982382	-0.31532955	0.0	7.4375	-49.375	10.4375	2.701403	0.15851653	0.32083142
1277223486814	-3.1054392	9.302697	1.3075534	0.087470055	0.0	7.1875	-49.625	10.4375	2.6562696	0.13254231	0.32218975
1277223486844	-2.3699405	9.112013	-0.14982383	-0.39029026	0.0	7.6875	-49.625	11.0	2.6819074	-0.015911683	0.25445205
1277223486884	-2.6832085	8.812365	0.14982383	-0.593626	0.0	7.9375	-49.375	11.25	2.6286936	0.016262894	0.29556388
1277223486914	-2.4108016	8.812365	0.84446156	-0.63152885	0.0	7.6875	-48.875	11.5	2.8110683	0.09216863	0.2670366
1277223486954	-2.6014864	8.662541	1.0351465	-0.70286655	0.0	7.6875	-49.125	11.75	2.7682471	0.113951534	0.29174528
1277223486984	-2.8330324	9.043911	0.9942854	-0.27737904	0.0	8.1875	-48.625	12.0	2.7656627	0.10453039	0.30357072
1277223487014	-2.7513103	9.384419	0.5720546	-0.010514259	0.0	8.4375	-49.125	12.0	2.7741632	0.05842919	0.2851869
1277223487054	-2.4108016	9.575105	-0.040861044	0.06736946	0.0	8.9375	-49.375	12.0	2.861808	-0.00413825	0.24665147
1277223487084	-2.3426998	9.152874	-0.08172209	-0.35836887	0.0	9.6875	-49.125	11.5	2.894129	-0.0086495215	0.25057298
1277223487114	-3.1054392	9.112013	0.8036005	-0.14651012	0.0	9.4375	-49.125	11.75	2.729806	0.0832835	0.32846183
1277223487144	-3.445948	8.894087	1.3075534	-0.17913532	0.0	9.4375	-48.3125	12.0	2.7034307	0.13623525	0.36963436
1277223487184	-3.336985	8.894087	1.2666923	-0.2230835	0.0	8.9375	-47.5625	12.25	2.7169206	0.13256125	0.3589385
1277223487214	-2.8330324	9.043911	1.0760075	-0.26850605	0.0	8.1875	-47.3125	13.0	2.8083456	0.11305165	0.30357075
1277223487245	-2.4516625	8.962189	0.6537767	-0.49220467	0.0	7.9375	-47.8125	12.5	2.8383882	0.07024731	0.26702347
1277223487284	-2.9556155	9.112013	0.313268	-0.22215366	0.0	7.1875	-48.3125	12.5	2.6208024	0.03269069	0.3136572
1277223487314	-3.0237172	8.921328	0.42223078	-0.37737465	0.0	7.6875	-48.875	12.25	2.6137385	0.044793688	0.32678023
1277223487354	-3.1054392	8.921328	0.61291564	-0.34042072	0.0	7.6875	-48.875	11.75	2.607096	0.06479292	0.3349737
1277223487384	-3.1463003	8.853226	0.8036005	-0.37666607	0.0	7.9375	-48.875	11.5	2.624002	0.08532107	0.34146374
1277223487414	-3.255263	8.894087	0.7627395	-0.30489826	0.0	7.9375	-48.625	11.25	2.5914984	0.080360025	0.3508597
1277223487454	-3.255263	8.894087	0.7218784	-0.3080902	0.0	7.4375	-48.625	11.0	2.5548637	0.076072074	0.35085973
1277223487484	-3.0237172	9.043911	0.53119355	-0.25587177	0.0	7.6875	-48.625	11.0	2.6056242	0.055646542	0.3226539
1277223487524	-2.8330324	8.921328	0.5720546	-0.42883587	0.0	6.9375	-49.125	11.0	2.607623	0.06103874	0.30748555
1277223487564	-2.8330324	9.043911	0.95342433	-0.28155613	0.0	6.25	-49.125	11.0	2.637905	0.10026396	0.30357072
1277223487594	-2.2609777	9.084772	1.0351465	-0.38770008	0.0	5.5	-49.375	11.0	2.7584906	0.11012286	0.24392009
1277223487624	-1.4982382	9.275456	1.0351465	-0.3541193	0.0	4.5	-50.125	11.25	2.93186	0.10973005	0.16014394
1277223487664	-0.8036005	9.384419	0.92618364	-0.34245872	0.0	4.0625	-49.875	11.5	3.1288896	0.098018765	0.085422955
1277223487694	-0.5720546	9.112013	0.6537767	-0.6533203	0.0	4.75	-49.875	11.25	-3.0328417	0.071485884	0.062697984
1277223487724	-1.7978859	9.152874	0.61291564	-0.45875454	0.0	4.5	-50.375	11.0	2.786445	0.065614305	0.19395913
1277223487754	-2.7240696	9.193735	0.61291564	-0.19826889	0.0	4.0625	-49.625	11.0	2.5147426	0.06383303	0.28805542
1277223487794	-2.6423476	9.112013	0.6946377	-0.29385376	0.0	3.8125	-49.375	11.0	2.5340104	0.07308645	0.28224364
1277223487834	-2.6832085	9.084772	0.61291564	-0.3141079	0.0	2.8125	-49.625	11.5	2.4804046	0.064613074	0.28718743
1277223487874	-2.7921712	9.302697	0.50395286	-0.08089256	0.0	2.5625	-49.625	12.0	2.4575024	0.051839527	0.2915911
1277223487904	-2.7240696	9.384419	0.3405087	-0.028928757	0.0	2.5625	-50.375	11.75	2.4307709	0.034831997	0.28251177
1277223487934	-2.4925237	9.425281	0.19068487	-0.055499077	0.0	2.0625	-50.375	11.75	2.4334025	0.01955636	0.25853255
1277223487964	-2.2201166	9.343558	-0.0	-0.20295334	0.0	1.5625	-50.375	11.0	2.3975828	-0.0	0.23328328
1277223487994	-1.9885708	9.302697	-0.14982383	-0.29260635	0.0	1.5625	-50.125	10.4375	2.394275	-0.0157483	0.21059334
1277223488034	-1.879608	9.343558	0.040861044	-0.27582264	0.0	1.5625	-49.625	10.6875	2.4932916	0.0042872634	0.19851664
1277223488074	-2.6423476	9.466142	1.0351465	0.07572651	0.0	2.0625	-49.875	11.25	2.5297084	0.10493921	0.27220798
1277223488104	-2.7921712	9.193735	1.4165162	-0.094415665	0.0	2.5625	-49.375	12.75	2.5963633	0.14637074	0.2948512
1277223488144	-2.070293	8.771504	1.0351465	-0.73488426	0.0	2.5625	-49.125	13.5	2.7069383	0.114355475	0.23178296
1277223488184	-1.1849703	8.580819	0.6537767	-1.1197615	0.0	2.8125	-48.875	13.5	2.9177995	0.0753314	0.13722731
1277223488214	-1.879608	9.888372	0.19068487	0.26058388	0.0	2.3125	-49.125	13.25	2.688343	0.01894227	0.18784171
1277223488244	-1.920469	10.147159	-0.23154591	0.5232401	0.0	2.5625	-49.625	12.25	2.5995574	-0.022417016	0.18704933
1277223488284	-0.88532263	9.043911	-0.6946377	-0.6929989	0.0	2.8125	-50.125	11.75	2.8833983	-0.07629347	0.097580664
1277223488314	-1.2258313	9.084772	-0.19068487	-0.6375656	0.0	2.5625	-50.125	11.75	2.770756	-0.020798	0.13412246
1277223488354	-2.6832085	9.466142	0.42223078	0.041482925	0.0	3.0625	-49.875	12.25	2.5022988	0.04288734	0.276208
1277223488384	-2.1383946	9.112013	0.6537767	-0.42427635	0.0	2.8125	-49.875	12.75	2.6494656	0.06973789	0.23050737
1277223488414	-1.56634	9.302697	0.7218784	-0.34542847	0.0	2.8125	-49.375	13.5	2.8362672	0.07637287	0.1668102
1277223488454	-1.1849703	9.193735	0.23154591	-0.5339737	0.0	3.0625	-49.625	13.75	2.9244268	0.02497337	0.1281822
1277223488484	-1.6889231	9.234595	-0.29964766	-0.4140997	0.0	2.8125	-49.625	13.5	2.6645167	-0.031908106	0.18089166
1277223488524	-2.1792557	9.384419	-0.10896278	-0.17190266	0.0	3.0625	-49.375	13.25	2.5689762	-0.011309597	0.22817641
1277223488564	-1.4573772	9.234595	0.27240697	-0.45379543	0.0	3.0625	-49.625	12.75	2.8209755	0.029129663	0.15652615
1277223488594	-1.3075534	9.302697	0.38136974	-0.4047718	0.0	2.5625	-49.375	13.25	2.8644178	0.040574275	0.13964158
1277223488626	-1.607201	9.302697	0.46309182	-0.35478687	0.0	2.0625	-49.125	13.5	2.7620745	0.04901439	0.17107841
1277223488664	-1.6480621	9.234595	0.50395286	-0.41261864	0.0	2.3125	-49.375	14.0	2.7738938	0.053671833	0.17660677
1277223488695	-1.4573772	9.343558	0.313268	-0.3449297	0.0	2.3125	-48.875	14.0	2.8171673	0.033115044	0.15472992
1277223488734	-1.525479	9.302697	0.14982383	-0.3785162	0.0	2.8125	-49.125	13.5	2.7938862	0.015891813	0.16253586
1277223488764	-1.4573772	9.343558	0.19068487	-0.34819412	0.0	3.3125	-49.125	13.0	2.8434565	0.020161618	0.15472992
1277223488794	-1.4573772	9.343558	0.23154591	-0.3472824	0.0	2.8125	-48.875	13.0	2.8183336	0.024480393	0.15472992
1277223488824	-1.4982382	9.275456	0.23154591	-0.4081173	0.0	2.5625	-49.625	13.25	2.7852557	0.024638882	0.16014396
1277223488864	-1.607201	9.275456	0.27240697	-0.38903904	0.0	2.3125	-49.625	13.5	2.748102	0.028929308	0.17157105
1277223488894	-1.607201	9.302697	0.313268	-0.3609419	0.0	2.0625	-49.375	13.75	2.7484522	0.0331712	0.1710784
1277223488924	-1.525479	9.343558	0.3405087	-0.33326054	0.0	1.8125	-49.875	13.5	2.7532518	0.035951447	0.16183744
1277223488954	-1.4982382	9.275456	0.313268	-0.40574837	0.0	1.5625	-49.625	13.75	2.7489605	0.033329356	0.16014396
1277223488984	-1.525479	9.343558	0.27240697	-0.33546352	0.0	1.375	-49.125	13.5	2.7268233	0.028765619	0.16183743
1277223489054	-1.4982382	9.302697	0.313268	-0.37887	0.0	2.3125	-48.875	14.0	2.8034601	0.0332343	0.15968294
1277223489094	-1.525479	9.275456	0.3405087	-0.4004221	0.0	2.5625	-48.875	14.0	2.811153	0.036208257	0.16300482
1277223489125	-1.56634	9.275456	0.313268	-0.39465523	0.0	3.0625	-49.125	14.3125	2.8284018	0.03329006	0.16729102
1277223489164	-1.525479	9.302697	0.313268	-0.37450314	0.0	3.0625	-49.375	14.0	2.8337982	0.03321891	0.16253586
1277223489194	-1.4982382	9.275456	0.42223078	-0.40148735	0.0	2.8125	-49.625	13.5	2.8255017	0.044908606	0.16014396
1277223489224	-1.4982382	9.275456	0.27240697	-0.40702152	0.0	2.8125	-49.875	13.25	2.802672	0.028984668	0.16014394
1277223489254	-1.56634	9.234595	0.10896278	-0.43952465	0.0	2.8125	-50.125	13.5	2.7624562	0.01163273	0.16801743
1277223489294	-1.7297841	9.302697	0.14982383	-0.3433113	0.0	2.5625	-49.875	13.5	2.7088003	0.015832689	0.18384473
1277223489324	-1.6480621	9.507003	0.23154591	-0.15507889	0.0	2.3125	-49.875	14.0	2.7516623	0.023992792	0.17164661
1277223489364	-1.525479	9.302697	0.14982383	-0.3785162	0.0	2.0625	-49.875	13.75	2.7480347	0.015891813	0.16253586
1277223489394	-1.525479	9.425281	0.27240697	-0.25483322	0.0	2.0625	-49.875	13.5	2.76286	0.02852273	0.1604583
1277223489424	-1.607201	9.425281	0.23154591	-0.24251842	0.0	2.3125	-49.625	13.75	2.756123	0.024212185	0.16889572
1277223489464	-1.2666923	9.193735	0.27240697	-0.52206707	0.0	2.0625	-49.625	14.0	2.844404	0.02934392	0.13691577
1277223489494	-1.2258313	9.302697	0.42223078	-0.41404057	0.0	2.5625	-49.375	14.8125	2.915697	0.044968665	0.13101676
1277223489524	-1.4982382	9.697687	0.50395286	0.019021034	0.0	2.8125	-49.375	15.0625	2.8770325	0.051311918	0.15328251
1277223489564	-1.2258313	9.724928	0.313268	2.3651123E-4	0.0	2.3125	-49.625	14.8125	2.9072635	0.03194911	0.12538913
1277223489604	-0.5720546	9.724928	-0.08172209	-0.06456852	0.0	3.3125	-49.625	14.8125	-3.1143184	-0.008388665	0.058755826
1277223489634	-0.19068487	9.956474	-0.27240697	0.15537453	0.0	3.8125	-49.125	14.5625	-2.9276068	-0.027347948	0.019149506
1277223489674	-0.0	10.228881	-0.42223078	0.43094158	0.0	3.8125	-49.375	14.5625	-2.8458612	-0.041254874	0.0
1277223489704	0.23154591	10.079058	-0.6946377	0.29896927	0.0	4.75	-49.125	14.8125	-2.665927	-0.068792015	-0.022968931
1277223489734	0.313268	9.152874	-0.7218784	-0.6200104	0.0	5.5	-48.875	14.8125	-2.5616574	-0.07866025	-0.034212835
1277223489764	-0.10896278	8.471856	-0.23154591	-1.3309298	0.0	6.25	-48.875	15.5625	-2.7651453	-0.027322128	0.012861027
1277223489804	-1.1168685	8.349273	0.8036005	-1.3447628	0.0	7.4375	-47.5625	16.0625	-3.0898092	0.09511038	0.13297893
1277223489834	-2.3018389	8.580819	1.6480621	-0.7708864	0.0	8.9375	-47.0625	17.375	3.0044074	0.18341997	0.26208374
1277223489874	-3.1054392	9.193735	0.9942854	-0.05179882	0.0	9.1875	-46.8125	18.375	2.876289	0.1021046	0.3257452
1277223489914	-0.23154591	9.425281	-4.2495484	0.53492546	0.0	9.4375	-46.5625	18.375	-1.2811584	-0.4234617	0.024561534
1277223489954	-0.88532263	9.507003	-2.9556155	0.18847656	0.0	8.6875	-46.3125	18.875	-2.3328147	-0.30019414	0.092855416
1277223489994	-3.0237172	8.894087	-0.46309182	-0.40122032	0.0	7.4375	-46.0625	19.125	2.7085001	-0.049256563	0.32771108
1277223490024	-2.7513103	8.853226	-1.56634	-0.40437698	0.0	6.75	-45.8125	19.625	2.5941515	-0.16737197	0.30130732
1277223490064	-1.8387469	8.812365	-2.5606253	-0.4474001	0.0	5.25	-45.5625	20.6875	2.6288464	-0.27712658	0.20570397
1277223490094	-1.1441092	8.62168	-1.1849703	-1.0290365	0.0	4.75	-45.8125	21.1875	3.0526545	-0.13541259	0.1319306
1277223490134	0.19068487	8.390134	-0.9942854	-1.3556557	0.0	4.25	-45.8125	21.1875	-2.8158948	-0.1179262	-0.02272336
1277223490164	1.0351465	8.539958	-1.1849703	-1.1229553	0.0	3.8125	-46.3125	20.9375	-2.5694437	-0.13688633	-0.12062367
1277223490194	0.313268	8.349273	-1.3075534	-1.3498077	0.0	3.8125	-46.8125	20.4375	-2.7365894	-0.1552376	-0.037502803
1277223490224	-0.84446156	8.281172	-1.525479	-1.3439083	0.0	3.5625	-47.0625	19.625	3.0281558	-0.181249	0.10162241
1277223490264	-0.8036005	9.275456	-0.95342433	-0.44775677	0.0	3.0625	-47.3125	18.875	3.0676908	-0.102050655	0.086421505
1277223490304	0.10896278	10.269742	-0.3405087	0.46931267	0.0	3.0625	-47.5625	18.375	-2.9322608	-0.033142496	-0.010609682
1277223490334	0.84446156	11.917805	0.50395286	2.151659	0.0	3.5625	-47.8125	17.375	-2.797694	0.042154968	-0.07073891
1277223490374	1.0351465	12.680544	-0.9942854	2.9548674	0.0	3.8125	-48.0625	15.5625	-2.5630941	-0.07799183	-0.08145205
1277223490414	-0.23154591	8.539958	-3.445948	-0.5947523	0.0	4.5	-48.875	14.5625	-0.5826062	-0.3834	0.027106598
1277223490454	-1.0351465	7.7363577	0.61291564	-1.9773192	0.0	5.0	-48.625	13.5	3.0554316	0.07836474	0.13301279
1277223490494	-2.3426998	9.575105	1.9885708	0.24945736	0.0	5.0	-48.625	14.0	2.8616052	0.19905959	0.2399519
1277223490524	-2.982856	9.343558	2.1792557	0.24067116	0.0	5.5	-48.625	15.3125	2.7814689	0.2186369	0.30901518
1277223490564	-3.9771416	9.193735	1.6889231	0.3518381	0.0	5.75	-48.0625	16.3125	2.6159546	0.16703294	0.40828404
1277223490604	-4.2086873	9.043911	0.95342433	0.21404839	0.0	5.75	-48.0625	16.5625	2.5162182	0.09528963	0.4355548
1277223490634	-2.982856	8.730643	0.46309182	-0.56890106	0.0	5.75	-48.3125	15.5625	2.6252296	0.050151397	0.32922006
1277223490674	-2.0294318	9.112013	0.53119355	-0.45627403	0.0	6.0	-48.3125	14.5625	2.879095	0.056840464	0.2191437
1277223490714	-1.8387469	9.384419	0.6537767	-0.22146702	0.0	6.0	-48.3125	13.25	2.938668	0.06826001	0.19348498
1277223490744	-1.607201	9.302697	0.27240697	-0.36220932	0.0	6.9375	-48.625	12.0	3.0344853	0.028847102	0.1710784
1277223490774	-1.4573772	9.084772	-0.040861044	-0.60563374	0.0	7.6875	-48.3125	11.25	3.1359742	-0.004440942	0.15906455
1277223490814	-1.7297841	9.275456	0.19068487	-0.3693514	0.0	8.1875	-48.3125	11.0	3.0742602	0.020206824	0.18437251
1277223490844	-2.3018389	9.343558	0.19068487	-0.18184376	0.0	9.1875	-48.625	10.4375	2.9084468	0.019813111	0.24154581
1277223490884	-2.5333846	9.084772	0.19068487	-0.37333298	0.0	9.4375	-48.625	10.6875	2.8139873	0.020215355	0.2719518
1277223490914	-2.8738933	8.921328	0.313268	-0.42861843	0.0	9.875	-48.0625	11.25	2.7485335	0.033410665	0.3116406
1277223490944	-3.0237172	8.853226	0.8036005	-0.41685486	0.0	9.875	-48.3125	11.75	2.765823	0.08568714	0.3291169
1277223490974	-3.173541	8.894087	1.3075534	-0.2732439	0.0	9.1875	-48.0625	12.25	2.7614396	0.1375886	0.34273288
1277223491009	-2.9556155	9.193735	1.1849703	-0.077077866	0.0	8.9375	-48.0625	12.75	2.8191552	0.12209369	0.3110462
1277223491046	-2.1792557	8.921328	0.88532263	-0.58043575	0.0	8.4375	-48.3125	13.25	2.9608617	0.09610517	0.23958305
1277223491084	-1.8387469	8.730643	1.0351465	-0.82463264	0.0	8.6875	-48.0625	13.0	3.0660048	0.1155032	0.20757484
1277223491114	-1.8387469	10.419566	1.1441092	0.83559227	0.0	9.4375	-48.3125	13.5	-3.093647	0.10771458	0.17467219
1277223491144	-1.2666923	9.343558	0.23154591	-0.37477875	0.0	9.6875	-48.0625	13.0	-2.923726	0.024551773	0.13474703
1277223491174	-2.4516625	8.430995	-0.23154591	-1.0233746	0.0	9.875	-47.8125	12.25	2.802378	-0.02636519	0.28298748
1277223491214	-3.568531	9.193735	0.61291564	0.07438469	0.0	9.6875	-47.8125	12.0	2.6365864	0.062069345	0.3702477
1277223491244	-2.982856	9.507003	0.5720546	0.1737194	0.0	9.6875	-48.3125	11.75	2.7969048	0.05734941	0.30402648
1277223491284	-1.7570249	8.689782	0.6537767	-0.9169445	0.0	9.4375	-48.0625	11.75	3.1236508	0.07360958	0.19950461
1277223491314	-1.4573772	9.384419	0.9942854	-0.25783443	0.0	9.4375	-48.3125	11.75	-3.0283372	0.10431565	0.15406685
1277223491344	-1.3756552	9.615966	0.3405087	-0.08681679	0.0	9.4375	-48.625	11.75	-2.9613037	0.03503953	0.14209536
1277223491384	-1.7570249	9.193735	-0.3405087	-0.44033623	0.0	9.1875	-47.8125	11.25	-3.136408	-0.036362622	0.18883412
1277223491414	-1.7978859	9.152874	0.27240697	-0.47489262	0.0	9.4375	-48.3125	11.0	3.1374526	0.029195536	0.19395915
1277223491454	-1.4573772	9.234595	0.7218784	-0.42993355	0.0	9.6875	-48.3125	10.4375	-2.9990304	0.07706252	0.15652615
1277223491494	-2.1792557	9.084772	0.61291564	-0.44407082	0.0	9.6875	-48.3125	10.1875	3.004345	0.06551125	0.23543157
1277223491524	-3.2961242	9.00305	0.7627395	-0.1889	0.0	10.125	-48.3125	9.6875	2.6582587	0.07938876	0.35095572
1277223491564	-4.3312707	9.112013	0.7218784	0.30817986	0.0	10.125	-48.3125	9.4375	2.4069588	0.07142904	0.44372272
1277223491604	-4.3312707	9.343558	-0.040861044	0.49207115	0.0	10.125	-48.625	8.9375	2.2309852	-0.0039675944	0.43407044
1277223491634	-2.9147544	9.575105	-0.53119355	0.21635342	0.0	10.375	-48.625	8.1875	2.4898272	-0.053022284	0.29549742
1277223491674	-2.1383946	9.275456	-0.9125633	-0.24424458	0.0	10.375	-49.125	7.375	2.79329	-0.09557785	0.22658436
1277223491714	-2.6423476	9.302697	-0.8036005	-0.10263252	0.0	10.375	-48.875	7.125	2.292992	-0.08290605	0.276752
1277223491744	-3.7864566	9.888372	0.27240697	0.7853918	0.0	10.625	-48.875	7.125	2.408747	0.025720915	0.3656962
1277223491774	-3.6774938	10.119919	0.95342433	1.0028706	0.0	11.125	-48.625	7.625	2.6665952	0.08831705	0.34855485
1277223491814	-1.607201	9.656827	0.61291564	0.002175331	0.0	10.875	-48.3125	8.6875	-2.9081857	0.062526874	0.16491993
1277223491844	0.23154591	9.697687	0.53119355	-0.09166622	0.0	11.875	-48.3125	8.9375	-2.2962315	0.05470504	-0.023871869
1277223491884	0.46309182	9.384419	-1.2666923	-0.32581234	0.0	12.375	-48.3125	9.9375	-1.8028138	-0.13400623	-0.04930688
1277223491924	-1.7978859	10.310603	-1.8387469	0.8198223	0.0	12.125	-48.3125	11.75	-2.2555578	-0.17390986	0.17263676
1277223491964	-1.56634	9.888372	0.5720546	0.22133923	0.0	12.5625	-47.5625	13.75	-2.8495414	0.057076782	0.15709697
1277223491994	-0.95342433	9.343558	0.7218784	-0.3868723	0.0	12.125	-47.3125	16.3125	-2.7928581	0.07670954	0.101688854
1277223492024	-0.95342433	9.425281	-0.08172209	-0.3329172	0.0	11.875	-45.8125	18.625	-2.7650812	-0.008626283	0.10081314
1277223492054	-0.7627395	9.275456	-0.7627395	-0.4686823	0.0	12.375	-45.0	20.125	-2.6542232	-0.081772625	0.08204741
1277223492094	-0.27240697	8.853226	-0.10896278	-0.9485645	0.0	12.5625	-44.5	21.1875	-2.6447496	-0.01230125	0.030759528
1277223492124	0.08172209	8.689782	0.08172209	-1.1160994	0.0	13.0625	-43.75	21.9375	-2.5990276	0.009403695	-0.009404112
1277223492154	-0.3405087	8.771504	-0.53119355	-1.0124817	0.0	12.8125	-44.0	22.6875	-2.6342263	-0.06043972	0.038800392
1277223492184	-0.19068487	8.812365	-1.2666923	-0.90167236	0.0	12.5625	-44.0	23.5	-2.5415413	-0.14272954	0.021634955
1277223492214	0.08172209	8.771504	-1.3075534	-0.93784714	0.0	12.125	-44.0	23.75	-2.5068293	-0.14797232	-0.0093165
1277223492244	-0.040861044	8.771504	-1.0760075	-0.96930027	0.0	10.875	-44.25	24.0	-2.616791	-0.122059666	0.004658351
1277223492284	-0.14982383	8.730643	-1.1441092	-1.0000868	0.0	10.125	-44.5	24.25	-2.6675093	-0.13028377	0.017159
1277223492324	-0.7627395	8.662541	-1.3756552	-1.0024567	0.0	8.9375	-44.5	23.75	-2.8458323	-0.15689287	0.087823816
1277223492354	-1.3075534	8.853226	-1.6889231	-0.6994133	0.0	7.4375	-45.25	23.1875	-3.0893848	-0.18652822	0.14663228
1277223492394	-1.2666923	9.152874	-2.1111538	-0.328434	0.0	6.25	-45.8125	22.6875	3.1340396	-0.22462158	0.13751934
1277223492424	-0.61291564	9.697687	-2.3426998	0.18880081	0.0	5.5	-46.5625	22.1875	-2.9052596	-0.23657726	0.063118294
1277223492464	-1.1168685	9.466142	-2.7921712	0.12569427	0.0	5.0	-47.3125	21.9375	3.0664432	-0.28495997	0.11744266
1277223492494	-1.4165162	10.310603	-3.0237172	1.0311508	0.0	5.25	-47.5625	22.1875	2.9831004	-0.2827498	0.13652971
1277223492524	0.313268	9.275456	-1.6889231	-0.37347984	0.0	5.5	-47.5625	21.4375	-2.6287704	-0.1800115	-0.033761032
1277223492554	-0.6537767	9.152874	0.6537767	-0.6071968	0.0	5.5	-47.5625	20.4375	-3.053642	0.07112686	0.071307465
1277223492594	-0.29964766	10.419566	2.7649305	0.97768974	0.0	5.75	-47.3125	18.875	-2.9983087	0.25927913	0.028750246
1277223492634	1.334794	9.275456	1.4165162	-0.32918835	0.0	6.25	-47.3125	17.375	-2.6483765	0.15002368	-0.1429248
1277223492674	-1.607201	9.275456	-2.1111538	-0.15915489	0.0	5.5	-48.0625	17.375	2.7301157	-0.22061445	0.17157105
1277223492714	-2.070293	9.888372	-0.7218784	0.32188034	0.0	5.25	-48.3125	16.5625	2.792296	-0.07133225	0.20638528
1277223492744	-2.0294318	9.425281	0.040861044	-0.16527176	0.0	4.5	-49.125	15.8125	2.7864463	0.004238104	0.21208002
1277223492774	-2.3699405	9.466142	0.6946377	-0.023655891	0.0	3.5625	-49.375	16.0625	2.7287	0.07106441	0.24531719
1277223492814	-1.4165162	9.575105	0.53119355	-0.11277008	0.0	4.25	-49.375	15.5625	2.977515	0.054824255	0.14687213
1277223492844	-0.8036005	9.00305	-0.0	-0.767807	0.0	3.8125	-49.625	15.3125	3.1014824	-0.0	0.08902278
1277223492884	-1.9885708	9.00305	0.38136974	-0.5787163	0.0	4.25	-49.875	15.8125	2.7870812	0.04133952	0.21738711
1277223492914	-2.6832085	9.275456	0.84446156	-0.1140337	0.0	4.25	-50.375	15.0625	2.6674905	0.08723481	0.2815936
1277223492944	-2.3426998	9.275456	0.7627395	-0.20956135	0.0	3.5625	-50.375	14.5625	2.6933072	0.079560034	0.2473958
1277223492974	-1.879608	9.152874	0.6537767	-0.43992996	0.0	4.0625	-50.375	14.8125	2.8168213	0.069854625	0.2025413
1277223493004	-1.6480621	9.234595	0.53119355	-0.4111185	0.0	3.5625	-50.625	14.8125	2.84522	0.05656699	0.17660677
1277223493044	-1.6480621	9.275456	0.38136974	-0.37820148	0.0	3.0625	-50.125	14.8125	2.81197	0.04045987	0.17584474
1277223493096	-1.6889231	9.384419	0.27240697	-0.2675724	0.0	2.8125	-50.125	14.3125	2.7710724	0.028560832	0.17806482
1277223493134	-1.7297841	9.275456	0.27240697	-0.36734676	0.0	2.3125	-49.625	14.0	2.7247965	0.028862806	0.18437251
1277223493174	-0.84446156	9.384419	0.61291564	-0.36439896	0.0	2.0625	-49.375	13.75	3.0024135	0.06495769	0.08974378
1277223493204	1.3075534	10.228881	-0.29964766	0.5098171	0.0	1.8125	-49.875	13.75	-2.5585182	-0.029049654	-0.12714006
1277223493234	0.92618364	10.95076	-3.6774938	1.782177	0.0	1.375	-49.875	14.5625	-1.2383981	-0.32291368	-0.084376305
1277223493274	1.2666923	10.760075	-5.202973	2.2122784	0.0	-0.375	-50.125	15.3125	-0.6151887	-0.44770542	-0.11718218
1277223493314	1.2258313	10.528529	-0.10896278	0.79356	0.0	-2.0625	-49.375	16.8125	-2.920696	-0.010279485	-0.115907624
1277223493344	-0.7218784	10.269742	-0.08172209	0.48875618	0.0	-4.0625	-48.3125	19.125	2.763735	-0.007937808	0.070176356
1277223493384	-1.3075534	8.853226	-0.08172209	-0.85701466	0.0	-5.25	-47.5625	20.9375	2.6071262	-0.009131459	0.14663228
1277223493424	-1.2666923	7.4639506	0.7627395	-2.1976528	0.0	-5.0	-46.5625	23.1875	2.7095742	0.100410424	0.16810636
1277223493454	0.7218784	7.8589406	0.46309182	-1.9010506	0.0	-5.0	-45.8125	24.5	3.1125624	0.05861125	-0.09159738
1277223493484	1.879608	8.240311	-0.27240697	-1.3503008	0.0	-4.75	-45.5625	25.0	-2.911837	-0.03221888	-0.22426233
1277223493514	2.4516625	8.771504	-1.2666923	-0.61130047	0.0	-4.75	-45.25	25.0	-2.7530818	-0.13819301	-0.27254787
1277223493544	3.0237172	9.425281	-2.8330324	0.48921585	0.0	-5.5	-45.5625	23.75	-2.4475992	-0.27875835	-0.31043684
1277223493584	3.336985	9.724928	-5.175732	1.7041225	0.0	-6.5	-45.8125	22.9375	-1.577136	-0.466365	-0.330548
1277223493614	2.6014864	8.894087	-4.399372	0.45137024	0.0	-7.1875	-45.8125	22.4375	-1.6621689	-0.44324315	-0.28455842
1277223493644	1.879608	8.471856	-3.173541	-0.5667019	0.0	-7.6875	-45.5625	22.6875	-2.7329075	-0.3505972	-0.21832849
1277223493684	1.3756552	8.390134	-2.0294318	-1.0656338	0.0	-7.6875	-45.5625	23.1875	3.123485	-0.2343116	-0.16251503
1277223493724	1.4573772	8.499097	-2.070293	-0.9384651	0.0	-7.1875	-45.5625	23.75	-3.091636	-0.23562597	-0.16982275
1277223493754	1.8387469	9.193735	-2.4516625	-0.11560249	0.0	-6.25	-45.25	24.25	-2.9153125	-0.25576147	-0.19739556
1277223493784	2.7240696	9.507003	-2.5333846	0.4022522	0.0	-5.25	-45.0	24.5	-2.6149924	-0.25077465	-0.27905637
1277223493814	3.759216	11.141444	-3.9499009	2.5975914	0.0	-4.25	-45.25	24.75	-2.3025854	-0.32407436	-0.32541355
1277223493844	2.0294318	12.14935	-2.982856	2.867052	0.0	-3.3125	-44.75	24.75	-2.8471377	-0.23758681	-0.16551225
1277223493914	0.7218784	5.9793324	1.7570249	-3.532843	0.0	-2.3125	-44.75	24.75	-3.057232	0.28385368	-0.12014745
1277223493954	0.23154591	9.466142	1.6480621	-0.19532585	0.0	0.125	-45.5625	24.0	-3.102219	0.17232245	-0.024455555
1277223493984	-0.42223078	11.836082	2.1111538	2.223649	0.0	3.5625	-45.5625	22.4375	-3.0773697	0.17639981	0.035658065
1277223494015	-1.2666923	9.656827	2.7921712	0.3252325	0.0	6.9375	-46.3125	20.125	-3.115076	0.2791958	0.13042603
1277223494054	-2.7513103	9.466142	3.255263	0.57479	0.0	10.875	-46.5625	17.875	3.0618558	0.31894574	0.2828546
1277223494094	-4.944186	10.337844	1.7978859	1.7928495	0.0	13.3125	-46.3125	15.0625	2.7974951	0.15562427	0.44610554
1277223494124	-4.903325	8.539958	0.53119355	0.05517769	0.0	14.5625	-46.5625	12.25	2.521974	0.053889684	0.52120477
1277223494154	-4.8216033	7.3549876	0.6537767	-0.9878559	0.0	16.0	-47.0625	9.1875	2.3684945	0.07420255	0.5802708
1277223494194	-4.903325	7.3958488	0.46309182	-0.92095184	0.0	16.5	-47.5625	5.375	2.1338513	0.052140158	0.5854483
1277223494224	-4.2904096	9.152874	0.040861044	0.30197906	0.0	17.0	-48.3125	1.8125	1.9468118	0.0040422054	0.43833655
1277223494255	-2.9556155	9.847511	-1.1168685	0.5353298	0.0	17.5	-48.0625	-2.0625	-0.37121812	-0.10820471	0.2915837
1277223494294	-2.6423476	9.275456	-1.0351465	-0.10677242	0.0	17.75	-47.5625	-4.875	-0.3755186	-0.10692109	0.27752376
1277223494334	-3.5276701	8.62168	0.23154591	-0.4883108	0.0	18.4375	-47.5625	-7.125	0.16035548	0.024850966	0.38838023
1277223494364	-3.255263	8.117727	1.1168685	-0.98952866	0.0	18.4375	-47.3125	-8.4375	0.2509162	0.12701164	0.38137394
1277223494404	-3.173541	9.534244	1.1441092	0.30681324	0.0	18.6875	-48.0625	-9.4375	-0.6232152	0.11337004	0.32132193
1277223494444	-3.636633	10.528529	1.0760075	1.3840971	0.0	19.1875	-48.0625	-10.6875	-0.40722355	0.096300304	0.33257765
1277223494474	-4.944186	10.691973	0.9942854	2.0150194	0.0	18.6875	-47.8125	-12.75	0.3543566	0.0842065	0.43313462
1277223494504	-3.718355	10.991621	-3.7864566	2.3990507	0.0	18.6875	-47.5625	-15.0625	-0.08142106	-0.3154248	0.32620487
1277223494534	-4.903325	12.026767	-7.246025	5.0658274	0.0	18.4375	-46.5625	-15.8125	0.013234154	-0.5088925	0.38712752
1277223494564	-8.308413	12.299174	-4.5219555	5.7093897	0.0	17.75	-47.0625	-16.0625	0.37424123	-0.2957292	0.59411097
1277223494604	-6.1291566	12.871228	-2.4516625	4.658678	0.0	18.1875	-47.3125	-14.3125	0.17123814	-0.17030755	0.44441926
1277223494634	-2.6832085	15.213928	3.6774938	6.0737514	0.0	18.9375	-48.3125	-10.6875	-1.704764	0.23369572	0.17457005
1277223494664	0.50395286	16.208214	4.1814466	6.9398327	0.0	20.4375	-49.375	-6.625	-1.8268123	0.25236115	-0.031082423
1277223494704	-0.29964766	12.9529505	-0.14982383	3.150632	0.0	22.125	-48.875	-3.0625	-1.3993926	-0.011563164	0.02312942
1277223494734	0.313268	10.760075	5.6252036	2.3391418	0.0	23.125	-48.625	0.25	-2.3112898	0.48153496	-0.029105704
1277223494764	-3.8681788	8.008764	4.0180025	-0.047169685	0.0	24.3125	-47.3125	3.3125	-3.0888367	0.42432144	0.44994986
1277223494794	-6.742072	6.782933	1.5390993	-0.11993027	0.0	24.8125	-46.3125	5.625	2.3038325	0.15956381	0.78237706
1277223494834	0.5720546	5.284695	2.7921712	-3.802363	0.0	25.5625	-46.0625	9.4375	-2.322169	0.483668	-0.107827574
1277223494864	4.6036777	3.405087	3.5957718	-3.0451384	0.0	26.5	-45.0	12.75	-1.828667	0.5607246	-0.9339555
1277223494904	4.630918	1.7978859	3.7864566	-3.5604472	0.0	26.75	-44.0	15.3125	-1.7024784	0.65127546	-1.2004728
1277223494944	3.486809	2.3426998	1.7978859	-5.2373533	0.0	27.0	-43.25	17.375	-1.886531	0.40440413	-0.9791966
1277223494974	1.3075534	7.8861814	-6.3607025	0.409029	0.0	26.3125	-42.75	17.0625	-1.2698212	-0.6721135	-0.16430834
1277223495004	-10.95076	17.24336	-16.548723	16.482376	0.0	24.8125	-43.5	16.3125	0.12555557	-0.68089885	0.5658087
1277223495034	-12.762266	16.821129	-6.238119	12.210159	0.0	24.3125	-44.0	15.0625	1.6191787	-0.28726918	0.64904875
1277223495064	-2.0294318	7.3141265	-0.50395286	-2.199482	0.0	24.0625	-44.0	14.8125	-2.361533	-0.06629566	0.27065873
1277223495104	-4.140586	11.727119	-1.1168685	2.6800299	0.0	24.5625	-44.0	15.0625	-2.4631453	-0.08956449	0.33941412
1277223495134	3.718355	12.14935	1.7570249	3.019885	0.0	26.3125	-43.0	14.8125	-2.042426	0.13741565	-0.29700145
1277223495164	4.4810944	2.6423476	2.8330324	-3.8831139	0.0	27.5	-41.9375	15.5625	-1.8158205	0.4986804	-1.0380102
1277223495194	5.2165933	3.5957718	1.9477097	-3.1782274	0.0	28.25	-41.6875	14.8125	-1.8470464	0.2982439	-0.9672911
1277223495234	6.1700177	9.888372	3.173541	2.2731009	0.0	28.5	-41.4375	14.0	-1.9575404	0.26583576	-0.55785614
1277223495264	0.7627395	14.369467	5.5162406	5.6041336	0.0	27.0	-42.1875	13.75	-2.3245485	0.36606807	-0.0530308
1277223495304	-1.879608	11.413852	4.903325	2.7572489	0.0	24.8125	-43.75	14.0	-2.635007	0.4009259	0.16321294
1277223495334	-3.5957718	9.112013	-0.8036005	0.022089958	0.0	22.125	-45.0	14.3125	-2.7618473	-0.08185164	0.3758588
1277223495364	-5.8567495	9.697687	-1.7297841	1.6536646	0.0	19.6875	-46.8125	12.5	2.1467957	-0.15151593	0.54330605
1277223495404	-1.607201	6.973618	-10.841797	3.1840773	0.0	18.1875	-48.0625	8.1875	-0.1804253	-0.9873693	0.22651353
1277223495434	-2.4108016	6.973618	-0.88532263	-2.375156	0.0	17.5	-48.875	1.8125	-0.12941642	-0.119414784	0.33284178
1277223495464	-3.214402	7.205164	1.4982382	-1.7759914	0.0	17.25	-49.625	-3.8125	2.5035036	0.18766437	0.4196266
1277223495494	-1.9885708	9.915613	-0.7627395	0.33512306	0.0	17.75	-49.875	-6.625	-0.62420225	-0.07527878	0.19792382
1277223495534	-1.6889231	9.765789	-3.9090397	0.8471613	0.0	18.0	-49.625	-7.125	-0.346576	-0.3756902	0.17124893
1277223495564	-8.19945	12.571581	0.46309182	5.2096767	0.0	17.25	-49.625	-7.625	1.1251128	0.030844113	0.577935
1277223495604	-8.430995	14.206022	-7.3549876	8.276176	0.0	16.5	-49.875	-7.9375	0.38101664	-0.4188814	0.53561187
1277223495634	-9.888372	13.906375	1.2666923	7.3039227	0.0	15.75	-49.375	-6.625	1.3858129	0.07409759	0.6181153
1277223495664	-7.6954966	13.824653	4.2904096	6.5869255	0.0	15.5	-49.125	-3.8125	2.314809	0.2647965	0.50793463
1277223495704	-2.7921712	17.120777	5.134871	8.284346	0.0	16.5	-47.8125	1.25	-2.6313531	0.287792	0.16166346
1277223495744	3.2961242	19.109348	4.0588636	10.005114	0.0	18.4375	-45.5625	6.375	-2.0896065	0.20633231	-0.17080681
1277223495784	6.0882955	13.525005	-2.4925237	5.233489	0.0	20.1875	-43.25	10.4375	-1.7117338	-0.1664929	-0.42297953
1277223495824	3.9090397	8.117727	4.440233	0.23793888	0.0	21.125	-41.1875	14.0	-2.1645653	0.45788532	-0.44877377
1277223495864	-3.8681788	4.630918	5.053149	-1.9362926	0.0	21.125	-40.6875	16.5625	2.907771	0.6971669	0.69589436
1277223495904	-2.6832085	1.9477097	2.5606253	-5.61738	0.0	20.6875	-39.6875	18.875	2.6728	0.6576191	0.94290614
1277223495944	2.9556155	1.3756552	2.6832085	-5.5843644	0.0	19.6875	-39.1875	20.9375	-1.9072554	0.6886393	-1.1351787
1277223495984	5.5571017	-0.42223078	3.0645783	-3.4465165	0.0	19.9375	-38.625	21.6875	-1.7840953	0.50275534	-1.646631
1277223496016	1.4165162	6.973618	-2.4925237	-2.2667203	0.0	19.4375	-37.875	21.4375	-1.9053104	-0.33691436	-0.20039856
1277223496054	-14.246883	19.041246	-14.369467	17.978676	0.0	18.6875	-38.125	21.1875	1.1587791	-0.5435297	0.6423556
1277223496094	-6.1291566	9.302697	-1.4165162	1.4233656	0.0	18.6875	-38.125	20.6875	2.8021567	-0.12647352	0.5825771
1277223496124	0.46309182	8.390134	1.4165162	-1.2851877	0.0	18.0	-38.375	20.4375	-2.490383	0.16700445	-0.05513886
1277223496164	-1.9885708	17.393185	-3.214402	7.9924965	0.0	18.6875	-38.375	20.4375	-2.3053956	-0.18158938	0.11383617
1277223496204	4.9850473	4.7126403	4.5219555	-1.5903397	0.0	19.6875	-38.375	20.125	-2.085828	0.58279926	-0.8134807
1277223496234	4.671779	3.1463003	2.4516625	-3.6637378	0.0	20.4375	-38.625	19.625	-1.9991069	0.41053978	-0.9780989
1277223496264	6.1700177	9.656827	3.718355	2.2411537	0.0	20.6875	-39.1875	19.125	-2.1453397	0.313756	-0.5685524
1277223496304	1.8387469	13.525005	4.8216033	4.6693516	0.0	20.1875	-39.9375	18.375	-2.4327457	0.33956358	-0.13512324
1277223496344	-2.3426998	11.604536	4.7943625	2.9659538	0.0	18.4375	-40.6875	18.125	-2.8479366	0.38478833	0.19920062
1277223496384	-4.7535014	9.043911	-1.4982382	0.5196667	0.0	16.0	-42.1875	15.8125	2.603043	-0.14560324	0.48391914
1277223496424	-4.944186	8.539958	-9.466142	3.867548	0.0	13.8125	-44.5	11.0	0.4143919	-0.76462024	0.5247958
1277223496464	-3.9090397	6.5922484	-0.61291564	-2.1180873	0.0	12.8125	-45.8125	6.125	1.7661711	-0.07980252	0.5352382
1277223496504	-3.9771416	6.1700177	0.88532263	-2.4126954	0.0	12.125	-47.3125	1.0	1.971459	0.12002397	0.57256377
1277223496534	-3.0237172	10.079058	-0.27240697	0.7197199	0.0	12.8125	-47.8125	-2.8125	0.34416205	-0.025881417	0.2914568
1277223496574	-2.070293	13.906375	1.1168685	4.2972775	0.0	13.3125	-47.3125	-3.8125	-1.5805479	0.07927147	0.14778821
1277223496614	-3.173541	14.1787815	-6.0474343	5.931224	0.0	13.3125	-47.3125	-5.125	-0.11216392	-0.39440605	0.22019412
1277223496644	-13.021052	14.669114	1.6480621	9.877018	0.0	13.3125	-47.5625	-5.625	1.4837254	0.08382552	0.72595036
1277223496684	-5.6252036	14.369467	-1.920469	5.743678	0.0	13.3125	-47.3125	-4.5625	0.43029594	-0.12381635	0.37313065
1277223496724	-3.173541	13.633968	2.1792557	4.3604107	0.0	13.8125	-46.8125	-1.8125	-2.6796231	0.15443873	0.22869499
1277223496754	0.50395286	16.43976	6.1291566	7.745735	0.0	14.5625	-46.3125	2.8125	-2.433149	0.35670894	-0.030644916
1277223496794	0.61291564	17.502148	0.50395286	7.713476	0.0	16.5	-45.0	7.375	-2.0173185	0.028768193	-0.035005145
1277223496834	3.718355	9.956474	0.8036005	0.85183525	0.0	17.5	-44.25	12.0	-2.00108	0.07546698	-0.35742074
1277223496864	-0.95342433	5.407278	6.891896	-0.9949589	0.0	18.6875	-43.25	15.0625	-2.9052818	0.8980782	0.17452851
1277223496904	-6.3607025	3.9090397	1.8387469	-2.1176896	0.0	19.1875	-42.5	17.0625	2.349185	0.24148124	1.0197389
1277223496944	0.313268	1.7978859	2.8330324	-6.436694	0.0	19.6875	-41.1875	19.625	-2.5782175	0.9985256	-0.17251052
1277223496984	3.718355	1.4573772	2.9147544	-4.8623705	0.0	19.9375	-39.9375	21.6875	-1.8995543	0.6304652	-1.1972563
1277223497024	3.336985	1.3756552	3.568531	-4.7309914	0.0	19.9375	-38.875	23.5	-1.8854139	0.779702	-1.1797788
1277223497054	-3.5957718	10.95076	-7.3549876	3.8661175	0.0	19.1875	-38.625	25.25	-1.3061075	-0.5679792	0.3172663
1277223497094	-14.396708	18.727978	-14.137921	17.723026	0.0	18.4375	-38.875	25.0	1.5545621	-0.53931934	0.65537924
1277223497124	-4.2086873	9.384419	-2.1383946	0.6982584	0.0	17.25	-39.6875	24.75	3.1091318	-0.20499419	0.4215859
1277223497164	1.0351465	3.636633	4.630918	-3.8281865	0.0	16.0	-40.4375	24.5	-2.5818598	0.8860824	-0.27731007
1277223497204	0.14982383	16.970953	-3.8273177	7.5911674	0.0	17.25	-40.6875	23.5	-2.2427807	-0.22180255	-0.008828022
1277223497234	9.193735	8.921328	6.851035	4.7209625	0.0	18.0	-41.1875	22.9375	-2.1521714	0.49108973	-0.80043465
1277223497264	5.829509	2.8330324	1.920469	-3.0466614	0.0	18.9375	-41.1875	21.9375	-2.0102992	0.28806087	-1.1184264
1277223497304	6.3607025	4.2495484	2.982856	-1.5960093	0.0	20.4375	-41.6875	20.6875	-2.0081205	0.37179837	-0.9818061
1277223497344	2.4925237	10.95076	7.3549876	3.6182394	0.0	19.1875	-42.75	19.875	-2.4921095	0.5798065	-0.22379914
1277223497384	-4.372132	15.213928	4.4810944	6.6450787	0.0	16.25	-44.25	18.125	-3.029778	0.27586395	0.27983612
1277223497424	-6.428804	10.800936	-5.47538	3.9035473	0.0	13.5625	-46.8125	13.5	1.0869015	-0.41082466	0.53688854
1277223497464	-4.2495484	6.8237944	-0.84446156	-1.7235851	0.0	11.125	-49.125	8.6875	1.7892776	-0.10466392	0.55698293
1277223497494	-2.070293	4.7943625	-1.0760075	-4.4746885	0.0	9.6875	-50.625	4.0625	1.0659918	-0.20319876	0.40763152
1277223497524	-1.607201	3.8273177	0.10896278	-5.6541414	0.0	9.6875	-51.6875	0.75	1.7579851	0.026243242	0.39756745
1277223497564	-1.4573772	6.932757	0.6946377	-2.688393	0.0	10.125	-51.9375	0.25	2.9991536	0.09774092	0.20719919
1277223497604	-1.7978859	13.211738	1.0351465	3.5669785	0.0	10.125	-51.6875	0.0	-2.4964244	0.077479556	0.13525169
1277223497634	-4.099725	14.982383	-0.19068487	5.7276955	0.0	10.125	-51.375	-0.5	1.2786256	-0.012275358	0.267098
1277223497674	-7.43671	15.213928	-8.430995	9.110271	0.0	10.375	-51.375	-1.25	0.5091028	-0.46193972	0.45465505
1277223497714	-9.493382	14.9006605	-3.636633	8.231617	0.0	11.125	-51.125	-0.75	1.0393826	-0.20299788	0.56726134
1277223497744	-2.5333846	16.08563	3.7864566	6.911686	0.0	11.875	-50.875	2.0625	-2.8720233	0.22846764	0.15621051
1277223497774	1.879608	19.041246	7.082581	10.595922	0.0	13.8125	-49.625	6.125	-2.4484346	0.3545214	-0.098393686
1277223497804	4.2495484	17.502148	-0.29964766	8.206501	0.0	16.5	-48.3125	10.6875	-1.9193759	-0.016635705	-0.23819226
1277223497844	6.2789803	12.53072	1.0351465	4.2473907	0.0	18.0	-46.5625	14.8125	-2.0074253	0.07372148	-0.4645168
1277223497884	-1.8387469	7.6273947	5.8976107	0.008641243	0.0	19.4375	-44.75	17.375	-2.9474468	0.6445759	0.2365578
1277223497914	-6.3198414	4.2495484	1.7297841	-1.996963	0.0	19.6875	-43.5	19.125	2.4041564	0.22334431	0.9788255
1277223497944	-0.0	2.2609777	3.1463003	-5.9322176	0.0	19.6875	-41.6875	20.9375	-2.7377539	0.94768625	0.0
1277223497974	3.9499009	1.2258313	2.6423476	-4.8988624	0.0	19.6875	-40.4375	22.9375	-1.9094602	0.568536	-1.2698761
1277223498004	5.284695	-0.19068487	3.0645783	-3.6946945	0.0	19.6875	-39.1875	24.25	-1.8351324	0.5252244	-1.6068631
1277223498034	5.407278	-0.7627395	3.6774938	-3.2230048	0.0	20.1875	-38.625	25.0	-1.7538103	0.592673	-1.7109298
1277223498074	2.2201166	4.7126403	-0.5720546	-4.5659304	0.0	19.9375	-38.625	25.25	-2.1428654	-0.109373674	-0.44026005
1277223498114	-15.935807	19.231932	-14.601013	19.124418	0.0	19.9375	-39.1875	24.75	1.5416045	-0.52901447	0.6919454
1277223498144	-8.730643	10.119919	-1.3756552	3.6294699	0.0	19.9375	-39.9375	24.0	2.6270742	-0.10256458	0.71183175
1277223498184	0.313268	2.8330324	4.9850473	-4.064272	0.0	19.6875	-39.9375	24.0	-2.6476684	1.0513929	-0.11012952
1277223498224	-0.6946377	15.050485	-4.0588636	5.797003	0.0	20.875	-39.6875	22.9375	-2.1178026	-0.26314923	0.046121113
1277223498254	7.504812	9.275456	5.2165933	3.2152214	0.0	22.125	-39.6875	21.9375	-2.1384325	0.41217425	-0.68026775
1277223498294	3.336985	1.7570249	0.313268	-6.022374	0.0	22.625	-39.4375	21.6875	-2.012346	0.08287633	-1.0861502
1277223498334	6.4424243	6.851035	2.8738933	0.027005196	0.0	22.875	-40.1875	20.6875	-2.0640974	0.29657954	-0.7546701
1277223498374	0.19068487	16.780268	7.5456724	8.593103	0.0	20.1875	-41.1875	20.9375	-2.619412	0.42255974	-0.011363148
1277223498414	-2.9556155	11.495573	4.6036777	2.924324	0.0	17.0	-41.6875	21.9375	-2.9767995	0.36999673	0.25165823
1277223498454	-4.630918	9.084772	-0.6946377	0.41396618	0.0	14.0625	-44.0	19.625	2.7168653	-0.0680168	0.47141325
1277223498494	-3.8681788	7.082581	-8.008764	1.5628738	0.0	11.125	-45.8125	15.5625	0.5254715	-0.7815864	0.49988547
1277223498524	-1.879608	5.175732	-1.7297841	-4.0348845	0.0	10.125	-47.5625	10.1875	0.9588815	-0.30437562	0.34834838
1277223498564	-3.0645783	5.6252036	0.42223078	-3.386928	0.0	10.125	-49.875	3.8125	2.0083961	0.0658184	0.49883765
1277223498604	-2.5333846	10.460427	-1.4982382	1.0599642	0.0	10.125	-50.625	0.25	0.29363275	-0.13831596	0.2376123
1277223498634	-2.6014864	12.762266	0.7627395	3.2403784	0.0	10.375	-51.125	-1.25	3.1163523	0.058494136	0.20108707
1277223498674	-5.8567495	13.824653	-2.1383946	5.358945	0.0	10.375	-51.375	-2.0625	0.8462616	-0.14147447	0.40072268
1277223498714	-12.299174	15.322891	-3.3642259	10.12771	0.0	9.875	-51.375	-2.0625	1.1883675	-0.16957673	0.67636484
1277223498744	-7.04172	15.091345	-0.3405087	6.850193	0.0	10.375	-50.625	-0.25	1.4647794	-0.020443996	0.4365778
1277223498774	-3.5276701	14.628253	3.3778462	5.6154146	0.0	11.375	-49.875	3.3125	3.0976744	0.22081697	0.23663639
1277223498804	2.3426998	17.883516	6.5922484	9.396635	0.0	12.8125	-48.3125	8.1875	-2.4635332	0.35041493	-0.13025601
1277223498844	4.903325	18.46919	0.27240697	9.304285	0.0	14.5625	-46.3125	13.0	-2.0528889	0.014254467	-0.25950047
1277223498884	4.0180025	11.413852	1.7297841	2.416791	0.0	15.0625	-44.75	17.625	-2.234094	0.14199032	-0.3384809
1277223498924	-2.9556155	7.014479	6.891896	0.46159267	0.0	15.25	-43.0	20.4375	3.0838416	0.73580694	0.39878285
1277223498964	-5.8158884	3.9090397	2.5606253	-2.3459563	0.0	15.25	-41.6875	22.9375	2.4851916	0.3503382	0.9790202
1277223498994	1.4165162	1.5390993	3.3778462	-5.8335924	0.0	14.5625	-40.1875	25.75	-2.2450328	1.0163423	-0.74394727
1277223499024	4.440233	-0.38136974	3.5276701	-4.122851	0.0	14.5625	-38.875	27.8125	-1.8497658	0.66957587	-1.6564757
1277223499065	5.8567495	-1.6480621	2.9556155	-3.0425324	0.0	14.0625	-38.125	29.3125	-2.0220463	0.45221066	-1.8450985
1277223499104	1.8387469	6.0882955	-3.1054392	-2.729074	0.0	12.5625	-38.125	29.875	-2.065233	-0.45423114	-0.29330292
1277223499134	-13.865514	19.15021	-12.340035	16.862799	0.0	11.375	-38.375	29.875	2.1668046	-0.48104182	0.6266785
1277223499174	-5.8976107	12.53072	-3.5957718	4.501751	0.0	10.125	-38.125	28.5625	2.7650979	-0.2540282	0.4398949
1277223499214	3.7864566	4.1814466	2.2609777	-3.7293344	0.0	8.6875	-38.375	28.3125	-2.3934827	0.38120106	-0.73586607
1277223499244	3.7864566	16.780268	-3.9771416	7.8492928	0.0	8.9375	-38.375	27.5625	-2.4033363	-0.22720778	-0.22193243
1277223499274	5.134871	10.460427	5.6660647	3.1506538	0.0	9.4375	-38.375	27.0625	-2.5475988	0.4525801	-0.45632938
1277223499314	3.445948	1.4982382	2.4108016	-5.342209	0.0	10.375	-38.875	27.5625	-2.157153	0.57043797	-1.160669
1277223499354	4.140586	5.6252036	4.140586	-1.6868086	0.0	11.625	-39.4375	26.8125	-2.4000525	0.53510845	-0.634531
1277223499384	-0.42223078	17.079916	7.6954966	8.931612	0.0	11.375	-40.4375	26.0	-2.890424	0.42320368	0.02471586
1277223499424	-3.7864566	15.213928	6.238119	7.0668488	0.0	10.625	-42.1875	25.0	-3.1384988	0.37868524	0.24392512
1277223499464	-4.5628166	8.076866	-1.9885708	-0.31931782	0.0	8.9375	-43.75	21.4375	2.2910874	-0.21116865	0.514229
1277223499494	-5.8976107	7.7363577	-5.8567495	1.5482855	0.0	7.6875	-46.0625	16.3125	1.2468802	-0.5419282	0.6513419
1277223499524	-2.0294318	5.47538	-8.240311	0.29290962	0.0	7.4375	-47.8125	11.0	0.28988484	-0.9542977	0.3549487
1277223499564	-3.0237172	5.47538	0.5720546	-3.525735	0.0	7.6875	-48.875	4.875	2.0643325	0.09120462	0.5045604
1277223499604	-4.2495484	8.390134	-0.61291564	-0.38175392	0.0	8.1875	-50.625	1.25	1.4474591	-0.06507748	0.46882892
1277223499634	-1.6889231	11.114203	-3.173541	1.8745031	0.0	8.6875	-50.625	-0.5	-0.06801407	-0.27513874	0.15080704
1277223499674	-5.9793324	11.985906	3.8273177	4.123989	0.0	8.4375	-50.375	-1.5	2.2466512	0.2783203	0.4627381
1277223499714	-6.428804	14.2877445	-7.164303	7.421131	0.0	7.6875	-50.125	-2.3125	0.5437824	-0.42888552	0.42281428
1277223499744	-9.656827	13.824653	0.53119355	7.0651455	0.0	7.4375	-49.625	-2.0625	1.5418386	0.03148932	0.6097335
1277223499784	-8.158588	13.375181	3.2961242	6.2034245	0.0	7.4375	-49.375	0.25	2.0360541	0.20736098	0.5477252
1277223499814	-2.7513103	17.924377	4.9850473	9.000362	0.0	8.9375	-48.625	4.5625	-3.0585344	0.26826948	0.15230672
1277223499854	5.2165933	19.422615	1.7570249	10.3809185	0.0	11.375	-47.8125	9.6875	-2.0915017	0.087145254	-0.2623911
1277223499894	6.6331096	13.143636	0.53119355	4.925473	0.0	12.5625	-46.0625	14.0	-2.0164025	0.03606464	-0.46737123
1277223499934	-1.334794	6.782933	5.938472	-0.693182	0.0	13.0625	-44.25	18.125	-3.044092	0.70971143	0.19430438
1277223499964	-5.7477865	4.2086873	3.2961242	-1.9571576	0.0	12.375	-42.5	21.1875	2.4703202	0.43335235	0.93876696
1277223499994	-0.84446156	2.0294318	3.2961242	-5.8448143	0.0	11.125	-40.9375	24.25	3.029468	0.982647	0.3943145
1277223500024	2.3699405	0.5720546	3.636633	-5.4284124	0.0	10.125	-39.9375	27.3125	-1.91605	0.98021245	-1.3339475
1277223500064	4.0588636	-0.9125633	3.8681788	-4.125985	0.0	9.4375	-38.875	29.3125	-1.8269178	0.7490423	-1.7919511
1277223500104	3.990762	-1.1441092	4.1814466	-3.914311	0.0	8.6875	-38.875	29.875	-1.7825757	0.78898877	-1.8499973
1277223500134	-4.0588636	12.340035	-9.275456	6.1553345	0.0	7.1875	-39.6875	29.3125	1.6856525	-0.6200755	0.3177718
1277223500174	-12.489859	18.428331	-6.932757	13.509933	0.0	6.9375	-39.9375	28.5625	2.3446639	-0.30189663	0.59563863
1277223500214	-0.27240697	4.630918	-2.6423476	-4.4679604	0.0	5.75	-40.1875	28.3125	-2.5056	-0.51776934	0.05875583
1277223500244	2.8738933	6.3198414	4.5219555	-1.5212574	0.0	5.25	-40.1875	28.0625	-2.6728964	0.57731307	-0.42678982
1277223500284	4.0180025	17.434046	-3.636633	8.450277	0.0	6.5	-39.4375	28.0625	-2.495271	-0.20053327	-0.22651353
1277223500324	4.3312707	4.399372	3.6774938	-2.620668	0.0	6.75	-39.9375	28.0625	-2.4056802	0.5372314	-0.777598
1277223500364	3.636633	2.5606253	3.2961242	-4.2707367	0.0	7.9375	-40.4375	27.3125	-2.2745562	0.6377727	-0.95731074
1277223500404	2.5333846	13.565866	7.3958488	5.8505955	0.0	7.9375	-41.1875	26.0	-2.7858746	0.49196586	-0.1846204
1277223500444	-3.0237172	16.126492	7.0553403	8.053484	0.0	6.75	-42.5	24.5	3.1112761	0.40610364	0.18534794
1277223500484	-3.6774938	8.19945	-1.1849703	-0.74248505	0.0	5.0	-43.75	21.9375	2.4545572	-0.13110659	0.42160997
1277223500524	-6.701211	8.471856	-0.27240697	0.9985695	0.0	4.0625	-45.8125	16.3125	2.1169357	-0.025213353	0.669227
1277223500564	-0.84446156	6.5513873	-10.038197	2.2099714	0.0	3.3125	-47.8125	10.6875	0.082735725	-0.98878616	0.12819129
1277223500604	-4.399372	6.2789803	2.6423476	-1.6972685	0.0	3.5625	-49.625	4.875	2.197798	0.33189833	0.6111626
1277223500634	-3.6774938	9.656827	0.19068487	0.5284662	0.0	4.0625	-50.375	-0.25	1.6164292	0.018451238	0.36386165
1277223500674	-2.0294318	11.223166	-2.1792557	1.804862	0.0	4.0625	-50.625	-2.8125	0.38831994	-0.18880025	0.17889217
1277223500714	-6.3198414	12.571581	1.0760075	4.305148	0.0	4.25	-50.625	-4.0625	1.5467106	0.07632286	0.46581212
1277223500744	-8.921328	14.9006605	-4.3312707	8.092503	0.0	4.0625	-50.625	-3.8125	0.99202985	-0.24440792	0.539478
1277223500774	-10.378705	14.437569	0.10896278	7.974598	0.0	4.25	-50.625	-2.8125	1.4735767	0.0061279982	0.62327707
1277223500804	-6.3198414	13.906375	1.9885708	5.597313	0.0	5.25	-50.375	0.0	1.9392184	0.12945606	0.4265537
1277223500844	-2.9556155	16.3989	5.434519	7.7202873	0.0	6.9375	-49.625	4.3125	3.041305	0.31526312	0.17831819
1277223500884	5.2165933	19.272793	2.4925237	10.314634	0.0	9.6875	-47.8125	8.6875	-2.1415567	0.124193996	-0.26433748
1277223500924	6.469665	12.340035	-0.61291564	4.139988	0.0	11.125	-46.5625	13.5	-1.9323236	-0.043961357	-0.48288438
1277223500954	0.08172209	6.3198414	6.4424243	-0.781579	0.0	11.875	-44.75	17.875	-2.86786	0.7949611	-0.012930314
1277223500994	-4.7535014	3.8273177	4.862464	-2.0035934	0.0	11.375	-43.5	21.4375	2.5438378	0.6727621	0.8929184
1277223501024	-2.4108016	1.9885708	3.1463003	-5.372061	0.0	9.6875	-42.1875	24.5	2.5765967	0.7887753	0.8810803
1277223501054	1.7570249	1.3075534	3.173541	-5.9507203	0.0	8.9375	-40.9375	26.8125	-2.2277455	0.9667229	-0.9310265
1277223501094	4.0588636	-0.42223078	3.8273177	-4.2119193	0.0	7.6875	-40.1875	28.0625	-1.8771822	0.7533598	-1.6744504
