#timestamp	accel_x	accel_y	accel_z	accel_mag	temperature	mag_x	mag_y	mag_z	azimuth	pitch	roll
1276880898058	3.173541	1.7570249	9.915613	0.75165844	0.0	-19.625	9.5625	-50.125	1.2749603	1.2200861	-1.0651567
1276880898088	2.8330324	1.8387469	9.697687	0.4623413	0.0	-18.875	9.3125	-50.375	1.2304968	1.2356619	-0.9950974
1276880898118	3.173541	1.7978859	9.697687	0.55428123	0.0	-19.125	9.0625	-50.375	1.219748	1.2110498	-1.0553557
1276880898148	3.0645783	1.7570249	9.956474	0.75792027	0.0	-19.375	8.8125	-50.625	1.2775801	1.2298543	-1.0502155
1276880898190	3.636633	1.4982382	9.534244	0.5070114	0.0	-19.375	8.0625	-50.125	1.2220532	1.1795347	-1.1800009
1276880898228	4.0588636	1.7297841	8.730643	-0.024490356	0.0	-19.625	8.0625	-49.875	1.0237545	1.1028727	-1.1679313
1276880898268	3.6774938	1.7570249	8.962189	0.03875065	0.0	-19.875	7.8125	-49.875	1.128934	1.1439887	-1.125084
1276880898298	3.6774938	1.4165162	9.534244	0.5099516	0.0	-20.625	7.8125	-49.625	1.320153	1.1788442	-1.2031262
1276880898328	3.9499009	1.607201	9.425281	0.5384321	0.0	-21.875	7.8125	-49.625	1.2773228	1.145916	-1.1843588
1276880898358	3.759216	2.152015	9.615966	0.7398977	0.0	-22.625	7.5625	-48.375	1.2767577	1.1475595	-1.0508702
1276880898388	2.9556155	1.9885708	10.038197	0.8448973	0.0	-23.625	7.8125	-48.125	1.4829568	1.2297846	-0.9785519
1276880898428	2.9147544	1.6889231	9.997335	0.7429924	0.0	-24.125	7.8125	-47.625	1.6164674	1.2457842	-1.0456322
1276880898470	4.0588636	2.152015	9.466142	0.71539307	0.0	-24.625	7.5625	-47.375	1.3390573	1.1189642	-1.0832806
1276880898512	4.0588636	2.070293	8.921328	0.21086311	0.0	-25.4375	7.5625	-47.875	1.321627	1.0986036	-1.0991275
1276880898548	3.636633	1.7978859	8.894087	-0.031054497	0.0	-25.4375	6.8125	-47.125	1.4814733	1.1428635	-1.1116532
1276880898578	3.568531	1.7978859	8.812365	-0.13067055	0.0	-26.1875	5.8125	-46.875	1.5448803	1.1450882	-1.1041
1276880898608	3.5957718	2.2201166	9.234595	0.34895134	0.0	-26.4375	5.0625	-46.625	1.4959342	1.1416241	-1.0176634
1276880898648	3.5276701	2.3426998	9.343558	0.4517498	0.0	-26.6875	4.0625	-46.625	1.5132856	1.1452668	-0.9845779
1276880898688	3.636633	2.070293	8.853226	-0.014264107	0.0	-27.1875	3.3125	-46.875	1.5614933	1.129252	-1.0532651
1276880898718	3.759216	2.2201166	8.771504	-0.008695602	0.0	-27.4375	2.8125	-46.625	1.5155324	1.1089658	-1.0373323
1276880898758	3.6774938	2.2609777	8.853226	0.042999268	0.0	-28.1875	2.8125	-46.625	1.5605437	1.1171079	-1.0195547
1276880898788	3.6774938	2.4925237	9.00305	0.23284912	0.0	-28.9375	2.5625	-46.125	1.5588592	1.1123989	-0.9751408
1276880898818	3.8681788	2.4925237	8.730643	0.06247425	0.0	-29.6875	1.8125	-45.875	1.5604517	1.0857259	-0.9983918
1276880898848	3.990762	2.2201166	8.539958	-0.12233353	0.0	-29.9375	1.5625	-45.875	1.6189741	1.079737	-1.0631185
1276880898878	3.8681788	2.1111538	8.662541	-0.08762741	0.0	-30.1875	1.5625	-45.125	1.7267699	1.100199	-1.071203
1276880898909	3.6774938	1.920469	8.62168	-0.23870754	0.0	-30.4375	1.8125	-45.125	1.8196709	1.1223015	-1.0895294
1276880898948	3.759216	2.2201166	8.499097	-0.25179386	0.0	-30.1875	2.8125	-45.125	1.6398934	1.0962616	-1.0373323
1276880898979	3.5276701	2.6423476	8.430995	-0.29307365	0.0	-30.1875	3.8125	-45.375	1.4936173	1.0890921	-0.92791325
1276880899019	3.405087	2.6014864	8.349273	-0.42194366	0.0	-29.4375	4.0625	-45.875	1.4608086	1.0966173	-0.9183953
1276880899069	3.636633	2.7240696	8.62168	-0.06093216	0.0	-28.6875	4.3125	-45.875	1.4093399	1.0857716	-0.9278947
1276880899108	3.405087	3.1463003	8.471856	-0.14920902	0.0	-28.1875	4.5625	-45.875	1.2861432	1.0700742	-0.8248787
1276880899138	3.2961242	3.0645783	8.240311	-0.41735935	0.0	-27.6875	4.0625	-46.125	1.271248	1.0708925	-0.8217847
1276880899178	2.5333846	2.5606253	7.9270425	-1.0995932	0.0	-27.1875	3.8125	-46.375	1.3802949	1.1442881	-0.7800506
1276880899208	2.3699405	3.718355	8.962189	0.18152332	0.0	-25.9375	2.8125	-47.125	1.1514926	1.1135691	-0.5674399
1276880899238	1.7978859	3.2961242	9.00305	-0.052075386	0.0	-24.125	1.8125	-48.125	1.1704719	1.1756928	-0.49934673
1276880899268	1.2258313	2.7649305	8.008764	-1.24582	0.0	-22.125	0.3125	-48.875	1.14849	1.2097073	-0.41730982
1276880899309	0.88532263	2.4108016	6.891896	-2.451789	0.0	-20.375	-0.9375	-50.375	1.074409	1.2140932	-0.35194272
1276880899348	0.313268	4.1814466	6.6331096	-1.9593086	0.0	-18.625	-2.9375	-51.125	0.6596348	1.0070672	-0.07477888
1276880899398	0.3405087	5.012288	8.539958	0.1014204	0.0	-17.125	-6.4375	-51.375	0.7063684	1.039043	-0.067830555
1276880899452	-2.1111538	5.706926	6.0201936	-1.2469358	0.0	-12.8125	-10.1875	-51.125	0.44332194	0.780053	0.35431692
1276880899499	-3.0645783	8.117727	7.273266	1.5154314	0.0	-6.3125	-14.25	-50.875	0.33074987	0.6976213	0.36097535
1276880899538	-3.9771416	6.891896	8.390134	1.7566643	0.0	0.75	-17.25	-49.625	0.333179	0.8118799	0.52339244
1276880899578	-4.944186	5.829509	6.932757	0.5128107	0.0	8.8125	-19.0	-48.375	0.24505277	0.7366548	0.70340794
1276880899608	-6.5513873	6.238119	7.7363577	2.0965443	0.0	15.375	-18.75	-46.875	0.14786413	0.70750505	0.8098874
1276880899642	-6.782933	5.9793324	8.076866	2.3175554	0.0	20.375	-17.25	-44.875	-0.03399224	0.72907084	0.8482821
1276880899678	-5.6252036	4.7535014	7.504812	0.7081442	0.0	25.6875	-14.5	-43.625	-0.5086663	0.7948212	0.869191
1276880899709	-7.3549876	3.7864566	6.701211	0.83944416	0.0	29.9375	-10.4375	-41.875	-0.3332615	0.6808484	1.0953672
1276880899748	-8.880466	3.568531	6.1700177	1.5804567	0.0	33.4375	-7.1875	-39.875	-0.36332625	0.57262766	1.1887044
1276880899795	-8.240311	2.9556155	7.4639506	1.6976509	0.0	36.5	-4.1875	-38.375	-0.94996727	0.7060018	1.2264118
1276880899859	-9.534244	2.6832085	7.3141265	2.5058575	0.0	37.75	-1.9375	-36.5625	-0.8387447	0.63607216	1.2964634
1276880899888	-8.049625	1.0351465	6.2108784	0.41308594	0.0	38.75	-0.6875	-34.5625	-0.81234473	0.6532037	1.4429026
1276880899928	-7.9679036	0.313268	6.3607025	0.39355373	0.0	39.5	0.5625	-34.5625	-0.71786267	0.67332125	1.5315003
1276880899979	-8.430995	1.1441092	4.5219555	-0.17136383	0.0	39.75	0.8125	-33.5625	-0.5020911	0.48851147	1.4359175
1276880900013	-8.689782	0.10896278	3.636633	-0.3859663	0.0	40.25	1.3125	-33.5625	-0.11721403	0.39632022	1.5582578
1276880900048	-9.043911	-0.50395286	3.336985	-0.15357971	0.0	40.0	2.3125	-34.3125	-0.0045488155	0.35297573	1.6264616
1276880900088	-9.193735	-2.4108016	3.2961242	0.25322914	0.0	39.25	3.0625	-33.8125	0.3484332	0.33381572	1.8272448
1276880900118	-10.337844	-2.3426998	2.8330324	1.1653748	0.0	38.5	4.0625	-34.3125	0.1933526	0.2611638	1.7936465
1276880900148	-10.760075	-3.1463003	3.1054392	1.8261547	0.0	38.0	4.8125	-34.5625	0.2548065	0.27023232	1.8552709
1276880900178	-10.378705	-2.4516625	3.0237172	1.2780704	0.0	37.75	5.0625	-34.8125	0.16063747	0.27628398	1.8027645
1276880900208	-10.18802	-1.9477097	2.7240696	0.9176159	0.0	38.0	5.3125	-35.3125	0.07835935	0.25682387	1.7596935
1276880900238	-9.466142	-1.8387469	1.8387469	0.010163307	0.0	39.0	5.3125	-35.3125	0.081115805	0.18841876	1.7626518
1276880900268	-9.80665	-2.070293	2.7649305	0.59052944	0.0	39.5	4.3125	-34.8125	0.1693186	0.2691694	1.7788525
1276880900321	-10.310603	-0.9125633	3.405087	1.0899515	0.0	40.0	2.8125	-34.8125	0.035279073	0.31781393	1.6590736
1276880900363	-12.762266	0.313268	3.1463003	3.3414593	0.0	40.5	-0.4375	-34.3125	-0.023550186	0.24164152	1.5462549
1276880900416	-11.454713	1.3756552	1.1168685	1.7843056	0.0	40.75	-3.9375	-33.0625	-0.032771178	0.096506625	1.4512737
1276880900448	-8.921328	1.607201	0.08172209	-0.7413397	0.0	41.5	-7.4375	-31.8125	-0.0012160052	0.009014936	1.3925555
1276880900478	-9.043911	-0.23154591	2.0294318	-0.53494453	0.0	42.5	-10.4375	-29.8125	0.52594924	0.22067101	1.5963931
1276880900526	-8.349273	-1.1168685	1.9477097	-1.1607647	0.0	43.75	-11.9375	-27.8125	0.783911	0.22722623	1.7037753
1276880900559	-5.09401	-0.23154591	1.4165162	-4.514291	0.0	44.0	-14.75	-26.0625	0.8909701	0.2709564	1.6162196
1276880900591	-6.3607025	0.84446156	1.9885708	-3.089056	0.0	43.0	-17.5	-25.3125	0.8213104	0.30052766	1.4388058
1276880900628	-5.5571017	2.0294318	3.0645783	-3.1439471	0.0	42.0	-20.75	-25.3125	1.3660051	0.4779504	1.2206484
1276880900665	-6.0882955	2.6832085	3.486809	-2.2950068	0.0	39.25	-23.5	-26.0625	1.2298983	0.48271677	1.1556898
1276880900698	-7.9679036	3.759216	3.9090397	-0.16819668	0.0	37.0	-25.5	-27.3125	0.8059758	0.41759917	1.1299664
1276880900738	-9.043911	3.759216	3.6774938	0.6550894	0.0	35.75	-26.75	-28.0625	0.7818209	0.35919252	1.176861
1276880900768	-8.390134	4.7535014	2.2609777	0.098002434	0.0	33.9375	-27.5	-28.3125	0.38562515	0.23030484	1.0553292
1276880900808	-7.43671	4.671779	1.2258313	-0.9391346	0.0	33.4375	-28.5	-28.5625	0.27750325	0.13868253	1.0098956
1276880900848	-7.6546354	4.7943625	1.4573772	-0.65769863	0.0	32.6875	-29.25	-28.5625	0.3357989	0.15997593	1.0112379
1276880900888	-7.082581	4.099725	1.9477097	-1.3944998	0.0	31.6875	-30.25	-28.8125	0.51591724	0.23365556	1.0460763
1276880900928	-7.6954966	4.671779	1.6480621	-0.6544752	0.0	30.4375	-31.5	-29.0625	0.48822576	0.18106094	1.0251875
1276880900968	-7.7363577	5.012288	1.7297841	-0.4276085	0.0	28.9375	-33.0	-29.5625	0.5123236	0.1854927	0.9959077
1276880901008	-7.205164	6.4424243	1.7570249	0.01711464	0.0	27.4375	-33.75	-30.0625	0.304068	0.1798221	0.84122837
1276880901048	-5.7477865	1.1168685	-0.08172209	-3.950788	0.0	25.9375	-34.5	-30.5625	0.7505762	-0.013956056	1.3788751
1276880901088	-3.336985	8.308413	7.9270425	2.151744	0.0	24.375	-35.0	-31.3125	-1.9760276	0.7246657	0.3819188
1276880901128	-7.9679036	8.921328	1.2258313	2.2175016	0.0	22.875	-36.25	-31.0625	0.26043576	0.102124855	0.7290064
1276880901168	-6.3607025	4.7943625	1.56634	-1.6889	0.0	21.375	-37.25	-30.8125	0.6412401	0.19417028	0.92490125
1276880901208	-8.349273	3.173541	3.9499009	-0.040205956	0.0	20.625	-38.3125	-30.0625	1.1085753	0.416362	1.2075638
1276880901248	-7.504812	4.2904096	4.7126403	0.039099693	0.0	20.875	-39.0625	-29.0625	1.2600639	0.49911323	1.0514548
1276880901288	-5.47538	10.800936	5.053149	3.3148708	0.0	21.625	-37.8125	-29.8125	-0.2008915	0.39532045	0.46918073
1276880901328	-5.9793324	9.997335	2.1111538	2.0321035	0.0	22.375	-36.25	-31.0625	-0.025930366	0.1792846	0.5390159
1276880901358	-6.2789803	5.284695	1.2666923	-1.5025482	0.0	23.125	-34.75	-32.8125	0.4182097	0.15313597	0.8711707
1276880901398	-5.434519	4.7943625	0.88532263	-2.505712	0.0	22.375	-33.0	-34.3125	0.3263882	0.121560656	0.8478999
1276880901438	-5.706926	6.973618	0.50395286	-0.7814455	0.0	22.375	-33.5	-32.3125	0.12919053	0.05586744	0.6858359
1276880901478	-7.504812	7.246025	-3.636633	1.2410727	0.0	21.875	-36.25	-26.0625	0.27840826	-0.3354296	0.80294025
1276880901518	-9.152874	9.302697	-4.0180025	3.8483715	0.0	19.625	-39.5625	-18.0625	0.4349407	-0.29867166	0.7772803
1276880901558	-5.053149	8.921328	-4.2086873	1.276556	0.0	18.125	-44.0625	-10.5	0.21168093	-0.3895104	0.5153564
1276880901598	-2.3426998	8.539958	-3.336985	-0.34332085	0.0	14.8125	-46.8125	-6.0	-0.08274944	-0.36037242	0.26773593
1276880901638	-2.6832085	9.724928	-1.8387469	0.44785213	0.0	12.0625	-48.3125	-6.25	0.080869615	-0.18028623	0.2692124
1276880901678	-3.1463003	10.378705	-1.56634	1.1510029	0.0	10.8125	-48.8125	-8.0	0.24827261	-0.14343618	0.29434383
1276880901718	-3.445948	9.997335	-1.1168685	0.826725	0.0	9.8125	-48.8125	-9.75	0.41916797	-0.105228335	0.33193347
1276880901758	-3.9771416	9.343558	-0.0	0.3481388	0.0	9.3125	-49.0625	-11.75	0.73618376	-0.0	0.40242615
1276880901798	-3.759216	9.193735	0.95342433	0.17160034	0.0	8.8125	-48.5625	-13.8125	0.84149075	0.09569624	0.38814563
1276880901838	-3.445948	8.580819	1.7978859	-0.38659668	0.0	8.0625	-48.5625	-16.5625	0.98235834	0.19203542	0.38187397
1276880901878	-3.9499009	8.62168	2.3699405	-0.03159523	0.0	7.3125	-48.3125	-19.0625	1.0854689	0.24488813	0.42959908
1276880901918	-4.4810944	8.19945	1.7978859	-0.29121113	0.0	7.3125	-47.3125	-21.5625	0.90934944	0.19008675	0.50016105
1276880901958	-4.399372	7.3141265	1.6480621	-1.1137199	0.0	7.5625	-46.8125	-23.3125	0.88148034	0.19074099	0.5415142
1276880901998	-4.2904096	7.1234417	1.607201	-1.3370495	0.0	7.8125	-45.8125	-24.5625	0.81704265	0.19091885	0.5421049
1276880902038	-5.47538	6.973618	0.5720546	-0.9219227	0.0	8.3125	-45.3125	-26.0625	0.74218196	0.06443086	0.6656241
1276880902078	-4.4810944	6.973618	0.8036005	-1.4785452	0.0	8.3125	-45.8125	-26.3125	0.6786835	0.09664297	0.57114
1276880902118	-4.372132	7.7363577	1.56634	-0.78333664	0.0	8.3125	-45.8125	-27.3125	0.67130196	0.17447193	0.51439327
1276880902158	-4.862464	8.349273	2.4925237	0.17165565	0.0	8.3125	-45.8125	-28.3125	0.7665854	0.2524678	0.5273642
1276880902198	-3.568531	8.689782	3.0645783	0.07456303	0.0	8.5625	-45.0625	-29.3125	0.5835494	0.31534228	0.38966066
1276880902238	-3.9090397	8.62168	3.214402	0.19066715	0.0	8.3125	-44.3125	-31.0625	0.6104732	0.32734108	0.4256749
1276880902278	-4.2904096	8.308413	3.214402	0.08120632	0.0	8.3125	-43.5625	-31.8125	0.6592694	0.33110246	0.47667617
1276880902318	-3.9499009	8.308413	3.3778462	-0.006585121	0.0	8.0625	-42.8125	-32.5625	0.60516524	0.3518935	0.44378266
1276880902358	-3.5957718	7.5456724	3.405087	-0.78105545	0.0	7.3125	-42.0625	-33.0625	0.65037906	0.38684675	0.44469944
1276880902398	-3.9771416	7.082581	3.255263	-1.0558014	0.0	6.8125	-41.5625	-33.0625	0.73415464	0.38115624	0.5116587
1276880902438	-4.2086873	7.5865335	3.445948	-0.4716034	0.0	6.3125	-41.0625	-33.3125	0.7153039	0.37808448	0.50648856
1276880902478	-3.718355	7.4639506	3.636633	-0.70929813	0.0	5.5625	-41.0625	-33.5625	0.72390807	0.41124004	0.4621867
1276880902518	-3.9499009	7.273266	4.0588636	-0.5883808	0.0	5.5625	-41.5625	-33.5625	0.8594124	0.45593998	0.497508
1276880902558	-3.7864566	7.273266	4.399372	-0.5011616	0.0	6.0625	-41.5625	-34.0625	0.8868226	0.4924336	0.47999084
1276880902598	-4.3312707	7.5456724	4.944186	0.20044994	0.0	6.0625	-41.3125	-34.8125	0.94456536	0.5167623	0.5210879
1276880902638	-5.175732	7.6954966	5.6252036	1.0400906	0.0	6.5625	-41.0625	-35.0625	1.0334784	0.5452218	0.5920759
1276880902678	-4.944186	7.164303	5.829509	0.66977024	0.0	6.5625	-40.3125	-36.3125	1.0673912	0.5900961	0.60406023
1276880902708	-4.4810944	6.8237944	5.829509	0.22467804	0.0	5.8125	-40.0625	-37.0625	1.0941114	0.62011695	0.5810615
1276880902748	-4.399372	6.3607025	5.706926	-0.19509315	0.0	5.3125	-39.8125	-37.875	1.102741	0.6357195	0.6050991
1276880902788	-4.5900574	5.8976107	5.8567495	-0.3118124	0.0	4.25	-39.0625	-39.375	1.1052967	0.66471535	0.6613629
1276880902828	-4.140586	5.938472	5.829509	-0.51186275	0.0	3.0	-38.5625	-40.375	1.0776236	0.6779278	0.6088764
1276880902868	-3.759216	6.1700177	5.407278	-0.7822676	0.0	2.25	-38.0625	-40.375	0.9741296	0.64248323	0.5472089
1276880902908	-4.5900574	6.5513873	5.243834	-0.24176121	0.0	1.5	-38.5625	-40.375	0.91799486	0.5802557	0.6111444
1276880902948	-4.5628166	6.5922484	5.284695	-0.2043047	0.0	1.25	-39.0625	-39.875	0.94808394	0.5827889	0.6054372
1276880902988	-3.9771416	6.782933	5.175732	-0.39314747	0.0	1.25	-39.3125	-39.125	0.9416658	0.58214873	0.5303188
1276880903028	-3.9771416	6.891896	5.175732	-0.31433296	0.0	1.0	-39.3125	-39.375	0.92453116	0.5766931	0.5233924
1276880903058	-3.718355	6.6331096	5.6660647	-0.3235817	0.0	1.0	-38.5625	-39.125	1.0225505	0.6403707	0.5109259
1276880903088	-3.718355	6.3198414	6.0201936	-0.31932735	0.0	1.5	-38.0625	-39.375	1.1014638	0.6874279	0.5318183
1276880903118	-3.9090397	6.0474343	6.3198414	-0.22581291	0.0	1.75	-37.5	-39.375	1.1615137	0.7203311	0.57383776
1276880903158	-4.372132	6.2789803	5.9793324	-0.09616375	0.0	2.75	-37.0	-39.625	1.0216407	0.66335064	0.6082468
1276880903198	-4.5900574	6.2108784	5.6660647	-0.22813606	0.0	3.5	-36.25	-40.375	0.92625993	0.63296634	0.63644654
1276880903238	-4.4810944	4.2904096	6.0201936	-1.1619673	0.0	4.5	-35.5	-41.375	1.1408242	0.7703747	0.8071339
1276880903278	-4.440233	3.405087	6.742072	-1.0450392	0.0	5.5625	-34.5	-42.875	1.2553291	0.87806004	0.9165848
1276880903318	-4.7943625	1.8387469	6.6331096	-1.4182625	0.0	5.8125	-33.25	-43.875	1.1445737	0.91203165	1.2045747
1276880903358	-3.5957718	1.0351465	7.6273947	-1.3108721	0.0	5.8125	-32.5	-45.375	1.3420211	1.1147177	1.2904967
1276880903405	-2.5333846	8.580819	7.504812	1.8711367	0.0	4.5	-30.5	-46.125	0.26819408	0.6979613	0.28708234
1276880903490	-7.6954966	8.921328	8.430995	4.681014	0.0	4.5	-29.5	-46.375	0.6036423	0.6211159	0.71176106
1276880903746	-3.8273177	6.932757	6.2108784	0.25746822	0.0	4.5	-29.75	-46.125	0.5050956	0.66509116	0.5044256
1276880903788	-3.2961242	7.6954966	6.0201936	0.50488853	0.0	3.25	-32.0	-43.375	0.507258	0.62343913	0.40467814
1276880903829	-2.3426998	10.841797	5.5162406	2.581316	0.0	3.0	-35.75	-39.625	0.23097946	0.4614984	0.2128086
1276880903868	-1.2258313	11.032481	3.336985	1.7844572	0.0	1.5	-39.5625	-35.0625	0.1288668	0.29202473	0.11065722
1276880903913	-0.19068487	9.084772	6.4424243	1.3322134	0.0	-0.5	-43.0625	-30.0625	1.8288919	0.61673355	0.020986425
1276880903958	-6.6331096	8.008764	7.4639506	2.993701	0.0	-0.5	-44.5625	-26.0625	1.5240755	0.62254566	0.6917197
1276880904000	-1.4982382	5.366417	5.434519	-2.023518	0.0	1.0	-46.0625	-23.3125	2.4735715	0.77294046	0.27225542
1276880904038	-3.214402	4.7943625	5.09401	-2.108129	0.0	4.0	-47.3125	-21.0625	2.040399	0.7230662	0.59062034
1276880904078	-4.5628166	7.273266	4.9850473	0.121611595	0.0	9.0625	-47.3125	-19.8125	1.8710619	0.5260332	0.56028086
1276880904118	-5.202973	6.5922484	4.903325	-0.081873894	0.0	15.375	-47.0625	-19.8125	1.9250321	0.52846634	0.66815543
1276880904160	-5.09401	5.6252036	6.4424243	0.14808178	0.0	20.875	-45.0625	-20.3125	2.3703902	0.703869	0.73588336
1276880904208	-5.012288	6.1700177	5.7886477	0.026995659	0.0	25.6875	-41.0625	-22.5625	2.6070864	0.6293969	0.68223345
1276880904249	-2.2201166	8.430995	7.205164	1.5037422	0.0	28.1875	-37.8125	-26.3125	-1.9770565	0.6906512	0.25748277
1276880904288	-16.970953	11.141444	13.824653	14.754826	0.0	26.6875	-35.5	-30.0625	1.4828508	0.59784096	0.9898647
1276880904330	-15.894946	13.756551	12.912089	14.863453	0.0	25.6875	-32.0	-35.0625	0.7010721	0.55082476	0.8573911
1276880904378	-4.2086873	14.859799	7.205164	7.2356815	0.0	25.9375	-26.0	-38.875	-0.6897139	0.43651122	0.27599803
1276880904418	3.8273177	12.53072	0.7627395	3.3177195	0.0	26.9375	-13.75	-40.375	-0.63996017	0.05814904	-0.29643536
1276880904458	11.372991	15.050485	-0.7218784	9.071463	0.0	25.1875	3.3125	-42.125	-0.41201115	-0.038248233	-0.64711124
1276880904498	16.88923	10.419566	12.871228	13.846722	0.0	17.125	15.875	-43.125	0.09262982	0.575388	-1.0180172
1276880904538	18.850561	2.2609777	15.091345	14.446274	0.0	4.75	22.875	-43.875	0.51671654	0.6716117	-1.4514244
1276880904568	13.293459	0.84446156	6.891896	5.1909294	0.0	-7.8125	24.875	-44.875	0.60015774	0.47747034	-1.507357
1276880904608	3.759216	1.7978859	7.668256	-1.0793228	0.0	-14.3125	23.375	-45.375	0.95766675	1.0730249	-1.1246908
1276880904650	1.920469	-0.3405087	9.847511	0.2321558	0.0	-16.125	23.375	-45.375	2.0603013	1.3752646	-1.7462776
1276880904688	5.325556	-0.9125633	10.119919	1.6653624	0.0	-15.375	23.875	-45.875	1.3508017	1.0803863	-1.7405037
1276880904729	4.140586	-1.2666923	10.228881	1.3009586	0.0	-13.3125	23.375	-46.875	1.5571003	1.1703563	-1.8676764
1276880904768	2.4516625	-1.7570249	10.079058	0.71405315	0.0	-12.0625	22.125	-48.125	2.1980536	1.2800189	-2.1926205
1276880904808	2.5606253	-1.56634	9.466142	0.12401295	0.0	-11.3125	21.375	-48.125	1.975662	1.2637271	-2.119776
1276880904848	3.1463003	-1.9477097	9.425281	0.31899548	0.0	-9.3125	20.875	-48.375	1.5645417	1.1966845	-2.1251037
1276880904888	1.6480621	-0.9942854	10.228881	0.60174656	0.0	-8.3125	20.625	-49.125	2.1308606	1.3848016	-2.113643
1276880904930	2.3699405	-1.2666923	9.915613	0.46664143	0.0	-7.3125	20.375	-49.625	1.7422063	1.3061447	-2.0616481
1276880904968	2.1792557	-0.9942854	10.119919	0.5928936	0.0	-5.5625	19.875	-50.625	1.6525265	1.3383762	-1.9988356
1276880905008	2.8330324	-0.95342433	9.765789	0.4063673	0.0	-4.75	19.375	-50.875	1.3000594	1.2737663	-1.8954287
1276880905048	1.6889231	-0.5720546	10.337844	0.683856	0.0	-3.75	18.875	-50.875	1.6199043	1.3999873	-1.8973777
1276880905078	0.5720546	-0.27240697	10.691973	0.90407944	0.0	-2.75	18.125	-51.375	2.0146112	1.5116059	-2.0152156
1276880905118	0.95342433	-0.42223078	9.956474	0.20427799	0.0	-2.25	17.625	-51.625	1.8136551	1.4664469	-1.9876944
1276880905158	1.7297841	-0.23154591	9.765789	0.11385441	0.0	-1.25	17.125	-51.875	1.2454627	1.3939563	-1.7038636
1276880905198	1.6480621	0.0	10.691973	1.0115938	0.0	-0.75	16.125	-52.625	1.1469399	1.4178593	-1.5707964
1276880905228	1.4573772	0.3405087	10.269742	0.57157135	0.0	-0.5	15.125	-52.375	0.95615214	1.426084	-1.341269
1276880905258	1.4573772	0.19068487	9.847511	0.14994526	0.0	-0.0	14.375	-52.875	0.97565824	1.4226339	-1.4406943
1276880905288	1.0760075	0.50395286	10.528529	0.78871155	0.0	-0.0	13.875	-53.625	0.81420153	1.4584187	-1.1327841
1276880905328	0.9942854	0.6537767	11.372991	1.6284246	0.0	0.5	13.375	-53.875	0.6854698	1.4665449	-0.98914284
1276880905368	0.6946377	0.50395286	10.841797	1.0690584	0.0	1.5	13.125	-54.125	0.6371195	1.4918061	-0.9431669
1276880905408	0.5720546	0.27240697	9.765789	-0.020328522	0.0	2.25	12.3125	-53.875	0.7544453	1.5060072	-1.1263771
1276880905448	1.3075534	0.27240697	9.466142	-0.24674702	0.0	2.5	12.625	-53.625	0.760094	1.4306262	-1.3654009
1276880905478	1.7978859	0.3405087	9.193735	-0.43258476	0.0	2.75	12.875	-53.125	0.66845906	1.3743318	-1.3836194
1276880905518	1.607201	0.61291564	9.193735	-0.45338726	0.0	2.75	13.125	-53.125	0.58889925	1.3858395	-1.206465
1276880905558	1.3075534	0.9942854	9.915613	0.24410534	0.0	2.75	13.375	-53.375	0.44425994	1.4066244	-0.9206618
1276880905589	0.84446156	1.3075534	10.528529	0.83631706	0.0	2.75	12.875	-53.625	0.2294256	1.4240187	-0.5734405
1276880905628	-0.27240697	1.9477097	10.841797	1.2120762	0.0	3.25	12.3125	-54.375	-0.22759865	1.3913511	0.13895878
1276880905668	1.3075534	0.9942854	11.836082	2.1428747	0.0	3.0	12.0625	-55.125	0.42561376	1.4328943	-0.9206618
1276880905698	1.2666923	0.61291564	8.580819	-1.1112127	0.0	3.25	11.0625	-55.125	0.47617784	1.4082509	-1.1201351
1276880905738	0.6946377	-0.19068487	11.917805	2.132904	0.0	4.0	10.3125	-55.875	1.1828691	1.5104266	-1.8387067
1276880905778	0.42223078	0.7627395	10.337844	0.5678892	0.0	4.25	9.5625	-56.125	0.060372364	1.4866637	-0.5055811
1276880905818	0.8036005	1.4165162	10.419566	0.7394228	0.0	5.5625	9.3125	-55.375	-0.012615373	1.41575	-0.51603407
1276880905858	0.50395286	0.5720546	9.80665	0.0295887	0.0	6.3125	9.3125	-55.625	0.091670446	1.4932123	-0.7221913
1276880905888	0.6946377	0.50395286	9.343558	-0.42376328	0.0	6.5625	9.3125	-55.125	0.22939615	1.4792054	-0.9431669
1276880905918	0.88532263	0.10896278	8.853226	-0.9086008	0.0	7.0625	8.8125	-54.875	0.52706605	1.4703805	-1.4483353
1276880905958	1.920469	0.10896278	9.275456	-0.33383846	0.0	6.3125	7.5625	-55.125	0.38433343	1.3663136	-1.5141195
1276880905998	2.070293	0.5720546	8.812365	-0.73630714	0.0	5.0625	5.8125	-55.125	0.21697238	1.3317238	-1.3012073
1276880906038	0.53119355	-0.10896278	5.7477865	-4.033342	0.0	4.0	3.0625	-55.125	0.4222753	1.4767336	-1.773118
1276880906068	0.84446156	-0.53119355	4.7126403	-4.98957	0.0	2.5	-1.4375	-55.125	0.008031779	1.3621825	-2.13229
1276880906098	4.2904096	3.5957718	7.668256	-0.31247616	0.0	1.75	-7.9375	-54.375	-0.24339207	0.94020694	-0.8732543
1276880906138	1.2258313	5.09401	6.238119	-1.6601334	0.0	-0.375	-13.875	-50.1875	-0.13094193	0.8721921	-0.23615168
1276880906190	3.445948	3.568531	7.668256	-0.67368126	0.0	-2.875	-19.875	-48.9375	-0.73825526	0.99658984	-0.7679242
1276880906228	8.62168	4.0588636	6.2789803	1.6053324	0.0	-7.0625	-20.75	-45.9375	-0.4841197	0.582615	-1.1308016
1276880906268	4.140586	3.718355	2.8738933	-3.5432744	0.0	-15.1875	-17.1875	-42.0	-0.097971894	0.47669026	-0.83907276
1276880906308	10.923519	1.3756552	2.4925237	1.4817677	0.0	-24.9375	-11.625	-38.25	-0.26096126	0.22263837	-1.4455206
1276880906349	13.565866	1.1168685	-0.29964766	3.8084116	0.0	-36.0625	-4.125	-29.9375	-0.037475117	-0.022010319	-1.4886522
1276880906388	13.143636	0.8036005	1.2258313	3.4184618	0.0	-45.625	2.875	-17.4375	0.4058528	0.09282291	-1.5097325
1276880906428	13.0619135	-1.879608	-3.5957718	3.870926	0.0	-50.375	8.875	-6.875	0.080006115	-0.26602194	-1.7137151
1276880906470	15.322891	-0.9942854	-3.0645783	5.8512945	0.0	-51.125	14.9375	-0.125	0.844644	-0.19699195	-1.6355944
1276880906508	14.750836	0.88532263	-4.2495484	5.569618	0.0	-48.875	20.9375	0.625	1.0864842	-0.28001553	-1.5108497
1276880906550	12.14935	2.982856	-4.7126403	3.5617123	0.0	-46.125	25.4375	-2.375	1.1523818	-0.36026463	-1.3300426
1276880906588	10.038197	2.6423476	-3.173541	1.0477848	0.0	-43.3125	28.1875	-6.375	1.1695035	-0.2967071	-1.3134059
1276880906628	7.8180795	-2.6832085	-3.486809	-0.8355961	0.0	-41.0625	29.9375	-9.875	0.4918611	-0.39919123	-1.9014055
1276880906669	5.8567495	-6.3198414	-5.134871	0.22374439	0.0	-40.5625	30.1875	-10.625	-0.26091895	-0.5374313	-2.3942075
1276880906710	7.4639506	-0.3405087	-5.366417	-0.6074686	0.0	-41.0625	29.4375	-11.125	0.684375	-0.62285703	-1.6163851
1276880906748	12.067628	-1.1168685	-2.5606253	2.5801105	0.0	-42.3125	28.9375	-10.375	0.9089132	-0.20822416	-1.6630843
1276880906788	11.727119	-1.879608	-2.0294318	2.2422857	0.0	-44.0625	27.9375	-8.375	0.9008554	-0.16923918	-1.7297233
1276880906828	13.021052	-1.4573772	2.4925237	3.5306816	0.0	-45.625	26.6875	-7.125	1.665117	0.18798853	-1.6822572
1276880906858	8.117727	-4.7535014	-0.040861044	-0.3994751	0.0	-46.625	25.6875	-5.875	-0.22435747	-0.0043436177	-2.1005383
1276880906898	10.760075	-5.366417	-1.607201	2.3243322	0.0	-46.6875	24.4375	-6.8125	0.0749834	-0.13287796	-2.0334308
1276880906941	10.882658	-5.175732	0.5720546	2.2576647	0.0	-46.1875	23.9375	-8.3125	0.29594114	0.04743487	-2.0147295
1276880906978	7.273266	-4.1814466	-2.3018389	-1.1070328	0.0	-44.625	24.9375	-11.0	-0.025776507	-0.26777962	-2.0925603
1276880907018	7.668256	-5.012288	1.1849703	-0.5692625	0.0	-42.1875	27.375	-12.4375	-0.028516045	0.12863426	-2.149727
1276880907048	6.469665	-3.568531	1.607201	-2.245296	0.0	-40.4375	30.625	-11.6875	1.4681796	0.2141886	-2.074851
1276880907078	9.384419	-6.5922484	-2.8330324	2.006527	0.0	-39.4375	33.875	-10.6875	0.21811436	-0.24218011	-2.1831763
1276880907118	11.032481	-6.510526	-4.2904096	3.7029839	0.0	-37.9375	36.5	-9.0	0.4556477	-0.3231778	-2.1039221
1276880907158	4.4810944	-3.8273177	-4.4810944	-2.4033551	0.0	-35.375	39.3125	-7.4375	0.1817044	-0.65012234	-2.2776678
1276880907198	2.3699405	-4.440233	-5.366417	-2.4492917	0.0	-31.6875	42.25	-7.5625	-0.18428597	-0.8174365	-2.651317
1276880907238	2.0294318	-0.38136974	-0.84446156	-7.575697	0.0	-26.6875	45.25	-9.5625	1.0641985	-0.38819733	-1.7565495
1276880907280	0.53119355	0.46309182	3.336985	-6.396065	0.0	-21.8125	46.125	-14.75	1.2444712	1.362672	-0.8537845
1276880907320	-6.4015636	-11.304889	13.33432	8.810133	0.0	-16.8125	44.9375	-20.9375	-1.7710309	0.79841745	2.6263478
1276880907358	-0.7627395	-19.041246	10.882658	12.138351	0.0	-15.8125	43.6875	-26.1875	-1.4907936	0.51887786	3.1015568
1276880907398	10.18802	-5.366417	0.19068487	1.7098827	0.0	-17.0625	41.6875	-28.1875	0.80873543	0.016558245	-2.0556047
1276880907428	5.938472	-2.6423476	-5.053149	-1.5736818	0.0	-18.3125	40.9375	-28.4375	0.60921484	-0.66082704	-1.9894462
1276880907470	5.5571017	-6.932757	-3.445948	-0.27674675	0.0	-19.8125	40.9375	-28.1875	0.23532814	-0.3699761	-2.4658942
1276880907508	5.706926	-10.800936	2.3699405	2.6370564	0.0	-18.5625	40.4375	-28.4375	0.12672478	0.19162352	-2.655505
1276880907538	3.718355	-8.689782	3.486809	0.26788807	0.0	-17.3125	40.6875	-28.9375	0.0075803804	0.35341218	-2.7372684
1276880907568	3.7864566	-9.575105	1.0760075	0.5460148	0.0	-17.0625	40.9375	-29.6875	-0.032600153	0.104123354	-2.7650166
1276880907608	4.5628166	-9.888372	-0.29964766	1.0877981	0.0	-18.3125	40.6875	-29.1875	0.013797666	-0.027508087	-2.7092721
1276880907638	4.5628166	-8.580819	0.53119355	-0.073617935	0.0	-19.0625	40.6875	-28.6875	0.0865046	0.0546035	-2.6528718
1276880907668	4.372132	-8.267551	1.3756552	-0.3535881	0.0	-19.0625	41.1875	-28.1875	0.11239869	0.14604343	-2.6551478
1276880907698	4.140586	-8.267551	1.4165162	-0.45232677	0.0	-19.3125	40.9375	-27.4375	0.05244628	0.15201382	-2.6772864
1276880907738	4.3312707	-8.471856	1.1168685	-0.22648048	0.0	-19.3125	41.4375	-27.1875	0.076769374	0.11684699	-2.6689823
1276880907768	4.7943625	-8.730643	0.92618364	0.19674206	0.0	-20.3125	41.9375	-26.4375	0.10776351	0.09271975	-2.6394083
1276880907798	5.829509	-9.575105	0.19068487	1.4050474	0.0	-21.3125	41.4375	-26.4375	0.12968807	0.01700849	-2.5947134
1276880907828	5.706926	-9.765789	-0.3405087	1.5095148	0.0	-21.8125	41.6875	-25.9375	0.080317564	-0.030095011	-2.6127381
1276880907868	5.5571017	-9.466142	-0.27240697	1.1734877	0.0	-22.3125	41.6875	-25.4375	0.06991422	-0.024811612	-2.6107495
1276880907908	5.175732	-8.730643	0.19068487	0.34463978	0.0	-22.3125	41.9375	-24.4375	0.092872635	0.018785404	-2.6064665
1276880907938	5.325556	-7.9679036	-0.29964766	-0.21817684	0.0	-22.3125	42.6875	-23.4375	0.20455159	-0.03125591	-2.5524075
1276880907968	5.8976107	-7.273266	-0.53119355	-0.42771816	0.0	-22.3125	42.9375	-22.1875	0.37276053	-0.056667216	-2.460264
1276880907998	6.5513873	-7.164303	-0.38136974	-0.091026306	0.0	-22.0625	43.6875	-21.1875	0.52063406	-0.03926333	-2.400852
1276880908028	6.891896	-7.246025	-0.42223078	0.20241451	0.0	-21.8125	44.1875	-20.4375	0.5790459	-0.042197358	-2.3812375
1276880908058	6.701211	-7.504812	-0.23154591	0.25724792	0.0	-22.0625	44.9375	-19.9375	0.5695494	-0.023009608	-2.4127018
1276880908088	5.8976107	-8.117727	0.040861044	0.2273407	0.0	-21.5625	44.9375	-19.9375	0.4264787	0.0040722736	-2.5132954
1276880908118	5.325556	-8.499097	-0.29964766	0.22759056	0.0	-21.3125	44.6875	-19.4375	0.2648558	-0.029866956	-2.5818417
1276880908158	5.134871	-8.499097	-0.5720546	0.13964558	0.0	-21.5625	44.4375	-19.9375	0.19642162	-0.057546094	-2.598115
1276880908198	4.9850473	-8.430995	-0.23154591	-0.00940609	0.0	-20.8125	43.1875	-19.4375	0.19522053	-0.02363598	-2.6076124
1276880908228	5.366417	-8.076866	-0.29964766	-0.10489845	0.0	-21.0625	43.4375	-18.6875	0.31173882	-0.030890847	-2.5551484
1276880908258	5.7477865	-7.6546354	-0.38136974	-0.22667503	0.0	-21.3125	43.9375	-19.1875	0.41706312	-0.03981958	-2.4975224
1276880908298	5.938472	-7.6273947	-0.38136974	-0.13255882	0.0	-21.0625	43.9375	-18.6875	0.46745294	-0.03943198	-2.480055
1276880908338	5.407278	-7.6546354	0.14982383	-0.43357468	0.0	-21.5625	44.4375	-18.9375	0.41629785	0.01598517	-2.5265806
1276880908368	4.2904096	-8.349273	-0.27240697	-0.41558075	0.0	-21.0625	44.1875	-19.6875	0.06919329	-0.029011093	-2.6669137
1276880908408	4.440233	-8.921328	-0.84446156	0.19429302	0.0	-20.8125	43.6875	-19.9375	0.03479152	-0.084538855	-2.6797788
1276880908458	5.325556	-8.076866	1.1441092	-0.06466389	0.0	-20.8125	43.1875	-21.1875	0.39235723	0.11771272	-2.5586662
1276880908498	6.5513873	-7.9270425	0.7218784	0.5025587	0.0	-20.8125	43.4375	-22.1875	0.5525414	0.07008002	-2.4509242
1276880908530	7.7363577	-8.267551	-0.38136974	1.5224752	0.0	-20.8125	42.9375	-22.9375	0.5241987	-0.03366913	-2.3893738
1276880908568	7.5456724	-8.390134	0.313268	1.4818239	0.0	-20.5625	42.1875	-23.6875	0.52272683	0.027754704	-2.4091365
1276880908598	5.366417	-7.6954966	1.2258313	-0.34505558	0.0	-20.0625	41.6875	-24.4375	0.38347176	0.12992385	-2.5326507
1276880908641	5.6252036	-7.273266	1.2666923	-0.5250654	0.0	-19.5625	40.9375	-23.9375	0.49660805	0.13690095	-2.4832778
1276880908901	6.701211	-6.932757	1.920469	0.024806976	0.0	-19.8125	40.4375	-23.9375	0.7423199	0.1966033	-2.3731759
1276880908938	7.6273947	-6.66035	1.920469	0.49993134	0.0	-20.8125	38.9375	-24.6875	0.75678396	0.18742971	-2.288614
1276880908968	7.8861814	-6.66035	1.920469	0.6928892	0.0	-22.0625	37.6875	-25.1875	0.7014664	0.18394542	-2.2721236
1276880909008	6.932757	-6.973618	1.5390993	0.14640427	0.0	-23.3125	36.375	-27.4375	0.41689554	0.15525888	-2.3591328
1276880909048	6.469665	-7.5865335	1.4982382	0.2758484	0.0	-24.0625	35.125	-28.6875	0.20032606	0.1491503	-2.4354854
1276880909078	6.238119	-7.5456724	1.2666923	0.06532097	0.0	-24.5625	35.125	-28.6875	0.14907567	0.12866671	-2.450773
1276880909108	6.469665	-7.43671	1.0760075	0.10894394	0.0	-25.375	35.375	-27.6875	0.17666414	0.10873081	-2.4256225
1276880909148	6.891896	-7.273266	1.0351465	0.26658916	0.0	-25.625	35.375	-26.6875	0.2537701	0.10294375	-2.383111
1276880909178	7.43671	-7.1234417	1.2666923	0.5689268	0.0	-26.875	35.875	-25.6875	0.34917405	0.12238935	-2.3346825
1276880909208	7.3958488	-7.04172	2.070293	0.6130667	0.0	-27.375	36.375	-24.6875	0.45476568	0.20002103	-2.3316712
1276880909248	6.891896	-6.932757	2.7649305	0.3523941	0.0	-27.875	36.375	-24.6875	0.47643265	0.27564165	-2.3591502
1276880909288	6.2789803	-7.1234417	2.2609777	-0.045449257	0.0	-28.875	36.125	-24.6875	0.16564086	0.23375195	-2.4191194
1276880909318	6.2108784	-8.158588	1.5390993	0.56187916	0.0	-29.125	36.125	-24.6875	-0.073592745	0.14899011	-2.4909184
1276880909358	6.1700177	-8.267551	1.0351465	0.5612354	0.0	-29.125	35.375	-25.4375	-0.10490337	0.10000825	-2.500468
1276880909408	6.66035	-7.6954966	0.61291564	0.3892603	0.0	-28.625	34.625	-26.4375	0.04282304	0.06015014	-2.4281762
1276880909448	6.5922484	-7.43671	1.4573772	0.23756886	0.0	-28.375	34.125	-27.1875	0.068458386	0.14561011	-2.416316
1276880909488	6.782933	-7.164303	1.4982382	0.17233467	0.0	-28.375	33.375	-27.4375	0.11336719	0.1507092	-2.3835313
1276880909528	7.082581	-7.04172	1.4165162	0.28073215	0.0	-28.875	33.375	-26.9375	0.16011968	0.1408902	-2.3533015
1276880909568	6.891896	-6.932757	1.6480621	0.10684872	0.0	-29.375	33.875	-25.9375	0.16656803	0.1670197	-2.3591502
1276880909608	6.701211	-7.1234417	1.607201	0.10459328	0.0	-29.375	34.375	-25.1875	0.12247203	0.16287859	-2.3867269
1276880909648	6.5922484	-7.246025	1.4573772	0.09721565	0.0	-29.375	34.625	-25.1875	0.08602149	0.14768866	-2.4034035
1276880909678	6.4424243	-7.4639506	1.4982382	0.1663189	0.0	-29.125	34.875	-24.9375	0.041456595	0.15080081	-2.4295201
1276880909708	6.238119	-7.6954966	1.4165162	0.20041275	0.0	-28.875	34.625	-25.4375	-0.03334563	0.14202866	-2.4604099
1276880909738	6.4015636	-7.7363577	1.2258313	0.3093729	0.0	-29.375	34.625	-25.6875	-0.027889004	0.12147573	-2.4503279
1276880909778	6.701211	-7.4639506	1.0351465	0.2774124	0.0	-29.375	34.125	-26.1875	0.04382244	0.10283287	-2.4099886
1276880909808	6.973618	-7.246025	1.1849703	0.31957245	0.0	-29.625	33.875	-27.1875	0.09832829	0.1172887	-2.3753493
1276880909838	7.0553403	-7.205164	1.3075534	0.3620224	0.0	-29.875	33.375	-27.4375	0.093172014	0.12894346	-2.3667004
1276880909878	7.1234417	-7.164303	1.4573772	0.40092564	0.0	-29.375	32.875	-27.1875	0.113409795	0.14326364	-2.3590543
1276880909918	6.782933	-7.1234417	1.607201	0.16002941	0.0	-29.875	32.875	-26.4375	0.054596882	0.16196461	-2.3806753
1276880909958	6.5513873	-7.1234417	1.607201	0.003914833	0.0	-30.125	32.875	-25.9375	0.0044263797	0.16456527	-2.3980029
1276880909998	6.4015636	-7.3958488	1.607201	0.10605335	0.0	-30.375	33.375	-25.6875	-0.062262274	0.16285439	-2.4281332
1276880910028	6.4424243	-7.5456724	1.4165162	0.2157507	0.0	-30.625	33.625	-25.6875	-0.076534115	0.14180984	-2.434902
1276880910068	6.5922484	-7.43671	1.2666923	0.21167755	0.0	-30.125	34.125	-26.1875	0.004625641	0.12677683	-2.416316
1276880910108	6.742072	-7.3958488	1.2258313	0.2758484	0.0	-29.125	33.875	-26.4375	0.062256042	0.12188165	-2.4024043
1276880910138	6.851035	-7.246025	1.1849703	0.23554611	0.0	-29.375	33.625	-26.4375	0.08348614	0.118274674	-2.3842065
1276880910168	6.891896	-7.04172	1.1168685	0.10957146	0.0	-29.375	33.625	-26.4375	0.08348614	0.118274674	-2.3842065
1276880910198	7.014479	-7.04172	1.0760075	0.19067574	0.0	-29.375	33.375	-26.6875	0.12539114	0.10783842	-2.3581326
1276880910228	6.8237944	-7.082581	1.2258313	0.104444504	0.0	-29.625	32.875	-26.6875	0.07010246	0.12400026	-2.3748016
1276880910268	6.932757	-7.1234417	1.2258313	0.20879841	0.0	-28.875	32.875	-26.6875	0.10538141	0.12270171	-2.3697596
1276880910308	7.0553403	-7.014479	1.3756552	0.23691368	0.0	-28.875	32.625	-26.6875	0.13481396	0.13740075	-2.3532903
1276880910348	7.205164	-6.973618	1.7570249	0.37337303	0.0	-29.125	32.625	-26.4375	0.17050861	0.17346399	-2.3398654
1276880910388	6.742072	-7.04172	1.7297841	0.09453678	0.0	-29.375	33.125	-25.9375	0.094638444	0.17560588	-2.3779302
1276880910428	6.469665	-7.3141265	1.4982382	0.07250595	0.0	-29.625	32.875	-25.6875	-0.0218756	0.15224394	-2.417383
1276880910459	6.6331096	-7.5456724	1.0760075	0.29746342	0.0	-29.375	32.875	-25.6875	-0.01714243	0.10669433	-2.420467
1276880910498	6.851035	-7.3958488	0.84446156	0.3100872	0.0	-29.375	32.875	-25.9375	0.03566906	0.08356897	-2.3944168
1276880910538	6.932757	-7.164303	1.2258313	0.23790169	0.0	-29.625	32.875	-25.9375	0.07710846	0.122344404	-2.3726182
1276880910578	6.782933	-7.164303	1.4982382	0.17233467	0.0	-29.875	33.375	-26.6875	0.063562036	0.1507092	-2.3835313
1276880910628	6.4015636	-7.43671	1.5390993	0.12579632	0.0	-29.875	33.125	-26.6875	-0.052961987	0.15558363	-2.4308586
1276880910658	6.238119	-7.7363577	1.3756552	0.2261858	0.0	-29.875	33.375	-26.4375	-0.114531696	0.1375486	-2.462999
1276880910688	6.2789803	-7.6546354	1.334794	0.18338108	0.0	-29.875	33.375	-26.4375	-0.114531696	0.1375486	-2.462999
1276880910718	6.4424243	-7.4639506	1.334794	0.1430769	0.0	-29.875	33.625	-25.9375	-0.032777313	0.13455954	-2.4295201
1276880910758	6.701211	-7.3549876	1.4573772	0.2494936	0.0	-30.125	33.625	-25.9375	0.01975624	0.14543623	-2.4026725
1276880910798	6.782933	-7.246025	1.607201	0.24800777	0.0	-30.125	33.625	-26.1875	0.05287611	0.16053507	-2.389192
1276880910828	6.891896	-7.1234417	1.4982382	0.21763897	0.0	-30.125	33.625	-26.4375	0.08894464	0.15002292	-2.3727138
1276880910868	6.932757	-6.973618	1.334794	0.116864204	0.0	-30.375	33.625	-26.4375	0.10725459	0.13491713	-2.3591328
1276880910908	7.0553403	-6.932757	1.2258313	0.16047573	0.0	-30.375	34.125	-26.6875	0.14511292	0.12329961	-2.3474314
1276880910948	7.0553403	-6.973618	1.1168685	0.17616367	0.0	-30.125	34.375	-26.1875	0.15507546	0.11211385	-2.3503692
1276880910988	6.973618	-7.04172	1.1168685	0.16654205	0.0	-29.875	34.625	-26.1875	0.14889395	0.11222246	-2.3610535
1276880911028	7.0553403	-7.082581	1.1849703	0.26037216	0.0	-29.625	34.375	-26.1875	0.15691489	0.117981635	-2.3581214
1276880911068	7.082581	-7.014479	1.2258313	0.23668289	0.0	-29.625	34.625	-25.9375	0.18378633	0.12235932	-2.3513637
1276880911108	6.932757	-7.04172	1.4165162	0.1761074	0.0	-29.875	34.625	-25.6875	0.15714543	0.14237681	-2.3639915
1276880911148	6.782933	-7.164303	1.3756552	0.1546669	0.0	-30.125	34.625	-25.6875	0.10062415	0.1385425	-2.3835313
1276880911178	6.66035	-7.3141265	1.334794	0.17525291	0.0	-30.375	34.625	-25.9375	0.0436633	0.13412316	-2.402944
1276880911208	6.701211	-7.3549876	1.4573772	0.2494936	0.0	-30.375	34.125	-25.4375	0.028552918	0.14543623	-2.4026725
1276880911248	6.851035	-7.1234417	1.4982382	0.18959045	0.0	-29.875	33.625	-25.6875	0.0948881	0.15044706	-2.3756852
1276880911288	7.014479	-6.932757	1.4982382	0.16885757	0.0	-29.625	33.375	-25.4375	0.15648426	0.15076214	-2.3503351
1276880911318	7.014479	-6.851035	1.4573772	0.10614681	0.0	-29.875	32.875	-24.9375	0.14468843	0.14755462	-2.3444073
1276880911358	6.973618	-7.082581	1.3756552	0.2276268	0.0	-30.125	32.875	-25.1875	0.08467613	0.13752873	-2.3639462
1276880911398	6.701211	-7.43671	1.0760075	0.2615509	0.0	-30.875	32.625	-25.1875	-0.054134693	0.10707637	-2.4081707
1276880911438	6.469665	-7.7772183	0.92618364	0.35206604	0.0	-31.375	32.125	-25.4375	-0.16669771	0.09129811	-2.4477162
1276880911478	6.1700177	-7.5865335	1.3075534	0.059165	0.0	-31.125	32.125	-25.4375	-0.1982047	0.13292484	-2.4588032
1276880911518	6.5513873	-7.246025	1.4573772	0.070064545	0.0	-31.375	32.125	-25.1875	-0.09419767	0.14809766	-2.4064975
1276880911558	7.014479	-7.04172	1.4982382	0.24489021	0.0	-31.125	32.625	-25.1875	0.05346597	0.14961313	-2.3581324
1276880911598	7.205164	-7.014479	1.4573772	0.35412025	0.0	-31.125	33.125	-24.9375	0.11091567	0.14392817	-2.3427854
1276880911638	7.1234417	-7.014479	1.3075534	0.2758112	0.0	-31.125	33.625	-24.9375	0.11237419	0.13005224	-2.3484876
1276880911668	7.0553403	-6.891896	1.2258313	0.1320982	0.0	-30.875	33.625	-25.4375	0.1256695	0.12365347	-2.3444762
1276880911708	6.891896	-7.04172	1.4982382	0.15973186	0.0	-30.875	33.625	-25.1875	0.08041733	0.15090124	-2.3669467
1276880911748	6.5922484	-7.3549876	1.4165162	0.17133045	0.0	-30.875	33.875	-24.6875	-0.021299947	0.14244545	-2.4108276
1276880911788	6.5922484	-7.6954966	0.9942854	0.3750496	0.0	-30.875	33.625	-24.4375	-0.07899233	0.09781005	-2.433258
1276880911818	6.782933	-7.5456724	0.88532263	0.37810135	0.0	-30.875	33.375	-24.4375	-0.03184909	0.08703613	-2.4093761
1276880911858	7.0553403	-7.205164	0.92618364	0.3200493	0.0	-31.125	33.625	-24.6875	0.063003756	0.091587566	-2.3667004
1276880911908	7.082581	-6.782933	1.3756552	0.09605408	0.0	-30.875	33.125	-25.1875	0.13676155	0.13936785	-2.3345869
1276880911948	7.082581	-6.742072	1.4573772	0.07982731	0.0	-30.375	33.125	-24.6875	0.16960253	0.14795034	-2.331569
1276880911988	7.0553403	-6.891896	1.3756552	0.15168667	0.0	-30.375	33.875	-24.1875	0.16843288	0.13858423	-2.3444762
1276880912028	6.66035	-6.851035	1.6480621	-0.11061764	0.0	-30.625	33.625	-23.9375	0.09303116	0.1708021	-2.3703065
1276880912068	6.701211	-6.973618	1.607201	-0.00253582	0.0	-30.625	33.875	-23.9375	0.08591332	0.16467454	-2.3761122
1276880912108	6.932757	-7.43671	1.2258313	0.43397617	0.0	-31.375	34.125	-25.4375	0.01623807	0.11999049	-2.3912513
1276880912148	6.8237944	-7.164303	1.1168685	0.15019703	0.0	-30.625	33.625	-25.9375	0.04906186	0.112407476	-2.3805325
1276880912188	7.246025	-6.5513873	1.4982382	0.07617664	0.0	-29.875	33.125	-26.4375	0.22959366	0.15218695	-2.3058915
1276880912218	7.5865335	-6.932757	1.3075534	0.5532875	0.0	-29.875	33.125	-26.4375	0.22959366	0.15218695	-2.3058915
1276880912248	7.082581	-6.851035	1.334794	0.13725853	0.0	-28.875	32.625	-26.1875	0.16614161	0.13463874	-2.3395782
1276880912288	7.164303	-6.973618	1.3756552	0.28547573	0.0	-28.875	32.375	-26.4375	0.1496085	0.13673542	-2.3427079
1276880912318	6.973618	-7.273266	1.4982382	0.3804226	0.0	-28.625	32.875	-26.9375	0.10289624	0.14760792	-2.377224
1276880912358	6.851035	-7.205164	1.56634	0.25836372	0.0	-28.375	33.125	-27.4375	0.11085848	0.15625733	-2.381383
1276880912398	6.851035	-7.04172	1.7978859	0.1810875	0.0	-28.375	33.875	-27.1875	0.17286883	0.18099593	-2.369919
1276880912438	6.5922484	-7.3958488	1.607201	0.23025227	0.0	-28.375	34.125	-26.9375	0.07806813	0.16082151	-2.4135802
1276880912478	6.701211	-7.164303	1.334794	0.093608856	0.0	-28.375	34.375	-26.6875	0.13413982	0.135236	-2.389581
1276880912508	6.742072	-7.082581	1.3756552	0.06811142	0.0	-27.875	34.125	-26.6875	0.16295187	0.13976482	-2.38082
1276880912538	6.6331096	-7.3549876	1.3756552	0.19267082	0.0	-28.125	34.125	-26.6875	0.096400574	0.13801257	-2.4077554
1276880912578	6.6331096	-7.4639506	1.4982382	0.29054832	0.0	-28.125	34.375	-27.1875	0.08899776	0.14893153	-2.4150636
1276880912618	6.701211	-7.205164	1.920469	0.21875858	0.0	-28.625	34.125	-27.1875	0.12485745	0.1927515	-2.3924177
1276880912658	6.701211	-7.273266	1.607201	0.21281719	0.0	-29.125	34.375	-27.4375	0.094009556	0.16110381	-2.3971074
1276880912688	6.742072	-7.082581	1.56634	0.0964756	0.0	-28.875	33.875	-27.9375	0.11823788	0.15883322	-2.38082
1276880912718	6.891896	-7.04172	1.3075534	0.13285351	0.0	-28.875	33.875	-28.1875	0.13750395	0.1319336	-2.3669467
1276880912748	7.205164	-7.3141265	1.2258313	0.53324795	0.0	-28.125	34.125	-28.1875	0.17017664	0.118833	-2.363699
1276880912788	6.891896	-7.04172	1.2666923	0.12756062	0.0	-28.125	34.125	-27.9375	0.16898753	0.12785615	-2.3669467
1276880912818	7.164303	-6.891896	1.2666923	0.21482563	0.0	-27.875	34.125	-27.6875	0.23569271	0.12673678	-2.336817
1276880912858	7.504812	-6.932757	1.2666923	0.48848534	0.0	-27.875	34.375	-27.1875	0.2854031	0.123350516	-2.3165925
1276880912898	6.742072	-6.932757	1.920469	0.052703857	0.0	-28.375	33.875	-27.1875	0.17916605	0.19603978	-2.370138
1276880912938	6.510526	-7.273266	1.8387469	0.12654305	0.0	-28.625	34.125	-26.9375	0.0783634	0.18618518	-2.411474
1276880912978	6.1291566	-7.6273947	1.9477097	0.170187	0.0	-29.125	34.375	-25.9375	-0.07023286	0.196485	-2.4646778
1276880913018	5.938472	-7.8589406	2.070293	0.2588606	0.0	-29.375	33.875	-25.4375	-0.18977048	0.20716041	-2.4944963
1276880913058	6.3607025	-7.7363577	1.607201	0.33696175	0.0	-29.375	33.625	-25.4375	-0.07388171	0.1591152	-2.453471
1276880913098	6.973618	-7.205164	1.334794	0.30905056	0.0	-28.875	33.125	-25.6875	0.11583374	0.13233866	-2.3725235
1276880913138	7.0553403	-6.932757	1.2666923	0.16558361	0.0	-28.625	32.375	-26.4375	0.14499357	0.127366	-2.3474314
1276880913168	6.851035	-7.246025	1.3075534	0.25074768	0.0	-28.625	32.625	-26.9375	0.07646499	0.13037817	-2.3842065
1276880913198	6.5513873	-7.3958488	1.5390993	0.19275379	0.0	-28.625	32.875	-26.9375	0.018660225	0.15453345	-2.4166675
1276880913230	6.510526	-7.3958488	1.56634	0.17027092	0.0	-28.875	32.875	-27.1875	0.0024300732	0.15764852	-2.4197717
1276880913268	6.66035	-7.3141265	1.5390993	0.20462036	0.0	-29.125	33.875	-27.4375	0.06280659	0.15434879	-2.402944
1276880913308	6.891896	-7.014479	1.5390993	0.14673996	0.0	-28.875	33.375	-27.6875	0.1351651	0.1552536	-2.365009
1276880913338	7.0553403	-6.973618	1.7297841	0.2631731	0.0	-28.625	33.375	-27.4375	0.18323737	0.17263523	-2.3503692
1276880913378	6.932757	-7.014479	1.607201	0.18580341	0.0	-28.625	33.375	-27.4375	0.18323737	0.17263523	-2.3503692
1276880913418	6.8237944	-7.273266	1.2666923	0.24666119	0.0	-28.875	33.125	-27.4375	0.07394904	0.1263333	-2.3880677
1276880913448	6.782933	-7.246025	1.2666923	0.19922638	0.0	-28.625	33.375	-27.4375	0.0879959	0.12693542	-2.389192
1276880913488	6.8237944	-7.1234417	1.334794	0.1477089	0.0	-28.375	33.375	-27.6875	0.1197947	0.13449652	-2.3776755
1276880913528	6.701211	-7.3141265	1.4573772	0.21964645	0.0	-28.125	33.375	-27.4375	0.08671307	0.14587227	-2.3998983
1276880913558	6.5922484	-7.3141265	1.4982382	0.15321445	0.0	-27.625	33.125	-27.4375	0.08010123	0.15100074	-2.408058
1276880913588	6.701211	-7.205164	1.4982382	0.14650726	0.0	-27.625	33.375	-26.9375	0.123676255	0.15110329	-2.3924177
1276880913618	6.932757	-7.04172	1.4982382	0.1880312	0.0	-27.625	33.625	-26.6875	0.19386655	0.15047072	-2.3639917
1276880913648	7.014479	-6.932757	1.7297841	0.20625114	0.0	-27.625	33.875	-26.4375	0.24706745	0.17362659	-2.3503351
1276880913678	6.973618	-6.973618	1.7570249	0.21082592	0.0	-27.625	33.875	-26.4375	0.24706745	0.17362659	-2.3503351
1276880913708	6.8237944	-7.246025	1.4165162	0.24698448	0.0	-27.875	34.125	-26.9375	0.15036976	0.14136632	-2.3861952
1276880913748	6.8237944	-7.3958488	1.2258313	0.33067703	0.0	-27.875	33.875	-26.9375	0.11532698	0.12121918	-2.3964026
1276880913778	6.782933	-7.246025	1.4573772	0.22515011	0.0	-27.625	33.625	-26.9375	0.13733311	0.14579165	-2.389192
1276880913818	6.8237944	-7.1234417	1.5390993	0.1771574	0.0	-27.125	33.625	-26.6875	0.1840056	0.1547768	-2.3776755
1276880913848	6.891896	-7.082581	1.6480621	0.21219635	0.0	-27.125	33.125	-26.1875	0.1921875	0.16524723	-2.369839
1276880913889	6.973618	-7.04172	1.56634	0.22682285	0.0	-27.625	33.375	-26.1875	0.19891664	0.1567526	-2.3610535
1276880913928	7.246025	-7.04172	1.5390993	0.4138937	0.0	-27.875	33.875	-26.6875	0.24079902	0.15116382	-2.341896
1276880913958	7.164303	-6.851035	1.5390993	0.22493744	0.0	-28.375	34.125	-26.9375	0.24919313	0.15403368	-2.3338463
1276880913988	7.0553403	-7.04172	1.607201	0.2902174	0.0	-28.375	34.625	-26.9375	0.22492883	0.15985817	-2.3552282
1276880914028	6.8237944	-7.3958488	1.7978859	0.41563606	0.0	-28.125	34.125	-26.6875	0.13267687	0.17679866	-2.3964026
1276880914068	6.3198414	-7.5865335	2.0294318	0.2737503	0.0	-28.375	33.875	-26.1875	-0.007152102	0.20270994	-2.447031
1276880914108	6.2108784	-7.8861814	2.1111538	0.4512167	0.0	-28.375	34.125	-25.6875	-0.07345534	0.20728959	-2.4744804
1276880914148	6.3198414	-7.43671	1.607201	0.084160805	0.0	-28.375	33.875	-25.6875	0.01730343	0.1632181	-2.4372048
1276880914178	6.66035	-6.428804	1.2666923	-0.4635086	0.0	-28.875	34.625	-25.4375	0.24881014	0.13599336	-2.3385065
1276880914208	7.3958488	-7.246025	1.3075534	0.6294966	0.0	-29.125	35.125	-24.9375	0.2421925	0.12562096	-2.3459623
1276880914248	6.5922484	-7.4639506	1.7978859	0.31267262	0.0	-29.625	34.875	-24.6875	0.054515667	0.17861685	-2.4181306
1276880914288	7.0553403	-7.43671	1.2258313	0.5173578	0.0	-29.375	35.125	-25.4375	0.14345825	0.119016774	-2.3825042
1276880914328	7.8180795	-6.238119	0.53119355	0.20927048	0.0	-28.625	34.375	-26.9375	0.35163248	0.053059813	-2.2442613
1276880914368	8.240311	-6.5513873	1.4573772	0.8210182	0.0	-28.375	34.125	-27.6875	0.39907697	0.13756393	-2.2425063
1276880914408	6.3198414	-6.932757	2.982856	0.037177086	0.0	-28.375	34.125	-28.4375	0.14673105	0.30785787	-2.4024103
1276880914438	6.0201936	-7.8180795	2.070293	0.27557182	0.0	-28.625	34.125	-27.9375	-0.10182234	0.20681205	-2.485392
1276880914468	6.4015636	-8.240311	1.3075534	0.70964336	0.0	-29.125	34.625	-27.4375	-0.08120113	0.12465857	-2.481122
1276880914508	6.5922484	-7.7363577	0.84446156	0.3924713	0.0	-28.875	34.375	-27.6875	0.013273091	0.08289238	-2.4358733
1276880914548	7.014479	-7.082581	1.4982382	0.27355766	0.0	-28.625	34.375	-27.4375	0.18559442	0.14918444	-2.3610253
1276880914588	7.1234417	-6.5513873	2.152015	0.10774708	0.0	-28.375	34.125	-26.9375	0.33921188	0.21880122	-2.3143861
1276880914628	6.932757	-7.04172	1.920469	0.25998497	0.0	-28.125	34.125	-26.4375	0.2186501	0.19195227	-2.3639917
1276880914668	6.891896	-7.273266	1.1441092	0.27836895	0.0	-28.375	33.875	-26.1875	0.12792261	0.11369118	-2.383111
1276880914698	7.0553403	-7.164303	1.1849703	0.31803322	0.0	-28.125	33.875	-26.1875	0.1768243	0.11730661	-2.3638573
1276880914733	6.973618	-7.04172	1.4982382	0.21641731	0.0	-28.625	34.125	-26.6875	0.18387389	0.15004133	-2.3610535
1276880914768	6.973618	-7.014479	1.607201	0.2141962	0.0	-28.375	34.125	-27.4375	0.19442572	0.16108145	-2.3591156
1276880914808	6.891896	-7.164303	1.4982382	0.2467165	0.0	-28.125	33.875	-27.4375	0.15494473	0.14958574	-2.375572
1276880914838	6.782933	-7.164303	1.4165162	0.16039181	0.0	-27.875	33.625	-27.6875	0.1347438	0.14260285	-2.3835313
1276880914878	6.8237944	-7.205164	1.4982382	0.22944832	0.0	-27.625	32.875	-27.6875	0.12088748	0.14984506	-2.3833723
1276880914918	6.782933	-7.205164	1.56634	0.2121315	0.0	-27.875	32.375	-27.4375	0.092508964	0.15698436	-2.3863702
1276880914988	6.782933	-7.3141265	1.7297841	0.31741905	0.0	-27.875	32.875	-27.6875	0.095849924	0.17170101	-2.3938577
1276880915028	6.891896	-7.082581	1.9477097	0.26582432	0.0	-27.875	33.375	-27.4375	0.17607778	0.19459535	-2.369839
1276880915068	6.891896	-7.082581	1.4573772	0.18260002	0.0	-27.875	33.875	-26.9375	0.17798297	0.14641713	-2.369839
1276880915098	6.973618	-7.5865335	1.4982382	0.6063976	0.0	-28.625	33.625	-26.9375	0.08259191	0.14438197	-2.3982651
1276880915128	6.66035	-7.04172	1.7297841	0.039071083	0.0	-28.875	33.625	-26.1875	0.117654085	0.17660554	-2.3840203
1276880915168	7.014479	-7.04172	1.4982382	0.24489021	0.0	-29.125	33.625	-26.1875	0.15921836	0.14961313	-2.3581324
1276880915198	6.782933	-7.014479	1.607201	0.082445145	0.0	-29.625	34.125	-26.4375	0.12861238	0.16324666	-2.3729746
1276880915233	6.6331096	-7.04172	1.607201	-1.6975403E-4	0.0	-29.625	34.375	-26.1875	0.10855303	0.16463444	-2.386066
1276880915268	6.932757	-7.246025	1.4982382	0.33301067	0.0	-29.875	34.875	-26.4375	0.12952617	0.14830321	-2.378285
1276880915308	6.469665	-7.246025	1.3756552	0.0042562485	0.0	-30.375	35.125	-26.9375	0.03648741	0.1406805	-2.4127378
1276880915338	6.6331096	-7.6273947	1.1168685	0.36304474	0.0	-30.375	34.625	-26.6875	-0.009265665	0.11004519	-2.4258049
1276880915378	6.5513873	-7.6954966	1.1849703	0.36908054	0.0	-30.125	34.375	-27.6875	-0.02954046	0.11671544	-2.4363284
1276880915418	6.6331096	-7.4639506	1.6480621	0.3138647	0.0	-29.875	33.625	-28.1875	2.5808296E-4	0.16357215	-2.4150636
1276880915458	6.8237944	-7.205164	1.920469	0.3011074	0.0	-29.125	33.625	-27.9375	0.10366027	0.19116166	-2.3833723
1276880915498	6.851035	-7.082581	1.9885708	0.24591446	0.0	-29.125	33.625	-27.6875	0.1323977	0.19913068	-2.3728108
1276880915538	6.8237944	-6.932757	1.8387469	0.09326267	0.0	-29.125	33.875	-26.6875	0.16596562	0.18681845	-2.364115
1276880915578	6.8237944	-7.164303	1.6480621	0.22367954	0.0	-29.125	34.875	-25.9375	0.16197221	0.1650563	-2.3805325
1276880915618	6.851035	-7.4639506	1.1168685	0.3862219	0.0	-29.375	34.875	-25.9375	0.09314641	0.10979394	-2.3989847
1276880915658	7.014479	-7.205164	1.1849703	0.31863785	0.0	-28.875	34.375	-26.6875	0.1534579	0.11729958	-2.3696036
1276880915688	6.932757	-7.164303	1.4982382	0.2747717	0.0	-28.625	34.375	-27.1875	0.16311555	0.14916635	-2.3726182
1276880915728	6.891896	-7.164303	1.7978859	0.2957182	0.0	-28.375	33.875	-27.4375	0.1571704	0.17891985	-2.375572
1276880915768	7.164303	-6.891896	1.6889231	0.27689743	0.0	-27.875	33.625	-26.9375	0.24916007	0.16828613	-2.336817
1276880915798	7.205164	-6.782933	1.607201	0.21860123	0.0	-27.875	34.375	-26.4375	0.30119023	0.16101006	-2.3260186
1276880915828	7.246025	-6.851035	1.4982382	0.27731133	0.0	-27.375	34.125	-25.9375	0.30220667	0.14912848	-2.3281825
1276880915868	6.973618	-7.1234417	1.3756552	0.25650978	0.0	-27.375	34.375	-25.9375	0.22367062	0.1371315	-2.366822
1276880915908	6.701211	-7.3549876	1.2258313	0.2185545	0.0	-27.875	34.125	-26.1875	0.11485493	0.122581705	-2.4026725
1276880915948	6.6331096	-7.43671	1.2666923	0.23861217	0.0	-27.625	34.125	-26.1875	0.102285534	0.12643506	-2.4132476
1276880915988	6.973618	-7.164303	1.1441092	0.25652885	0.0	-28.125	34.875	-25.9375	0.19889154	0.113938995	-2.3696811
1276880916028	7.4639506	-6.8237944	1.1849703	0.37563324	0.0	-27.875	35.125	-25.9375	0.33244166	0.116639994	-2.31142
1276880916068	7.4639506	-6.3607025	1.1849703	0.07126713	0.0	-27.625	35.375	-26.1875	0.40997404	0.12025116	-2.2765603
1276880916098	7.246025	-6.851035	1.7297841	0.31430435	0.0	-27.875	35.875	-25.9375	0.36910382	0.17175438	-2.3281825
1276880916128	6.742072	-7.3549876	1.9885708	0.36712933	0.0	-27.875	35.625	-26.4375	0.20311673	0.19672686	-2.3996453
1276880916168	6.2789803	-7.5456724	2.070293	0.22574139	0.0	-27.625	35.375	-26.6875	0.08242949	0.2078543	-2.4475648
1276880916198	6.932757	-7.3958488	1.7297841	0.47701836	0.0	-27.125	35.375	-26.4375	0.23245117	0.16901039	-2.3885026
1276880916238	7.668256	-6.851035	1.4165162	0.5733957	0.0	-26.375	35.125	-26.4375	0.40138653	0.13689247	-2.2999687
1276880916278	7.0553403	-6.851035	1.3075534	0.11424732	0.0	-26.375	35.125	-26.1875	0.32524246	0.13218248	-2.341504
1276880916308	6.782933	-7.3549876	1.3756552	0.29267883	0.0	-26.125	34.875	-25.6875	0.22330944	0.1366373	-2.3966348
1276880916338	6.6331096	-7.6273947	1.6889231	0.44165516	0.0	-26.375	35.375	-25.6875	0.18110448	0.16555548	-2.4258049
1276880916378	6.4015636	-7.7772183	1.879608	0.44020653	0.0	-26.625	35.375	-26.1875	0.108741835	0.18447721	-2.4529138
1276880916418	6.701211	-7.246025	1.607201	0.19305992	0.0	-26.375	35.875	-26.1875	0.26050842	0.16142492	-2.3952372
1276880916458	7.246025	-6.66035	1.3756552	0.1310339	0.0	-26.625	36.875	-26.1875	0.43271354	0.1388741	-2.3141038
1276880916498	7.7363577	-6.742072	0.9942854	0.503314	0.0	-26.125	37.125	-26.1875	0.460606	0.096589394	-2.2876287
1276880916538	7.43671	-6.66035	1.3756552	0.270916	0.0	-25.625	37.375	-25.6875	0.50500995	0.13693424	-2.3011775
1276880916578	7.43671	-6.782933	1.334794	0.34689713	0.0	-24.8125	37.375	-25.1875	0.51500386	0.13184248	-2.3102498
1276880916618	7.082581	-7.082581	1.56634	0.33136368	0.0	-24.3125	37.375	-24.6875	0.4820874	0.15512304	-2.3561945
1276880916658	6.5922484	-7.246025	1.2666923	0.070957184	0.0	-24.3125	38.4375	-24.1875	0.40785798	0.1285929	-2.4034035
1276880916688	7.014479	-7.082581	1.1441092	0.22703648	0.0	-24.3125	38.9375	-24.1875	0.49128485	0.114275366	-2.3610253
1276880916718	6.973618	-6.8237944	1.6480621	0.08838081	0.0	-24.3125	39.1875	-23.9375	0.5983259	0.16733433	-2.3453362
1276880916758	6.8237944	-7.014479	2.152015	0.21324253	0.0	-24.5625	39.4375	-24.4375	0.6112712	0.21646068	-2.3699732
1276880916798	6.6331096	-7.7363577	1.2258313	0.45746422	0.0	-24.0625	39.1875	-24.6875	0.36253712	0.11971458	-2.4328215
1276880916828	6.0474343	-8.539958	-0.29964766	0.66197586	0.0	-23.8125	39.1875	-24.4375	0.12421343	-0.02862731	-2.5254285
1276880916868	5.134871	-8.390134	-0.08172209	0.030418396	0.0	-23.5625	39.6875	-24.9375	0.02447716	-0.008307661	-2.5923867
1276880916908	6.469665	-8.349273	0.6946377	0.7786913	0.0	-23.3125	39.9375	-24.6875	0.27212337	0.0656698	-2.482359
1276880916948	7.1234417	-7.04172	0.88532263	0.24884796	0.0	-23.5625	40.4375	-23.4375	0.5618664	0.08815778	-2.3504252
1276880916988	6.8237944	-6.932757	0.88532263	-0.038790703	0.0	-23.5625	40.9375	-22.4375	0.5799435	0.09076086	-2.3641152
1276880917028	6.6331096	-7.43671	-0.08172209	0.15876389	0.0	-23.3125	41.4375	-21.1875	0.44117823	-0.008200663	-2.4132476
1276880917068	6.701211	-7.8861814	-0.50395286	0.55443287	0.0	-23.0625	42.1875	-19.9375	0.41351137	-0.048658215	-2.437249
1276880917108	6.5922484	-8.158588	0.040861044	0.6824856	0.0	-23.0625	42.1875	-19.4375	0.41904718	0.0038955687	-2.4619846
1276880917148	6.66035	-7.6546354	-0.38136974	0.34712505	0.0	-23.0625	42.6875	-18.9375	0.47406477	-0.03756824	-2.425541
1276880917178	6.701211	-6.973618	-0.84446156	-0.09837055	0.0	-23.8125	42.9375	-18.4375	0.50991434	-0.08709372	-2.3761122
1276880917208	7.014479	-6.891896	-0.88532263	0.0667963	0.0	-24.3125	42.6875	-17.9375	0.54534334	-0.089787625	-2.34738
1276880917241	6.782933	-6.973618	-0.7218784	-0.051618576	0.0	-24.5625	42.9375	-17.6875	0.5271214	-0.07406832	-2.370055
1276880917278	6.2789803	-7.43671	-0.46309182	-0.06269264	0.0	-25.125	42.9375	-17.1875	0.41122577	-0.04754396	-2.440404
1276880917318	6.0882955	-7.6954966	-0.84446156	0.04226494	0.0	-24.5625	42.9375	-16.6875	0.3405548	-0.08584698	-2.4722712
1276880917358	6.2108784	-8.008764	-0.84446156	0.36332703	0.0	-24.8125	43.4375	-16.4375	0.32967913	-0.08313047	-2.4819639
1276880917398	6.0201936	-8.471856	-0.84446156	0.6206312	0.0	-24.8125	43.4375	-16.1875	0.2400245	-0.08107457	-2.5237806
1276880917438	5.7886477	-8.539958	-1.2258313	0.5828638	0.0	-24.8125	43.6875	-15.9375	0.18081231	-0.11826283	-2.5459006
1276880917478	5.938472	-8.117727	-1.2258313	0.32575417	0.0	-25.125	43.9375	-15.9375	0.25300568	-0.12127837	-2.5100086
1276880917518	6.0474343	-7.8589406	-1.0351465	0.16360283	0.0	-25.125	43.9375	-15.4375	0.32304114	-0.104010925	-2.4857295
1276880917558	5.706926	-7.7363577	-0.9942854	-0.14182568	0.0	-24.8125	44.4375	-15.1875	0.30593362	-0.10305905	-2.5060256
1276880917598	5.829509	-7.7772183	-1.1441092	-0.0200634	0.0	-24.3125	44.4375	-14.6875	0.33848223	-0.11717379	-2.4983718
1276880917638	6.1700177	-7.6954966	-1.4165162	0.15810299	0.0	-24.0625	44.4375	-13.6875	0.41257697	-0.14263582	-2.4657733
1276880917678	6.2108784	-7.6273947	-1.525479	0.14720535	0.0	-23.3125	44.9375	-12.9375	0.46783477	-0.15386145	-2.4582014
1276880917708	6.0474343	-7.6273947	-1.6889231	0.072675705	0.0	-23.3125	44.6875	-11.875	0.44014943	-0.17179917	-2.4712224
1276880917741	6.0201936	-7.504812	-1.7978859	-0.019040108	0.0	-23.3125	45.1875	-11.125	0.4654595	-0.184739	-2.4655252
1276880917778	5.829509	-7.6954966	-1.7297841	0.0013055801	0.0	-23.0625	45.6875	-10.875	0.43935546	-0.17729275	-2.4932947
1276880917808	5.8976107	-7.8180795	-1.7297841	0.13801289	0.0	-22.8125	45.4375	-11.125	0.43577072	-0.17483021	-2.4953098
1276880917838	6.1291566	-7.5865335	-1.7297841	0.09861183	0.0	-22.5625	45.9375	-10.625	0.5331564	-0.17553288	-2.4620535
1276880917878	5.9793324	-7.3549876	-1.607201	-0.19252777	0.0	-22.8125	45.6875	-10.625	0.5339251	-0.16795942	-2.4589972
1276880917918	5.8567495	-7.3958488	-1.4573772	-0.26075935	0.0	-23.0625	45.4375	-10.375	0.51544726	-0.15327002	-2.4718122
1276880917958	5.8976107	-7.43671	-1.4165162	-0.21014118	0.0	-23.3125	45.9375	-9.375	0.5510821	-0.14814878	-2.4711099
1276880917998	5.8567495	-7.4639506	-1.3075534	-0.22950172	0.0	-23.0625	45.9375	-9.375	0.5635244	-0.13695623	-2.4762685
1276880918038	5.6252036	-7.4639506	-1.1849703	-0.3855238	0.0	-23.0625	46.1875	-9.625	0.53210086	-0.126112	-2.49576
1276880918068	5.706926	-7.5456724	-1.2258313	-0.26679516	0.0	-23.0625	46.4375	-10.125	0.5254497	-0.12885205	-2.4940605
1276880918098	5.706926	-7.8589406	-1.2666923	-0.01193428	0.0	-22.8125	45.6875	-11.125	0.44586822	-0.12968728	-2.513518
1276880918128	5.7477865	-8.19945	-1.4165162	0.3064375	0.0	-22.8125	45.4375	-11.875	0.37500224	-0.1405297	-2.530198
1276880918168	5.9793324	-8.076866	-1.4165162	0.34197998	0.0	-22.5625	44.9375	-12.375	0.4218916	-0.1400343	-2.504326
1276880918198	6.2789803	-8.008764	-1.4982382	0.47977924	0.0	-22.5625	44.6875	-12.9375	0.45726123	-0.14617188	-2.4766757
1276880918228	6.3198414	-8.349273	-1.607201	0.7873974	0.0	-22.3125	44.9375	-13.1875	0.42688027	-0.15229596	-2.493669
1276880918258	6.2789803	-8.19945	-1.6480621	0.65148926	0.0	-22.5625	45.1875	-13.4375	0.42568347	-0.15824619	-2.488068
1276880918308	6.3607025	-7.7363577	-1.3075534	0.29381847	0.0	-22.0625	45.4375	-13.4375	0.54063237	-0.12981905	-2.453471
1276880918338	6.4015636	-8.049625	-1.4573772	0.580863	0.0	-21.8125	45.1875	-13.4375	0.5013093	-0.1407653	-2.4697473
1276880918378	6.510526	-8.076866	-2.070293	0.7720461	0.0	-22.0625	45.4375	-13.6875	0.4570529	-0.19697526	-2.463161
1276880918418	6.742072	-7.3549876	-1.7570249	0.32441616	0.0	-22.0625	44.9375	-14.1875	0.5638223	-0.17431079	-2.3996453
1276880918448	5.9793324	-7.8180795	-1.0760075	0.09449005	0.0	-22.5625	44.6875	-14.1875	0.44289765	-0.10889017	-2.4886813
1276880918498	5.706926	-8.076866	-0.9125633	0.124993324	0.0	-22.8125	44.9375	-14.1875	0.37204674	-0.092014216	-2.5264664
1276880918538	5.8976107	-7.8589406	-1.0760075	0.077809334	0.0	-23.3125	44.9375	-13.9375	0.40747145	-0.10907466	-2.4978142
1276880918578	6.1700177	-7.7772183	-1.2258313	0.19619465	0.0	-23.3125	45.4375	-13.4375	0.47344765	-0.1228571	-2.4709227
1276880918618	6.238119	-7.8589406	-1.4573772	0.3324337	0.0	-23.0625	45.6875	-13.4375	0.46713403	-0.14423816	-2.4706676
1276880918658	6.1700177	-7.7363577	-1.4165162	0.1896925	0.0	-22.5625	45.4375	-13.4375	0.48417136	-0.142182	-2.4683564
1276880918688	5.9793324	-7.8861814	-1.3075534	0.17603302	0.0	-22.0625	44.9375	-13.4375	0.45104322	-0.1313596	-2.4928617
1276880918718	5.8976107	-8.049625	-1.3075534	0.2575426	0.0	-22.0625	44.6875	-13.6875	0.40760317	-0.13028964	-2.509284
1276880918748	5.8976107	-7.8861814	-1.1441092	0.10711002	0.0	-22.0625	44.6875	-14.1875	0.4315912	-0.11566391	-2.4994748
1276880918778	5.938472	-7.6954966	-1.1849703	-0.014292717	0.0	-22.3125	45.1875	-14.1875	0.46009108	-0.12130699	-2.4843593
1276880918808	6.0474343	-7.5865335	-1.2666923	-0.02240467	0.0	-22.0625	45.4375	-14.1875	0.4961979	-0.12982683	-2.4686058
1276880918838	6.1291566	-7.6273947	-1.2258313	0.054707527	0.0	-21.5625	45.1875	-14.1875	0.51881576	-0.124628924	-2.4646778
1276880918878	6.2789803	-7.7363577	-1.2258313	0.2322483	0.0	-21.5625	45.1875	-13.9375	0.5355013	-0.12241364	-2.4598067
1276880918918	6.2108784	-7.7772183	-1.2666923	0.22652721	0.0	-21.5625	44.6875	-13.9375	0.5056859	-0.12658817	-2.4677067
1276880918958	6.1291566	-7.9679036	-1.1849703	0.3155136	0.0	-22.0625	44.6875	-13.9375	0.46273515	-0.117335945	-2.485897
1276880918988	6.0201936	-7.8589406	-1.1168685	0.15593338	0.0	-22.5625	44.6875	-13.9375	0.44620734	-0.11234248	-2.4879103
1276880919018	6.0201936	-7.8180795	-1.1168685	0.12373257	0.0	-22.8125	44.4375	-13.9375	0.43644637	-0.11270831	-2.485392
1276880919058	6.238119	-7.6546354	-1.1441092	0.13400173	0.0	-23.0625	44.6875	-13.9375	0.4878912	-0.11534961	-2.4578042
1276880919088	6.2789803	-7.6273947	-1.0760075	0.13118362	0.0	-22.5625	44.6875	-14.1875	0.5152898	-0.108486526	-2.452856
1276880919118	6.2108784	-7.6546354	-1.0760075	0.1093092	0.0	-22.0625	44.9375	-14.1875	0.5228891	-0.108726785	-2.4599464
1276880919158	6.0882955	-7.7363577	-1.0760075	0.09670067	0.0	-22.0625	45.4375	-14.1875	0.5050667	-0.10886576	-2.4748464
1276880919188	6.1291566	-7.7772183	-1.1168685	0.15824223	0.0	-22.0625	45.6875	-13.9375	0.5138614	-0.11231633	-2.4741557
1276880919218	6.1700177	-7.8180795	-1.1168685	0.21527004	0.0	-22.0625	45.4375	-13.9375	0.5102887	-0.11167454	-2.4734726
1276880919248	6.2108784	-7.8180795	-1.0760075	0.23601723	0.0	-22.8125	45.6875	-13.1875	0.5193755	-0.10734966	-2.4702604
1276880919278	6.2108784	-7.6954966	-0.9942854	0.13237762	0.0	-22.5625	45.1875	-12.9375	0.5460834	-0.10020611	-2.4625497
1276880919318	6.1291566	-7.6546354	-1.0351465	0.053955078	0.0	-22.5625	44.6875	-12.9375	0.5203364	-0.10517177	-2.4664178
1276880919358	6.2789803	-7.6546354	-1.0760075	0.15210629	0.0	-22.5625	44.6875	-12.9375	0.5203364	-0.10517177	-2.4664178
1276880919398	6.469665	-7.7772183	-0.95342433	0.35458565	0.0	-22.5625	43.9375	-13.4375	0.54094	-0.093967795	-2.4477162
1276880919438	6.4424243	-7.6954966	-0.9942854	0.27869034	0.0	-23.3125	44.1875	-13.9375	0.5115315	-0.098747596	-2.4445956
1276880919478	6.3198414	-7.246025	-1.0351465	-0.13624191	0.0	-23.3125	44.4375	-13.9375	0.54772127	-0.107248165	-2.4243617
1276880919518	6.0474343	-7.3549876	-1.0351465	-0.22861099	0.0	-24.0625	44.6875	-13.9375	0.47093078	-0.108286485	-2.4534478
1276880919558	6.1291566	-7.4639506	-1.1441092	-0.08111191	0.0	-24.0625	45.1875	-14.1875	0.46700048	-0.117912725	-2.454077
1276880919598	6.5922484	-8.076866	-1.3756552	0.7093344	0.0	-23.8125	45.4375	-13.4375	0.4770088	-0.13119164	-2.4570582
1276880919638	6.851035	-8.008764	-1.4982382	0.8386164	0.0	-23.8125	45.1875	-13.4375	0.5068276	-0.14121103	-2.4339476
1276880919678	6.2789803	-7.7363577	-1.0760075	0.21505737	0.0	-23.5625	44.6875	-13.1875	0.49148986	-0.10757505	-2.4598067
1276880919718	6.2789803	-7.5456724	-1.0351465	0.06423092	0.0	-23.5625	44.1875	-13.1875	0.50748205	-0.105061874	-2.4475648
1276880919748	6.510526	-7.273266	-0.9942854	0.0053806305	0.0	-23.3125	43.9375	-13.1875	0.58515406	-0.10150753	-2.411474
1276880919788	6.469665	-7.273266	-0.9125633	-0.029649734	0.0	-23.8125	43.6875	-13.6875	0.5545797	-0.09347382	-2.4146018
1276880919818	6.5922484	-7.7363577	-0.9125633	0.3983364	0.0	-23.3125	43.9375	-14.4375	0.5213333	-0.08954289	-2.4358733
1276880919848	6.6331096	-8.117727	-0.8036005	0.70721817	0.0	-23.0625	44.1875	-14.4375	0.5083885	-0.07650705	-2.4565032
1276880919888	6.0882955	-8.008764	-0.38136974	0.26077652	0.0	-23.0625	44.1875	-14.6875	0.46909228	-0.037890617	-2.491593
1276880919918	5.175732	-8.008764	-0.3405087	-0.26492882	0.0	-22.8125	44.4375	-14.4375	0.2970739	-0.035693873	-2.567852
1276880919948	5.09401	-8.076866	-0.9125633	-0.21407604	0.0	-23.3125	44.4375	-13.6875	0.21356928	-0.09527634	-2.578911
1276880919988	4.903325	-7.5456724	-1.9477097	-0.59940624	0.0	-23.3125	44.1875	-13.6875	0.18726143	-0.21315137	-2.5653443
1276880920018	5.8567495	-7.3141265	-2.5606253	-0.09301281	0.0	-23.5625	44.4375	-13.4375	0.34648255	-0.2667641	-2.4663978
1276880920058	8.076866	-7.9270425	-2.8330324	1.8595333	0.0	-23.5625	44.6875	-13.1875	0.5612425	-0.24529386	-2.346833
1276880920098	9.00305	-8.62168	-1.1849703	2.7150288	0.0	-23.5625	44.9375	-12.9375	0.7475343	-0.09477531	-2.3345594
1276880920138	5.175732	-7.014479	0.3405087	-1.0827141	0.0	-24.0625	45.6875	-12.125	0.6542565	0.039041463	-2.505904
1276880920178	5.09401	-6.1291566	-0.53119355	-1.8193064	0.0	-23.8125	45.4375	-12.125	0.6074673	-0.066553526	-2.4481673
1276880920218	6.2789803	-6.510526	-2.1792557	-0.5027962	0.0	-23.3125	45.4375	-12.125	0.5659248	-0.23642802	-2.374297
1276880920248	7.504812	-7.5456724	-2.070293	1.0351887	0.0	-23.8125	45.4375	-12.375	0.61397135	-0.19213398	-2.3589094
1276880920278	7.3549876	-7.7772183	-1.7570249	1.040843	0.0	-23.5625	45.4375	-12.6875	0.6027674	-0.16269195	-2.38409
1276880920318	6.510526	-8.158588	-1.4165162	0.7269163	0.0	-23.5625	44.9375	-12.9375	0.4575719	-0.13488506	-2.4680746
1276880920348	5.597963	-8.267551	-1.0351465	0.23133373	0.0	-23.8125	44.6875	-13.1875	0.28362843	-0.10330661	-2.5464013
1276880920388	5.6252036	-7.8589406	-0.8036005	-0.10862827	0.0	-23.0625	44.6875	-13.1875	0.3978625	-0.08295743	-2.5203602
1276880920428	6.238119	-7.1234417	-0.61291564	-0.3180666	0.0	-22.5625	44.6875	-13.1875	0.65316457	-0.064640075	-2.4223566
1276880920458	6.8237944	-7.014479	-1.0760075	0.03839302	0.0	-22.5625	44.6875	-13.1875	0.65316457	-0.064640075	-2.4223566
1276880920498	6.851035	-7.273266	-1.4165162	0.28510857	0.0	-22.5625	44.6875	-13.1875	0.65316457	-0.064640075	-2.4223566
1276880920538	6.4424243	-7.8589406	-1.56634	0.47543144	0.0	-23.3125	44.6875	-13.4375	0.45991203	-0.15293229	-2.45492
1276880920578	5.829509	-8.267551	-1.3756552	0.40256214	0.0	-23.8125	44.1875	-13.6875	0.28778866	-0.13515759	-2.5274475
1276880920618	5.9793324	-8.049625	-1.334794	0.30920696	0.0	-23.5625	44.1875	-13.6875	0.35420537	-0.13233659	-2.5027099
1276880920658	6.4015636	-7.5865335	-1.2666923	0.2003479	0.0	-23.5625	44.1875	-13.4375	0.49288252	-0.12692115	-2.4407055
1276880920688	6.701211	-7.273266	-1.2258313	0.15875435	0.0	-23.0625	43.6875	-13.1875	0.58800805	-0.12332102	-2.3971074
1276880920718	6.782933	-7.205164	-1.2258313	0.16456985	0.0	-23.0625	44.1875	-13.4375	0.61184406	-0.12324873	-2.3863704
1276880920748	6.66035	-7.205164	-1.2258313	0.08159065	0.0	-23.5625	44.4375	-13.4375	0.586344	-0.12428834	-2.395467
1276880920788	6.510526	-7.3549876	-1.1441092	0.08232212	0.0	-24.0625	44.6875	-13.1875	0.55254394	-0.115955144	-2.4170232
1276880920818	6.4424243	-7.4639506	-1.2666923	0.13416958	0.0	-24.0625	45.1875	-12.9375	0.5324749	-0.12777068	-2.4295201
1276880920848	6.4015636	-7.6273947	-1.2666923	0.23136139	0.0	-23.8125	44.9375	-12.375	0.52111334	-0.12652689	-2.4433517
1276880920888	6.4424243	-7.7772183	-1.1849703	0.36163902	0.0	-23.8125	44.4375	-12.375	0.5063671	-0.11680125	-2.44979
1276880920928	6.4424243	-7.7363577	-1.2258313	0.3352785	0.0	-23.3125	43.9375	-13.4375	0.4879222	-0.12116391	-2.4472008
1276880920968	6.238119	-7.7363577	-1.1849703	0.20182228	0.0	-23.3125	43.4375	-14.1875	0.4310968	-0.11867508	-2.462999
1276880921008	6.238119	-7.6954966	-1.0351465	0.15358734	0.0	-23.5625	43.1875	-14.6875	0.4251874	-0.10411589	-2.4604099
1276880921048	6.3607025	-7.4639506	-0.9125633	0.04230213	0.0	-23.5625	43.1875	-14.4375	0.49127144	-0.09278897	-2.4358287
1276880921088	6.4424243	-7.504812	-0.9125633	0.12611389	0.0	-23.5625	43.4375	-14.1875	0.5112299	-0.0920038	-2.4322195
1276880921118	6.469665	-7.5456724	-1.0760075	0.1909256	0.0	-23.3125	43.9375	-13.6875	0.5247548	-0.10783572	-2.4328177
1276880921158	6.510526	-7.5456724	-1.1441092	0.22495556	0.0	-23.0625	44.1875	-13.4375	0.54331726	-0.11429917	-2.4297051
1276880921188	6.469665	-7.5456724	-1.1168685	0.19540691	0.0	-22.3125	44.6875	-13.9375	0.562728	-0.111897245	-2.4328177
1276880921228	6.4424243	-7.5456724	-1.1168685	0.17780781	0.0	-22.3125	44.6875	-13.4375	0.5704927	-0.112095304	-2.434902
1276880921268	6.4424243	-7.504812	-1.1849703	0.15483475	0.0	-22.3125	44.1875	-13.4375	0.55632424	-0.119237535	-2.4322195
1276880921298	6.4424243	-7.5456724	-1.1441092	0.18089104	0.0	-22.5625	43.9375	-13.4375	0.5426524	-0.114805676	-2.434902
1276880921328	6.469665	-7.5865335	-1.1441092	0.22933769	0.0	-23.5625	44.1875	-13.6875	0.5107328	-0.11424904	-2.4354854
1276880921368	6.510526	-7.5456724	-1.1441092	0.22495556	0.0	-23.8125	44.4375	-13.9375	0.51454055	-0.11429917	-2.4297051
1276880921408	6.4424243	-7.5456724	-1.0760075	0.17331982	0.0	-24.0625	44.9375	-14.1875	0.5094508	-0.1080267	-2.434902
1276880921448	6.4424243	-7.5865335	-1.1168685	0.20872402	0.0	-23.8125	45.4375	-14.4375	0.5143138	-0.11174784	-2.4375677
1276880921488	6.4424243	-7.504812	-1.1168685	0.14696312	0.0	-23.5625	45.1875	-14.1875	0.53118527	-0.11244414	-2.4322195
1276880921528	6.4015636	-7.5456724	-1.1441092	0.15458298	0.0	-23.8125	44.9375	-13.9375	0.50912094	-0.115110226	-2.4380424
1276880921568	6.4424243	-7.5456724	-1.3075534	0.20093155	0.0	-23.8125	44.9375	-13.6875	0.50431514	-0.13103092	-2.434902
1276880921608	6.4015636	-7.5865335	-1.2258313	0.19525814	0.0	-24.0625	44.1875	-13.4375	0.4807381	-0.12286866	-2.4407055
1276880921648	6.3607025	-7.5865335	-1.2258313	0.16915512	0.0	-23.8125	43.9375	-13.6875	0.4710076	-0.12319179	-2.4438598
1276880921678	6.469665	-7.5456724	-1.1849703	0.20323944	0.0	-23.3125	43.9375	-14.1875	0.5025802	-0.1186582	-2.4328177
1276880921708	6.5513873	-7.504812	-1.1849703	0.22564888	0.0	-23.5625	43.6875	-14.1875	0.5061947	-0.1183919	-2.4239202
1276880921738	6.510526	-7.43671	-1.0760075	0.1356535	0.0	-23.3125	43.9375	-14.1875	0.5325843	-0.10843755	-2.4225035
1276880921768	6.469665	-7.5456724	-0.9942854	0.18246078	0.0	-23.5625	44.1875	-13.9375	0.5259223	-0.09970202	-2.4328177
1276880921808	6.4424243	-7.504812	-1.0351465	0.13812542	0.0	-23.8125	44.4375	-13.9375	0.52023345	-0.10427836	-2.4322195
1276880921838	6.510526	-7.5456724	-1.0760075	0.21741676	0.0	-23.5625	44.4375	-13.9375	0.52946836	-0.10754962	-2.4297051
1276880921878	6.469665	-7.5456724	-1.0760075	0.1909256	0.0	-24.0625	44.4375	-13.9375	0.5073208	-0.10783572	-2.4328177
1276880921918	6.510526	-7.504812	-1.0351465	0.18237782	0.0	-24.0625	44.6875	-13.9375	0.5291439	-0.10381472	-2.4270184
1276880921958	6.5922484	-7.4639506	-0.9942854	0.2011919	0.0	-24.3125	44.9375	-13.4375	0.56163746	-0.099514805	-2.4181306
1276880921998	6.6331096	-7.4639506	-1.0760075	0.23658085	0.0	-24.5625	44.9375	-13.4375	0.55083835	-0.107343614	-2.4150636
1276880922028	6.6331096	-7.43671	-1.1168685	0.22082138	0.0	-24.3125	44.6875	-13.6875	0.5454093	-0.111612454	-2.4132476
1276880922068	6.66035	-7.3958488	-1.1441092	0.21172428	0.0	-24.3125	44.6875	-13.4375	0.55720556	-0.11445078	-2.4084723
1276880922128	6.6331096	-7.3141265	-1.1168685	0.13024998	0.0	-23.8125	44.1875	-13.1875	0.5751478	-0.11263407	-2.4049838
1276880922168	6.5922484	-7.3958488	-1.1849703	0.17134953	0.0	-23.8125	44.1875	-13.4375	0.5458163	-0.11903924	-2.4135804
1276880922199	6.6331096	-7.3958488	-1.2666923	0.20839977	0.0	-23.5625	44.1875	-13.1875	0.5564207	-0.12681854	-2.4105098
1276880922238	6.5922484	-7.4639506	-1.2258313	0.22684193	0.0	-23.5625	44.1875	-13.1875	0.5564207	-0.12681854	-2.4105098
1276880922268	6.5513873	-7.4639506	-1.1168685	0.1872797	0.0	-23.0625	44.1875	-13.4375	0.56197757	-0.11198862	-2.4212146
1276880922298	6.510526	-7.4639506	-1.1441092	0.16363049	0.0	-22.5625	44.1875	-13.1875	0.57401973	-0.11500531	-2.424315
1276880922328	6.510526	-7.4639506	-1.1849703	0.16840172	0.0	-22.5625	44.6875	-12.6875	0.59294856	-0.11907458	-2.424315
1276880922368	6.4424243	-7.504812	-1.1441092	0.15005684	0.0	-22.5625	43.9375	-13.1875	0.55325025	-0.11516278	-2.4322195
1276880922408	6.469665	-7.5456724	-1.2258313	0.20815945	0.0	-23.3125	43.6875	-13.4375	0.50876987	-0.12270958	-2.4328177
1276880922438	6.469665	-7.5865335	-1.2666923	0.24405003	0.0	-23.5625	43.9375	-13.9375	0.4873247	-0.1263663	-2.4354854
1276880922468	6.4015636	-7.6273947	-1.2666923	0.23136139	0.0	-23.3125	44.1875	-14.4375	0.47560066	-0.12652689	-2.4433517
1276880922508	6.3607025	-7.5865335	-1.1441092	0.1594429	0.0	-23.3125	45.1875	-13.9375	0.5192248	-0.11505385	-2.4438598
1276880922548	6.4015636	-7.5456724	-1.1441092	0.15458298	0.0	-23.3125	45.6875	-13.9375	0.54162955	-0.115110226	-2.4380424
1276880922588	6.469665	-7.5865335	-1.2258313	0.2389822	0.0	-23.8125	45.4375	-13.6875	0.5234776	-0.12233117	-2.4354851
1276880922628	6.469665	-7.43671	-1.1441092	0.116565704	0.0	-24.3125	45.1875	-13.9375	0.5232664	-0.1155532	-2.4256225
1276880922668	6.469665	-7.4639506	-1.1849703	0.14178085	0.0	-23.8125	44.4375	-14.1875	0.5083281	-0.119394735	-2.4274325
1276880922699	6.4424243	-7.4639506	-1.2258313	0.12904549	0.0	-23.8125	44.1875	-13.6875	0.5047871	-0.123691656	-2.4295201
1276880922738	6.4424243	-7.504812	-1.2258313	0.15977764	0.0	-23.5625	44.4375	-13.1875	0.524617	-0.12330829	-2.4322195
1276880922768	6.510526	-7.504812	-1.1849703	0.19901371	0.0	-23.3125	44.4375	-12.9375	0.55340004	-0.11870855	-2.4270184
1276880922808	6.469665	-7.4639506	-1.1441092	0.13699627	0.0	-23.8125	44.6875	-12.6875	0.5526325	-0.11531472	-2.4274325
1276880922838	6.469665	-7.4639506	-1.1168685	0.13389874	0.0	-23.3125	45.1875	-13.4375	0.5648828	-0.112592556	-2.4274325
1276880922878	6.4424243	-7.4639506	-1.1441092	0.11929417	0.0	-23.0625	44.9375	-13.9375	0.54800963	-0.11552129	-2.4295201
1276880922918	6.469665	-7.504812	-1.1168685	0.16461754	0.0	-23.0625	45.1875	-13.9375	0.55602175	-0.11224422	-2.4301336
1276880922958	6.4424243	-7.504812	-1.1168685	0.14696312	0.0	-22.5625	45.1875	-14.1875	0.5610592	-0.11244414	-2.4322195
1276880922998	6.469665	-7.5456724	-1.1849703	0.20323944	0.0	-22.8125	44.9375	-14.1875	0.5404657	-0.1186582	-2.4328177
1276880923038	6.4424243	-7.504812	-1.1168685	0.14696312	0.0	-23.0625	45.4375	-13.9375	0.5574758	-0.11244414	-2.4322195
1276880923078	6.469665	-7.504812	-1.1441092	0.16770458	0.0	-23.0625	44.9375	-13.9375	0.5474704	-0.11495813	-2.4301336
1276880923118	6.4424243	-7.5456724	-1.1849703	0.18565464	0.0	-23.3125	44.9375	-13.4375	0.537924	-0.118868016	-2.434902
1276880923158	6.4015636	-7.6273947	-1.1849703	0.22137642	0.0	-23.3125	44.9375	-12.6875	0.53922576	-0.11844258	-2.4433517
1276880923188	6.4015636	-7.5865335	-1.1441092	0.18557167	0.0	-23.0625	44.6875	-12.6875	0.55093795	-0.11475166	-2.4407055
1276880923218	6.3607025	-7.5865335	-1.1441092	0.1594429	0.0	-22.8125	45.1875	-13.1875	0.55194384	-0.11505385	-2.4438598
1276880923251	6.4424243	-7.5456724	-1.1441092	0.18089104	0.0	-22.8125	45.1875	-13.9375	0.5518281	-0.114805676	-2.434902
1276880923288	6.4424243	-7.5456724	-1.1849703	0.18565464	0.0	-22.5625	44.6875	-14.1875	0.53835714	-0.118868016	-2.434902
1276880923318	6.469665	-7.504812	-1.1441092	0.16770458	0.0	-22.5625	44.9375	-13.9375	0.5623913	-0.11495813	-2.4301336
1276880923348	6.4424243	-7.504812	-1.0760075	0.14246082	0.0	-23.0625	44.9375	-13.9375	0.55072916	-0.10836307	-2.4322195
1276880923408	6.4424243	-7.504812	-1.1849703	0.15483475	0.0	-23.0625	45.1875	-13.1875	0.5617968	-0.119237535	-2.4322195
1276880923448	6.510526	-7.4639506	-1.1441092	0.16363049	0.0	-23.5625	45.1875	-13.4375	0.56050897	-0.11500531	-2.424315
1276880923488	6.510526	-7.5456724	-1.1849703	0.22969818	0.0	-23.8125	44.4375	-14.1875	0.50502986	-0.11834392	-2.4297051
1276880923528	6.5513873	-7.5456724	-1.1441092	0.25152206	0.0	-23.8125	44.1875	-13.6875	0.52049893	-0.11399596	-2.4266093
1276880923568	6.4424243	-7.504812	-1.1168685	0.14696312	0.0	-23.8125	43.6875	-14.1875	0.48825	-0.11244414	-2.4322195
1276880923608	6.4424243	-7.504812	-1.1441092	0.15005684	0.0	-23.8125	44.1875	-14.1875	0.49749652	-0.11516278	-2.4322195
1276880923648	6.469665	-7.5456724	-1.1849703	0.20323944	0.0	-23.5625	44.6875	-13.9375	0.5175712	-0.1186582	-2.4328177
1276880923678	6.469665	-7.5865335	-1.1441092	0.22933769	0.0	-23.0625	44.6875	-14.4375	0.52150685	-0.11424904	-2.4354854
1276880923708	6.469665	-7.5865335	-1.1168685	0.22626877	0.0	-22.8125	44.9375	-14.4375	0.53743863	-0.111551605	-2.4354854
1276880923738	6.469665	-7.504812	-1.1168685	0.16461754	0.0	-23.0625	44.9375	-14.4375	0.5391702	-0.11224422	-2.4301336
1276880923768	6.3607025	-7.5456724	-1.1168685	0.1252737	0.0	-23.0625	44.6875	-14.4375	0.51229435	-0.11269074	-2.4411998
1276880923808	6.3607025	-7.6273947	-1.1168685	0.18750286	0.0	-23.0625	44.1875	-13.9375	0.5019224	-0.11198611	-2.4465032
1276880923838	6.4424243	-7.5456724	-1.1849703	0.18565464	0.0	-23.3125	44.6875	-13.9375	0.52106565	-0.118868016	-2.434902
1276880923878	6.4424243	-7.504812	-1.1168685	0.14696312	0.0	-23.0625	44.4375	-13.9375	0.5348638	-0.11244414	-2.4322195
1276880923918	6.510526	-7.4639506	-1.1441092	0.16363049	0.0	-23.5625	44.4375	-13.6875	0.5374816	-0.11500531	-2.424315
1276880923958	6.510526	-7.504812	-1.1849703	0.19901371	0.0	-23.5625	44.6875	-13.9375	0.52858305	-0.11870855	-2.4270184
1276880923988	6.469665	-7.5456724	-1.1168685	0.19540691	0.0	-24.0625	44.4375	-13.9375	0.5030743	-0.111897245	-2.4328177
1276880924018	6.4424243	-7.5456724	-1.1168685	0.17780781	0.0	-24.0625	44.1875	-13.6875	0.4981024	-0.112095304	-2.434902
1276880924058	6.4424243	-7.4639506	-1.1168685	0.116191864	0.0	-23.8125	43.9375	-13.6875	0.5100566	-0.112794325	-2.4295201
1276880924088	6.4424243	-7.504812	-1.1441092	0.15005684	0.0	-24.3125	44.4375	-13.6875	0.4983377	-0.11516278	-2.4322195
1276880924118	6.510526	-7.504812	-1.1849703	0.19901371	0.0	-24.0625	44.1875	-13.6875	0.50692314	-0.11870855	-2.4270184
1276880924158	6.5513873	-7.504812	-1.2666923	0.23562908	0.0	-24.3125	44.1875	-13.9375	0.49207896	-0.12647283	-2.4239202
1276880924188	6.469665	-7.504812	-1.1849703	0.17247391	0.0	-24.5625	44.9375	-13.9375	0.49723366	-0.11902576	-2.4301336
1276880924218	6.4015636	-7.5456724	-1.0760075	0.14699173	0.0	-24.8125	44.6875	-13.4375	0.48888177	-0.108313546	-2.4380424
1276880924288	6.469665	-7.3958488	-1.1168685	0.08286667	0.0	-24.8125	45.1875	-12.375	0.55208117	-0.11317603	-2.422893
1276880924318	6.5513873	-7.3549876	-1.1441092	0.109272	0.0	-24.3125	44.9375	-12.125	0.5833349	-0.11563858	-2.4139168
1276880924348	6.5513873	-7.43671	-1.2666923	0.1848383	0.0	-24.0625	44.4375	-12.375	0.5486243	-0.12711923	-2.4194014
1276880924388	6.510526	-7.504812	-1.3075534	0.21427059	0.0	-23.8125	44.1875	-12.9375	0.5186259	-0.13085549	-2.4270184
1276880924428	6.4424243	-7.504812	-1.1441092	0.15005684	0.0	-23.5625	44.1875	-13.1875	0.5274951	-0.11516278	-2.4322195
1276880924458	6.469665	-7.4639506	-1.1168685	0.13389874	0.0	-24.0625	43.6875	-13.9375	0.4949002	-0.112592556	-2.4274325
1276880924498	6.510526	-7.43671	-1.1168685	0.14015865	0.0	-24.0625	43.9375	-14.4375	0.49997544	-0.1125214	-2.4225035
1276880924538	6.5922484	-7.3549876	-1.2258313	0.14605045	0.0	-23.8125	43.6875	-13.9375	0.5234983	-0.12347924	-2.4108276
1276880924578	6.5513873	-7.5456724	-1.2666923	0.26620197	0.0	-24.0625	43.6875	-14.4375	0.4731635	-0.1260869	-2.4266093
1276880924618	6.469665	-7.5865335	-1.1849703	0.23407745	0.0	-24.0625	43.6875	-14.4375	0.4731635	-0.1260869	-2.4266093
1276880924658	6.3198414	-7.6273947	-1.1441092	0.1646347	0.0	-24.0625	43.9375	-13.6875	0.458811	-0.11499368	-2.4496713
1276880924688	6.4424243	-7.504812	-1.1168685	0.14696312	0.0	-24.0625	44.1875	-14.1875	0.4923626	-0.11244414	-2.4322195
1276880924718	6.510526	-7.3958488	-1.1441092	0.11275005	0.0	-23.8125	44.4375	-13.6875	0.5378791	-0.11559785	-2.4197717
1276880924751	6.510526	-7.43671	-1.1441092	0.14325333	0.0	-23.0625	44.9375	-13.6875	0.5670925	-0.115241885	-2.4225035
1276880924788	6.510526	-7.5456724	-1.1849703	0.22969818	0.0	-23.0625	44.9375	-13.9375	0.5446475	-0.11834392	-2.4297051
1276880924818	6.510526	-7.6273947	-1.1849703	0.29128265	0.0	-23.5625	44.9375	-14.1875	0.5147437	-0.11761881	-2.4350288
1276880924848	6.3607025	-7.5456724	-1.1441092	0.12837315	0.0	-23.8125	44.4375	-14.1875	0.48554823	-0.11541525	-2.4411998
1276880924888	6.4424243	-7.504812	-1.1168685	0.14696312	0.0	-24.3125	44.6875	-13.9375	0.50177044	-0.11244414	-2.4322195
1276880924928	6.469665	-7.504812	-1.2258313	0.17740917	0.0	-24.5625	44.6875	-14.4375	0.47716013	-0.123089425	-2.4301336
1276880924968	6.6331096	-7.4639506	-1.2666923	0.25879574	0.0	-24.0625	44.6875	-13.9375	0.5283546	-0.12618019	-2.4150636
1276880924998	6.469665	-7.4639506	-1.1849703	0.14178085	0.0	-23.8125	45.1875	-14.1875	0.5254597	-0.119394735	-2.4274325
1276880925038	6.3607025	-7.5456724	-1.1441092	0.12837315	0.0	-23.5625	44.4375	-13.9375	0.49876702	-0.11541525	-2.4411998
1276880925078	6.4015636	-7.5865335	-1.1849703	0.19033241	0.0	-23.5625	43.9375	-13.4375	0.49512908	-0.11881213	-2.4407055
1276880925118	6.4015636	-7.5456724	-1.1849703	0.15935898	0.0	-23.5625	43.9375	-13.6875	0.49465796	-0.11918314	-2.4380424
1276880925158	6.469665	-7.5456724	-1.1849703	0.20323944	0.0	-24.3125	43.1875	-13.6875	0.46285832	-0.1186582	-2.4328177
1276880925188	6.469665	-7.5865335	-1.1849703	0.23407745	0.0	-24.3125	43.4375	-13.9375	0.45894796	-0.11829206	-2.4354854
1276880925228	6.469665	-7.504812	-1.1441092	0.16770458	0.0	-23.8125	43.6875	-14.1875	0.48985055	-0.11495813	-2.4301336
1276880925258	6.5513873	-7.504812	-1.1849703	0.22564888	0.0	-24.3125	43.6875	-13.9375	0.48809162	-0.1183919	-2.4239202
1276880925288	6.5513873	-7.4639506	-1.2258313	0.20004272	0.0	-24.0625	43.9375	-13.6875	0.5080893	-0.12280962	-2.4212143
1276880925318	6.510526	-7.4639506	-1.1441092	0.16363049	0.0	-24.5625	44.1875	-13.4375	0.5057959	-0.11500531	-2.424315
1276880925388	6.5513873	-7.504812	-1.1168685	0.21783352	0.0	-24.5625	44.1875	-13.6875	0.5046244	-0.11164586	-2.4239202
1276880925428	6.510526	-7.43671	-1.1441092	0.14325333	0.0	-23.8125	44.4375	-13.9375	0.52743256	-0.115241885	-2.4225035
1276880925468	6.5513873	-7.43671	-1.1441092	0.17003822	0.0	-23.5625	44.1875	-13.4375	0.54686093	-0.114931114	-2.4194014
1276880925508	6.469665	-7.504812	-1.2258313	0.17740917	0.0	-23.5625	44.1875	-13.6875	0.5120168	-0.123089425	-2.4301336
1276880925548	6.510526	-7.4639506	-1.1441092	0.16363049	0.0	-23.3125	44.1875	-13.4375	0.5450956	-0.11500531	-2.424315
1276880925588	6.6331096	-7.3549876	-1.1849703	0.16822529	0.0	-23.8125	44.1875	-12.9375	0.568603	-0.1190767	-2.4077554
1276880925628	6.701211	-7.3141265	-1.3075534	0.19896698	0.0	-23.8125	44.4375	-13.4375	0.5638832	-0.13105679	-2.3998983
1276880925668	6.742072	-7.273266	-1.2666923	0.19137096	0.0	-23.5625	44.1875	-13.1875	0.58613867	-0.1270357	-2.3940773
1276880925708	6.66035	-7.3549876	-1.3075534	0.20163631	0.0	-24.0625	44.4375	-12.6875	0.5631952	-0.13102162	-2.4057167
1276880925738	6.510526	-7.43671	-1.3075534	0.16337013	0.0	-24.5625	44.4375	-13.1875	0.50365657	-0.13152741	-2.4225035
1276880925768	6.510526	-7.4639506	-1.2666923	0.1784401	0.0	-24.5625	44.1875	-13.1875	0.49852183	-0.12720111	-2.424315
1276880925808	6.4424243	-7.504812	-1.2258313	0.15977764	0.0	-24.8125	44.6875	-13.1875	0.49061266	-0.12330829	-2.4322195
1276880925838	6.469665	-7.4639506	-1.1441092	0.13699627	0.0	-24.3125	44.4375	-13.6875	0.5077408	-0.11531472	-2.4274325
1276880925878	6.510526	-7.4639506	-1.1849703	0.16840172	0.0	-23.8125	44.4375	-13.1875	0.5367707	-0.11907458	-2.424315
1276880925918	6.5922484	-7.4639506	-1.2666923	0.23191643	0.0	-23.5625	44.6875	-12.9375	0.5596924	-0.12651986	-2.4181306
1276880925978	6.5513873	-7.5456724	-1.3756552	0.2804842	0.0	-23.5625	44.4375	-12.9375	0.526796	-0.13680352	-2.4266093
1276880926018	6.510526	-7.4639506	-1.3756552	0.1928463	0.0	-23.5625	44.1875	-12.9375	0.5242052	-0.13801014	-2.424315
1276880926058	6.4424243	-7.4639506	-1.2258313	0.12904549	0.0	-23.8125	44.1875	-13.4375	0.5101893	-0.123691656	-2.4295201
1276880926098	6.510526	-7.43671	-1.1441092	0.14325333	0.0	-23.8125	43.9375	-13.9375	0.515677	-0.115241885	-2.4225035
1276880926128	6.5922484	-7.3141265	-1.1441092	0.10612774	0.0	-23.8125	43.9375	-14.1875	0.5369832	-0.11567541	-2.408058
1276880926168	6.6331096	-7.3549876	-1.1441092	0.16345406	0.0	-24.0625	44.1875	-13.9375	0.5422398	-0.11500735	-2.4077554
1276880926198	6.5513873	-7.43671	-1.2258313	0.17973995	0.0	-23.5625	43.9375	-13.6875	0.526688	-0.12306056	-2.4194014
1276880926228	6.5513873	-7.4639506	-1.2666923	0.20513058	0.0	-23.5625	43.6875	-13.4375	0.5190045	-0.12686019	-2.4212146
1276880926258	6.510526	-7.504812	-1.2258313	0.20393467	0.0	-23.5625	43.9375	-13.1875	0.5235613	-0.12276162	-2.4270184
1276880926298	6.469665	-7.5456724	-1.2258313	0.20815945	0.0	-23.5625	44.1875	-13.6875	0.5072192	-0.12270958	-2.4328177
1276880926368	6.4424243	-7.43671	-1.1441092	0.09882641	0.0	-23.8125	45.1875	-13.4375	0.5455419	-0.11576107	-2.4277112
1276880926408	6.510526	-7.4639506	-1.1441092	0.16363049	0.0	-24.3125	44.6875	-13.6875	0.5201954	-0.11500531	-2.424315
1276880926438	6.5922484	-7.4639506	-1.1849703	0.22193146	0.0	-24.5625	44.6875	-13.1875	0.53216046	-0.118436	-2.4181306
1276880926468	6.510526	-7.504812	-1.2258313	0.20393467	0.0	-24.8125	44.4375	-13.6875	0.48511517	-0.12276162	-2.4270184
1276880926508	6.4015636	-7.5865335	-1.2666923	0.2003479	0.0	-24.3125	44.1875	-13.9375	0.45856032	-0.12692115	-2.4407055
1276880926548	6.4424243	-7.6273947	-1.2258313	0.25240707	0.0	-23.8125	44.1875	-13.6875	0.48528704	-0.1221671	-2.440217
1276880926588	6.469665	-7.4639506	-1.1849703	0.14178085	0.0	-23.3125	44.1875	-14.1875	0.5178093	-0.119394735	-2.4274325
1276880926628	6.510526	-7.504812	-1.1849703	0.19901371	0.0	-23.3125	43.9375	-13.9375	0.51892745	-0.11870855	-2.4270184
1276880926668	6.5513873	-7.4639506	-1.2258313	0.20004272	0.0	-23.8125	43.6875	-14.1875	0.49930766	-0.12280962	-2.4212143
1276880926698	6.5513873	-7.43671	-1.1441092	0.17003822	0.0	-23.5625	43.9375	-14.1875	0.52407455	-0.114931114	-2.4194014
1276880926758	6.510526	-7.4639506	-1.1441092	0.16363049	0.0	-23.8125	44.1875	-12.9375	0.5411877	-0.11500531	-2.424315
1276880926798	6.469665	-7.504812	-1.2258313	0.17740917	0.0	-24.3125	44.4375	-12.6875	0.5163234	-0.123089425	-2.4301336
1276880926828	6.469665	-7.504812	-1.1441092	0.16770458	0.0	-24.5625	44.4375	-12.9375	0.51138127	-0.11495813	-2.4301336
1276880926868	6.469665	-7.5456724	-1.1849703	0.20323944	0.0	-24.3125	44.1875	-13.6875	0.48751196	-0.1186582	-2.4328177
1276880926908	6.469665	-7.5456724	-1.1441092	0.19848442	0.0	-24.0625	44.1875	-13.9375	0.49430096	-0.11460291	-2.4328177
1276880926948	6.5513873	-7.4639506	-1.1849703	0.1951189	0.0	-23.8125	43.9375	-13.9375	0.5145423	-0.118755005	-2.4212143
1276880927028	6.5922484	-7.4639506	-1.1849703	0.22193146	0.0	-24.0625	43.9375	-13.4375	0.52413034	-0.118436	-2.4181306
1276880927068	6.5922484	-7.3958488	-1.1849703	0.17134953	0.0	-24.3125	44.1875	-13.1875	0.5362509	-0.11903924	-2.4135804
1276880927108	6.5922484	-7.43671	-1.1441092	0.19691753	0.0	-24.3125	44.6875	-13.6875	0.53619623	-0.11462094	-2.416316
1276880927148	6.510526	-7.3549876	-1.1441092	0.08232212	0.0	-24.0625	44.6875	-13.4375	0.5467037	-0.115955144	-2.4170232
1276880927188	6.510526	-7.43671	-1.3075534	0.16337013	0.0	-24.3125	44.9375	-12.9375	0.5286105	-0.13152741	-2.4225035
1276880927218	6.510526	-7.5865335	-1.4165162	0.29032803	0.0	-24.0625	44.4375	-12.9375	0.4959216	-0.14075541	-2.4323752
1276880927248	6.5513873	-7.5456724	-1.4165162	0.28613758	0.0	-24.0625	43.9375	-12.375	0.5075798	-0.14081424	-2.4266093
1276880927288	6.5513873	-7.43671	-1.3075534	0.19010067	0.0	-24.0625	43.6875	-12.6875	0.5190097	-0.13117369	-2.4194014
1276880927318	6.5513873	-7.3958488	-1.1849703	0.1444006	0.0	-24.0625	43.4375	-12.9375	0.52528286	-0.11936315	-2.4166675
1276880927348	6.5513873	-7.3958488	-1.1441092	0.13961697	0.0	-24.3125	43.6875	-13.4375	0.51645404	-0.1152842	-2.4166675
1276880927388	6.510526	-7.3958488	-1.1849703	0.11754608	0.0	-24.0625	44.1875	-13.1875	0.5312326	-0.11968769	-2.4197717
1276880927428	6.510526	-7.504812	-1.2258313	0.20393467	0.0	-23.5625	44.4375	-14.1875	0.51334256	-0.12276162	-2.4270184
1276880927468	6.5513873	-7.504812	-1.3075534	0.2408657	0.0	-23.5625	44.1875	-14.1875	0.5058524	-0.13050714	-2.4239202
1276880927508	6.5513873	-7.3958488	-1.2666923	0.15446281	0.0	-23.3125	44.1875	-13.9375	0.5349433	-0.12750897	-2.4166675
1276880927548	6.6331096	-7.4639506	-1.1849703	0.24883842	0.0	-23.0625	43.9375	-14.1875	0.54373676	-0.11811759	-2.4150636
1276880927588	6.5922484	-7.3958488	-1.1441092	0.16657925	0.0	-23.8125	44.4375	-12.9375	0.5680837	-0.114971146	-2.4135804
1276880927628	6.6331096	-7.43671	-1.1441092	0.22389221	0.0	-24.0625	44.6875	-12.375	0.5817295	-0.11431134	-2.4132478
1276880927668	6.66035	-7.3958488	-1.1168685	0.20864964	0.0	-24.5625	44.6875	-12.375	0.57874876	-0.111748666	-2.4084725
1276880927698	6.6331096	-7.3958488	-1.1441092	0.19363499	0.0	-24.8125	44.9375	-12.6875	0.5616403	-0.11465872	-2.4105098
1276880927728	6.6331096	-7.3141265	-1.1849703	0.138134	0.0	-24.8125	44.1875	-13.4375	0.5314826	-0.11943873	-2.4049838
1276880927768	6.5513873	-7.3549876	-1.2258313	0.11903286	0.0	-25.125	43.9375	-14.4375	0.47305775	-0.12381707	-2.4139168
1276880927808	6.5922484	-7.4639506	-1.2666923	0.23191643	0.0	-25.125	43.9375	-14.4375	0.47305775	-0.12381707	-2.4139168
1276880927838	6.5922484	-7.43671	-1.2666923	0.21167755	0.0	-25.375	43.6875	-14.1875	0.45668244	-0.12677683	-2.416316
1276880927868	6.5922484	-7.3958488	-1.1849703	0.17134953	0.0	-25.125	43.9375	-13.6875	0.49374953	-0.11903924	-2.4135804
1276880927918	6.6331096	-7.3549876	-1.1849703	0.16822529	0.0	-24.5625	43.9375	-12.6875	0.54554576	-0.1190767	-2.4077554
1276880927998	6.5513873	-7.43671	-1.3075534	0.19010067	0.0	-23.0625	44.4375	-12.375	0.5750064	-0.13117369	-2.4194014
1276880928038	6.5922484	-7.43671	-1.334794	0.2205162	0.0	-22.5625	44.6875	-12.9375	0.5849457	-0.13351409	-2.416316
1276880928078	6.6331096	-7.43671	-1.2666923	0.23861217	0.0	-22.8125	44.9375	-13.1875	0.59053063	-0.12643506	-2.4132476
1276880928118	6.6331096	-7.3549876	-1.3075534	0.1835289	0.0	-23.5625	45.1875	-13.4375	0.57312876	-0.13126047	-2.4077554
1276880928158	6.5922484	-7.3958488	-1.2258313	0.17628479	0.0	-23.5625	44.6875	-13.6875	0.55462015	-0.12310336	-2.4135802
1276880928188	6.5922484	-7.3549876	-1.2666923	0.15116596	0.0	-24.0625	44.6875	-12.6875	0.5631598	-0.12755142	-2.4108276
1276880928218	6.5922484	-7.3958488	-1.3075534	0.18664837	0.0	-23.5625	45.1875	-13.1875	0.5683234	-0.13121927	-2.4135802
1276880928249	6.6331096	-7.4639506	-1.3075534	0.26401997	0.0	-23.5625	45.1875	-13.4375	0.56100225	-0.13020538	-2.4150636
1276880928278	6.6331096	-7.3958488	-1.2666923	0.20839977	0.0	-23.8125	44.9375	-13.1875	0.5659752	-0.12681854	-2.4105098
1276880928318	6.5922484	-7.3958488	-1.2666923	0.18138409	0.0	-23.8125	44.6875	-13.4375	0.5485355	-0.12716343	-2.4135802
1276880928348	6.5513873	-7.43671	-1.3075534	0.19010067	0.0	-24.3125	44.1875	-12.9375	0.51748055	-0.13117369	-2.4194014
1276880928388	6.5922484	-7.3958488	-1.3075534	0.18664837	0.0	-24.5625	43.9375	-12.375	0.5277575	-0.13121927	-2.4135802
1276880928428	6.5922484	-7.3958488	-1.2666923	0.18138409	0.0	-24.5625	44.4375	-11.875	0.55642736	-0.12716343	-2.4135802
1276880928458	6.6331096	-7.3958488	-1.2666923	0.20839977	0.0	-24.3125	44.6875	-12.125	0.57058096	-0.12681854	-2.4105098
1276880928498	6.5922484	-7.43671	-1.3075534	0.21692657	0.0	-23.8125	44.9375	-12.9375	0.55648315	-0.13082062	-2.416316
1276880928538	6.5513873	-7.43671	-1.3075534	0.19010067	0.0	-23.5625	44.6875	-12.6875	0.55797297	-0.13117369	-2.4194014
1276880928578	6.5922484	-7.43671	-1.2258313	0.20659351	0.0	-23.5625	44.6875	-13.1875	0.56146353	-0.12272886	-2.416316
1276880928618	6.510526	-7.4639506	-1.1849703	0.16840172	0.0	-23.8125	44.1875	-13.1875	0.5308521	-0.11907458	-2.424315
1276880928658	6.469665	-7.504812	-1.1849703	0.17247391	0.0	-24.3125	43.6875	-13.1875	0.4910388	-0.11902576	-2.4301336
1276880928688	6.510526	-7.43671	-1.2258313	0.15298176	0.0	-24.3125	43.9375	-13.6875	0.49718723	-0.123392865	-2.4225035
1276880928718	6.6331096	-7.43671	-1.2666923	0.23861217	0.0	-24.0625	43.6875	-13.6875	0.51378626	-0.12643506	-2.4132476
1276880928788	6.510526	-7.5456724	-1.2666923	0.23967457	0.0	-23.8125	44.9375	-13.9375	0.5136484	-0.12642163	-2.4297051
1276880928818	6.510526	-7.5865335	-1.3075534	0.27561855	0.0	-23.8125	44.9375	-14.1875	0.49979225	-0.13005473	-2.4323752
1276880928848	6.469665	-7.43671	-1.2258313	0.12631989	0.0	-24.0625	44.6875	-13.9375	0.5108576	-0.12372577	-2.4256225
1276880928888	6.5513873	-7.43671	-1.1441092	0.17003822	0.0	-23.8125	44.4375	-13.4375	0.54505336	-0.114931114	-2.4194014
1276880928958	6.5922484	-7.43671	-1.2666923	0.21167755	0.0	-24.3125	43.9375	-12.375	0.5351885	-0.12677683	-2.416316
1276880928988	6.5513873	-7.4639506	-1.1849703	0.1951189	0.0	-24.3125	44.1875	-12.6875	0.5330968	-0.118755005	-2.4212143
1276880929038	6.510526	-7.4639506	-1.1441092	0.16363049	0.0	-24.5625	44.4375	-12.6875	0.5291144	-0.11500531	-2.424315
1276880929078	6.510526	-7.43671	-1.2258313	0.15298176	0.0	-23.8125	44.4375	-12.6875	0.5471874	-0.123392865	-2.4225035
1276880929108	6.5922484	-7.3958488	-1.2258313	0.17628479	0.0	-23.8125	44.4375	-13.1875	0.55295306	-0.12310336	-2.4135802
1276880929138	6.5922484	-7.43671	-1.3075534	0.21692657	0.0	-23.8125	44.6875	-13.6875	0.53406465	-0.13082062	-2.416316
1276880929178	6.6331096	-7.43671	-1.2666923	0.23861217	0.0	-24.0625	44.4375	-13.6875	0.5312267	-0.12643506	-2.4132476
1276880929208	6.5922484	-7.3958488	-1.2258313	0.17628479	0.0	-24.5625	44.6875	-13.4375	0.53034526	-0.12310336	-2.4135802
1276880929238	6.5922484	-7.3549876	-1.1849703	0.14109993	0.0	-24.0625	44.9375	-13.1875	0.5662886	-0.119402945	-2.4108276
1276880929318	6.6331096	-7.3958488	-1.2258313	0.20331383	0.0	-23.8125	44.9375	-13.4375	0.56465507	-0.12276928	-2.4105098
1276880929348	6.5922484	-7.43671	-1.1849703	0.20167351	0.0	-23.8125	44.6875	-13.9375	0.5412588	-0.118676856	-2.416316
1276880929378	6.5513873	-7.504812	-1.2258313	0.23055744	0.0	-24.3125	44.4375	-13.6875	0.5072778	-0.12243437	-2.4239202
1276880929418	6.5513873	-7.3958488	-1.1441092	0.13961697	0.0	-23.8125	44.4375	-13.1875	0.555782	-0.1152842	-2.4166675
1276880929448	6.6331096	-7.3958488	-1.2666923	0.20839977	0.0	-23.8125	43.9375	-12.9375	0.5488918	-0.12681854	-2.4105098
1276880929488	6.5922484	-7.43671	-1.2666923	0.21167755	0.0	-23.8125	43.9375	-12.6875	0.5436431	-0.12677683	-2.416316
1276880929528	6.66035	-7.3549876	-1.2666923	0.19637966	0.0	-23.3125	44.4375	-12.9375	0.5840002	-0.12697175	-2.4057167
1276880929568	6.701211	-7.273266	-1.1849703	0.1538105	0.0	-23.8125	44.6875	-13.1875	0.5935381	-0.11924984	-2.3971074
1276880929608	6.701211	-7.3549876	-1.1849703	0.21364021	0.0	-23.8125	45.1875	-12.9375	0.601544	-0.11853447	-2.4026725
1276880929648	6.6331096	-7.3549876	-1.2666923	0.17826271	0.0	-23.8125	44.6875	-12.6875	0.57686675	-0.12720338	-2.4077554
1276880929688	6.66035	-7.3958488	-1.3075534	0.2317028	0.0	-24.3125	44.1875	-12.9375	0.5392494	-0.13062695	-2.4084723
1276880929728	6.6331096	-7.3958488	-1.3075534	0.21364975	0.0	-24.5625	44.4375	-13.1875	0.527724	-0.13086365	-2.4105098
1276880929758	6.5922484	-7.43671	-1.2258313	0.20659351	0.0	-24.5625	44.6875	-13.1875	0.53103244	-0.12272886	-2.416316
1276880929798	6.5922484	-7.43671	-1.2666923	0.21167755	0.0	-24.5625	45.1875	-13.1875	0.5382949	-0.12677683	-2.416316
1276880929828	6.5922484	-7.3958488	-1.2666923	0.18138409	0.0	-24.0625	45.4375	-12.9375	0.5695051	-0.12716343	-2.4135802
1276880929858	6.6331096	-7.3958488	-1.3075534	0.21364975	0.0	-23.8125	44.6875	-12.9375	0.56168926	-0.13086365	-2.4105098
1276880929898	6.66035	-7.3958488	-1.3075534	0.2317028	0.0	-24.3125	44.1875	-12.9375	0.5392494	-0.13062695	-2.4084723
1276880929938	6.5922484	-7.5456724	-1.2666923	0.2928257	0.0	-24.5625	44.4375	-13.1875	0.50760084	-0.12575276	-2.4235299
1276880929978	6.469665	-7.43671	-1.2258313	0.12631989	0.0	-25.125	44.4375	-13.4375	0.4822179	-0.12372577	-2.4256225
1276880930008	6.510526	-7.3549876	-1.2258313	0.092110634	0.0	-25.125	44.4375	-12.9375	0.5100448	-0.12415556	-2.4170232
1276880930048	6.6331096	-7.5865335	-1.2666923	0.35002995	0.0	-24.8125	44.4375	-13.1875	0.5011915	-0.12504077	-2.423144
1276880930085	6.4015636	-7.5865335	-1.1849703	0.19033241	0.0	-24.8125	44.1875	-12.9375	0.47044775	-0.11881213	-2.4407055
1276880930118	6.4015636	-7.504812	-1.1849703	0.12845802	0.0	-24.3125	43.9375	-12.9375	0.49145448	-0.11955561	-2.4353626
1276880930148	6.6331096	-7.5456724	-1.2258313	0.3145151	0.0	-24.3125	44.4375	-12.9375	0.5318459	-0.12141371	-2.420467
1276880930178	6.6331096	-7.504812	-1.1849703	0.27920628	0.0	-24.5625	44.6875	-12.6875	0.54532015	-0.11776029	-2.4177735
1276880930208	6.510526	-7.43671	-1.2258313	0.15298176	0.0	-24.0625	44.9375	-12.9375	0.5452433	-0.123392865	-2.4225035
1276880930248	6.5513873	-7.3958488	-1.334794	0.16335106	0.0	-24.3125	44.9375	-13.1875	0.5314157	-0.13428424	-2.4166675
1276880930278	6.66035	-7.5456724	-1.3756552	0.3515911	0.0	-23.8125	44.4375	-13.1875	0.53017616	-0.13583995	-2.4184341
1276880930318	6.510526	-7.504812	-1.1849703	0.19901371	0.0	-23.5625	44.1875	-12.9375	0.5396539	-0.11870855	-2.4270184
1276880930358	6.2789803	-7.3549876	-1.0760075	-0.07632446	0.0	-23.8125	44.1875	-13.1875	0.51872	-0.11080951	-2.4349523
1276880930388	6.5922484	-7.5865335	-1.334794	0.33213234	0.0	-23.8125	44.1875	-12.375	0.53171486	-0.1320356	-2.4262047
1276880930428	6.973618	-7.273266	-1.3756552	0.36311722	0.0	-24.0625	44.6875	-12.375	0.62287164	-0.13568504	-2.377224
1276880930458	7.1234417	-7.014479	-1.2258313	0.26553917	0.0	-23.8125	44.6875	-12.6875	0.6863291	-0.12200702	-2.3484876
1276880930498	7.1234417	-7.1234417	-1.1441092	0.33217812	0.0	-23.5625	44.4375	-11.875	0.7085093	-0.113085195	-2.3561945
1276880930538	6.932757	-7.082581	-1.2666923	0.18487549	0.0	-23.5625	44.1875	-12.375	0.65370625	-0.12711875	-2.3668842
1276880930578	7.014479	-6.932757	-1.2258313	0.1315937	0.0	-23.5625	43.9375	-12.375	0.6801227	-0.12365978	-2.3503351
1276880930618	7.1234417	-6.891896	-1.2666923	0.18565464	0.0	-23.3125	43.9375	-12.125	0.70601356	-0.12710877	-2.3396752
1276880930658	7.0553403	-7.014479	-1.3756552	0.23691368	0.0	-23.5625	43.6875	-12.375	0.6534561	-0.13740075	-2.3532903
1276880930688	6.742072	-7.164303	-1.3075534	0.117687225	0.0	-23.3125	43.9375	-12.6875	0.60737735	-0.1321364	-2.3865476
1276880930718	6.5513873	-7.3549876	-1.1849703	0.114068985	0.0	-23.8125	43.9375	-13.1875	0.5443323	-0.11972985	-2.4139168
1276880930748	6.510526	-7.4639506	-1.1441092	0.16363049	0.0	-24.0625	43.6875	-13.1875	0.5151833	-0.11500531	-2.424315
1276880930778	6.510526	-7.4639506	-1.1849703	0.16840172	0.0	-24.0625	43.4375	-13.4375	0.49918333	-0.11907458	-2.424315
1276880930818	6.469665	-7.5456724	-1.0760075	0.1909256	0.0	-24.3125	43.1875	-13.1875	0.48446754	-0.10783572	-2.4328177
1276880930848	6.4424243	-7.6273947	-1.1441092	0.24277592	0.0	-24.3125	43.4375	-13.4375	0.46356884	-0.114095606	-2.440217
1276880930888	6.3607025	-7.7363577	-1.1441092	0.27396202	0.0	-24.5625	43.6875	-14.1875	0.41900373	-0.11374109	-2.453471
1276880930928	6.2789803	-7.6546354	-1.1849703	0.16446781	0.0	-25.125	43.6875	-14.6875	0.38407645	-0.11912178	-2.4546049
1276880930968	6.238119	-7.6546354	-1.1441092	0.13400173	0.0	-25.375	43.9375	-14.6875	0.37815496	-0.11534961	-2.4578042
1276880931008	6.238119	-7.6273947	-1.1168685	0.10993576	0.0	-25.625	43.6875	-14.1875	0.37739828	-0.11286579	-2.4560578
1276880931078	6.2789803	-7.6273947	-1.1441092	0.13878727	0.0	-25.625	43.6875	-13.4375	0.39582565	-0.11529386	-2.452856
1276880931108	6.5513873	-7.6546354	-1.3756552	0.36225128	0.0	-25.375	44.1875	-12.9375	0.4495831	-0.13569666	-2.4336994
1276880931148	6.742072	-7.6954966	-1.525479	0.53759	0.0	-25.625	44.1875	-12.9375	0.45370933	-0.14801116	-2.4221365
1276880931188	6.5513873	-7.6273947	-1.4982382	0.3591032	0.0	-25.375	43.9375	-13.1875	0.43108824	-0.14791976	-2.431938
1276880931218	6.469665	-7.3549876	-1.2258313	0.065283775	0.0	-25.875	43.6875	-13.4375	0.4496909	-0.12449471	-2.4201465
1276880931248	6.5513873	-7.273266	-1.1168685	0.045682907	0.0	-25.875	43.1875	-13.6875	0.46691746	-0.11360502	-2.4083638
1276880931278	6.66035	-7.273266	-1.1168685	0.1184721	0.0	-25.375	43.1875	-13.4375	0.5059734	-0.1127683	-2.4001544
1276880931318	6.66035	-7.273266	-1.2258313	0.13132286	0.0	-25.625	43.4375	-13.4375	0.49312827	-0.12366317	-2.4001544
1276880931348	6.701211	-7.43671	-1.3075534	0.28892136	0.0	-25.125	43.9375	-13.4375	0.49877813	-0.1298824	-2.4081707
1276880931378	6.701211	-7.5865335	-1.2666923	0.3946352	0.0	-25.125	44.4375	-12.9375	0.5075405	-0.124491185	-2.4180791
1276880931418	6.742072	-7.3958488	-1.3075534	0.28610992	0.0	-25.375	43.9375	-13.4375	0.50235957	-0.12991877	-2.4024043
1276880931458	6.851035	-7.164303	-1.3756552	0.20116425	0.0	-25.375	43.9375	-12.9375	0.55060226	-0.13789469	-2.3785427
1276880931498	6.891896	-7.205164	-1.4165162	0.2640562	0.0	-25.125	43.6875	-13.1875	0.543274	-0.14112507	-2.378413
1276880931538	6.932757	-7.164303	-1.4165162	0.2629509	0.0	-25.125	43.9375	-13.1875	0.55954427	-0.14114067	-2.3726182
1276880931578	6.932757	-7.082581	-1.3756552	0.19927311	0.0	-24.8125	44.1875	-12.6875	0.5992115	-0.13792092	-2.3668842
1276880931618	6.932757	-6.932757	-1.2258313	0.07408333	0.0	-24.5625	44.4375	-12.9375	0.63962024	-0.12438326	-2.3561945
1276880931658	7.014479	-6.932757	-1.3756552	0.15118408	0.0	-24.5625	44.1875	-12.125	0.64781773	-0.13859126	-2.3503351
1276880931688	7.014479	-7.04172	-1.3756552	0.22735023	0.0	-24.5625	43.9375	-12.125	0.63016844	-0.13753253	-2.3581326
1276880931718	6.973618	-7.164303	-1.3075534	0.2764187	0.0	-25.125	44.1875	-12.125	0.6083916	-0.13004434	-2.3696811
1276880931748	6.782933	-7.246025	-1.2666923	0.19922638	0.0	-24.8125	43.9375	-11.875	0.58495545	-0.12693542	-2.389192
1276880931778	6.5922484	-7.3549876	-1.2258313	0.14605045	0.0	-25.625	44.1875	-12.375	0.51395136	-0.12347924	-2.4108276
1276880931818	6.4424243	-7.4639506	-1.2258313	0.12904549	0.0	-25.625	44.1875	-12.6875	0.4671456	-0.123691656	-2.4295201
1276880931848	6.4424243	-7.504812	-1.2666923	0.16488647	0.0	-25.625	43.6875	-12.9375	0.4396042	-0.12737496	-2.4322195
1276880931888	6.5513873	-7.43671	-1.334794	0.19369984	0.0	-25.875	43.6875	-12.9375	0.45221317	-0.13387427	-2.4194014
1276880931928	6.5922484	-7.4639506	-1.4165162	0.25191975	0.0	-25.375	43.1875	-13.4375	0.44192326	-0.14129648	-2.4181306
1276880931968	6.469665	-7.5865335	-1.334794	0.25286007	0.0	-25.375	42.9375	-13.6875	0.4025783	-0.13308224	-2.4354854
1276880932008	6.4424243	-7.5456724	-1.334794	0.20452785	0.0	-25.375	43.1875	-13.6875	0.4095999	-0.13372861	-2.4349022
1276880932048	6.5922484	-7.3958488	-1.334794	0.19024944	0.0	-25.625	43.4375	-13.9375	0.44643217	-0.13392074	-2.4135802
1276880932088	6.932757	-7.246025	-1.4165162	0.3212576	0.0	-26.125	43.9375	-13.4375	0.5159474	-0.14032272	-2.378285
1276880932128	6.932757	-7.246025	-1.2258313	0.2963524	0.0	-26.375	43.9375	-12.9375	0.5393911	-0.12163307	-2.3782852
1276880932168	7.0553403	-7.246025	-1.1441092	0.3713503	0.0	-26.375	44.4375	-12.375	0.59341836	-0.112648115	-2.369527
1276880932198	6.932757	-7.014479	-1.1168685	0.11874294	0.0	-26.125	44.1875	-12.125	0.6154598	-0.11276521	-2.3620539
1276880932228	6.742072	-6.932757	-1.0760075	-0.07646847	0.0	-25.625	43.9375	-12.125	0.61092335	-0.11081116	-2.370138
1276880932261	6.5513873	-7.1234417	-1.2666923	-0.04608631	0.0	-25.625	43.9375	-11.875	0.5383222	-0.13014363	-2.3980029
1276880932298	6.469665	-7.504812	-1.4982382	0.21450233	0.0	-25.625	43.4375	-12.375	0.42741954	-0.15007022	-2.4301336
1276880932328	6.3607025	-7.7772183	-1.4573772	0.34557152	0.0	-25.375	43.1875	-12.375	0.3786589	-0.14405021	-2.456054
1276880932358	6.1291566	-7.9270425	-1.2258313	0.28826046	0.0	-25.375	43.1875	-12.9375	0.3241725	-0.12173105	-2.4834106
1276880932388	6.1291566	-7.9270425	-1.0760075	0.2711649	0.0	-25.125	43.6875	-13.1875	0.35544142	-0.10697383	-2.4834108
1276880932428	6.2108784	-7.9679036	-1.0760075	0.35308838	0.0	-24.8125	43.9375	-13.1875	0.3843765	-0.10610797	-2.4794853
1276880932458	6.4424243	-7.7363577	-1.1168685	0.3226862	0.0	-25.125	43.9375	-13.1875	0.44226426	-0.11048542	-2.4472008
1276880932498	6.5513873	-7.504812	-1.2258313	0.23055744	0.0	-25.375	43.6875	-12.6875	0.47598398	-0.12243437	-2.4239202
1276880932538	6.891896	-7.4639506	-1.2258313	0.42621136	0.0	-25.375	42.9375	-12.9375	0.5113644	-0.12008198	-2.3960216
1276880932578	6.701211	-7.273266	-1.3756552	0.17829132	0.0	-25.125	42.6875	-12.6875	0.49749658	-0.13821259	-2.3971074
1276880932618	6.8237944	-7.205164	-1.3756552	0.21188164	0.0	-24.8125	42.9375	-12.375	0.5474379	-0.13774624	-2.3833723
1276880932658	6.8237944	-6.782933	-1.3075534	-0.09675598	0.0	-24.3125	43.4375	-12.125	0.63730264	-0.13507232	-2.3531914
1276880932688	6.973618	-6.701211	-1.3075534	-0.047179222	0.0	-23.8125	44.1875	-11.375	0.7155078	-0.134382	-2.3362768
1276880932718	7.205164	-6.782933	-1.4573772	0.19567585	0.0	-23.0625	44.1875	-11.625	0.7280062	-0.14622436	-2.3260186
1276880932748	7.273266	-6.782933	-1.525479	0.2549429	0.0	-22.8125	44.6875	-11.875	0.73640954	-0.152201	-2.3213248
1276880932778	7.082581	-6.973618	-1.4165162	0.2333107	0.0	-22.5625	44.6875	-11.875	0.7148511	-0.14156014	-2.3484428
1276880932818	6.932757	-7.164303	-1.3756552	0.25728416	0.0	-22.5625	44.1875	-12.375	0.65888745	-0.13712087	-2.3726182
1276880932848	6.5922484	-7.3958488	-1.2666923	0.18138409	0.0	-23.0625	44.6875	-11.875	0.6088266	-0.12716343	-2.4135802
1276880932888	6.5513873	-7.4639506	-1.1849703	0.1951189	0.0	-22.5625	44.6875	-11.625	0.62692714	-0.118755005	-2.4212143
1276880932928	6.5922484	-7.43671	-1.2666923	0.21167755	0.0	-22.5625	45.1875	-11.625	0.6368254	-0.12677683	-2.416316
1276880932968	6.701211	-7.3141265	-1.3075534	0.19896698	0.0	-22.8125	45.4375	-11.625	0.6589122	-0.13105679	-2.3998983
1276880933008	6.6331096	-7.3549876	-1.3075534	0.1835289	0.0	-23.0625	45.4375	-12.125	0.624521	-0.13126047	-2.4077554
1276880933048	6.6331096	-7.43671	-1.334794	0.24742699	0.0	-23.8125	45.1875	-12.6875	0.57106966	-0.13315459	-2.4132476
1276880933088	6.6331096	-7.43671	-1.2666923	0.23861217	0.0	-23.8125	45.1875	-12.9375	0.57276595	-0.12643506	-2.4132476
1276880933128	6.4424243	-7.3958488	-1.2666923	0.083138466	0.0	-24.0625	45.1875	-12.9375	0.5406084	-0.12843361	-2.4249835
1276880933168	6.5922484	-7.43671	-1.334794	0.2205162	0.0	-24.0625	44.9375	-12.9375	0.54602075	-0.13351409	-2.416316
1276880933198	6.510526	-7.4639506	-1.3756552	0.1928463	0.0	-23.8125	44.6875	-12.375	0.5405516	-0.13801014	-2.424315
1276880933238	6.4015636	-7.5865335	-1.3075534	0.20560265	0.0	-24.0625	44.1875	-12.125	0.500934	-0.13096942	-2.4407055
1276880933278	6.4015636	-7.6546354	-1.3075534	0.25730324	0.0	-23.5625	43.9375	-12.125	0.50331825	-0.13029276	-2.4451067
1276880933318	6.3198414	-7.5865335	-1.1849703	0.1381998	0.0	-23.3125	43.9375	-11.625	0.5321021	-0.119437926	-2.447031
1276880933348	6.5513873	-7.43671	-1.2258313	0.17973995	0.0	-23.5625	44.1875	-11.625	0.58203775	-0.12306056	-2.4194014
1276880933378	6.4424243	-7.504812	-1.2666923	0.16488647	0.0	-23.8125	44.1875	-11.875	0.53668505	-0.12737496	-2.4322195
1276880933408	6.510526	-7.504812	-1.2258313	0.20393467	0.0	-24.0625	44.4375	-11.875	0.550563	-0.12276162	-2.4270184
1276880933448	6.510526	-7.5456724	-1.1849703	0.22969818	0.0	-24.3125	44.4375	-12.9375	0.51668507	-0.11834392	-2.4297051
1276880933488	6.4015636	-7.504812	-1.1849703	0.12845802	0.0	-24.0625	43.9375	-13.6875	0.48350304	-0.11955561	-2.4353626
1276880933528	6.469665	-7.504812	-1.2666923	0.18250751	0.0	-24.0625	44.1875	-14.1875	0.48206547	-0.12714905	-2.4301336
1276880933568	6.510526	-7.504812	-1.2258313	0.20393467	0.0	-24.0625	44.4375	-14.1875	0.49811804	-0.12276162	-2.4270184
1276880933608	6.4424243	-7.6273947	-1.2258313	0.25240707	0.0	-24.3125	44.4375	-13.6875	0.4751247	-0.1221671	-2.440217
1276880933808	6.5513873	-7.43671	-1.1849703	0.1748066	0.0	-24.8125	44.6875	-13.6875	0.5101399	-0.11899781	-2.4194014
1276880933838	6.5922484	-7.43671	-1.3075534	0.21692657	0.0	-24.3125	44.4375	-13.4375	0.5187632	-0.13082062	-2.416316
1276880933878	6.5513873	-7.43671	-1.2666923	0.1848383	0.0	-24.5625	44.1875	-13.6875	0.497688	-0.12711923	-2.4194014
1276880933918	6.66035	-7.3958488	-1.2666923	0.22646236	0.0	-24.3125	44.1875	-13.6875	0.5268144	-0.126589	-2.4084723
1276880933958	6.701211	-7.273266	-1.3075534	0.16913605	0.0	-24.3125	43.9375	-13.4375	0.5427175	-0.13145095	-2.3971074
1276880933988	6.742072	-7.273266	-1.2258313	0.18627644	0.0	-24.5625	43.9375	-13.1875	0.55577815	-0.12297965	-2.3940773
1276880934028	6.701211	-7.3141265	-1.2258313	0.1886158	0.0	-24.3125	43.9375	-13.1875	0.55228513	-0.122950725	-2.3998983
1276880934068	6.701211	-7.273266	-1.2666923	0.16386318	0.0	-24.8125	43.6875	-13.1875	0.53181297	-0.1273881	-2.3971074
1276880934108	6.742072	-7.246025	-1.2666923	0.17157269	0.0	-24.5625	44.1875	-13.1875	0.56038463	-0.12728913	-2.3922062
1276880934148	6.742072	-7.273266	-1.3075534	0.19663048	0.0	-24.5625	44.1875	-12.6875	0.56435466	-0.13108757	-2.3940773
1276880934188	6.782933	-7.3141265	-1.3075534	0.2538824	0.0	-24.3125	44.4375	-12.125	0.59248555	-0.13033731	-2.3938577
1276880934228	6.701211	-7.3141265	-1.2666923	0.19370842	0.0	-23.8125	44.9375	-11.875	0.6177626	-0.12700585	-2.3998983
1276880934268	6.701211	-7.3141265	-1.2258313	0.1886158	0.0	-23.8125	44.9375	-11.875	0.6177626	-0.12700585	-2.3998983
1276880934298	6.701211	-7.273266	-1.2258313	0.15875435	0.0	-23.5625	44.6875	-12.125	0.62266284	-0.12332102	-2.3971074
1276880934328	6.782933	-7.273266	-1.3075534	0.22421551	0.0	-24.0625	44.1875	-12.6875	0.5850267	-0.13072501	-2.3910642
1276880934388	6.742072	-7.273266	-1.2666923	0.19137096	0.0	-24.3125	43.9375	-12.375	0.5781102	-0.1270357	-2.3940773
1276880934418	6.701211	-7.3141265	-1.2666923	0.19370842	0.0	-24.8125	44.1875	-12.9375	0.5444755	-0.12700585	-2.3998983
1276880934488	6.782933	-7.273266	-1.2666923	0.21897125	0.0	-24.5625	43.6875	-12.9375	0.55730224	-0.1266841	-2.3910642
1276880934528	6.782933	-7.246025	-1.2666923	0.19922638	0.0	-24.5625	43.9375	-13.1875	0.5605661	-0.12693542	-2.389192
1276880934568	6.701211	-7.3141265	-1.2666923	0.19370842	0.0	-24.5625	43.4375	-12.6875	0.5399037	-0.12700585	-2.3998983
1276880934608	6.6331096	-7.3141265	-1.2258313	0.14308548	0.0	-25.125	43.9375	-12.6875	0.5284021	-0.12351622	-2.4049838
1276880934648	6.6331096	-7.3958488	-1.2258313	0.20331383	0.0	-25.125	44.1875	-12.9375	0.51856875	-0.12276928	-2.4105098
1276880934688	6.701211	-7.3141265	-1.2666923	0.19370842	0.0	-25.375	43.4375	-12.375	0.5216165	-0.12700585	-2.3998983
1276880934758	6.701211	-7.3141265	-1.2258313	0.1886158	0.0	-25.125	44.1875	-12.9375	0.53943825	-0.122950725	-2.3998983
1276880934788	6.701211	-7.3141265	-1.2666923	0.19370842	0.0	-25.125	44.1875	-12.6875	0.54072577	-0.12700585	-2.3998983
1276880934828	6.701211	-7.3141265	-1.3075534	0.19896698	0.0	-24.3125	44.4375	-13.4375	0.54940933	-0.13105679	-2.3998983
1276880934858	6.701211	-7.3141265	-1.2666923	0.19370842	0.0	-24.5625	43.9375	-13.1875	0.54038215	-0.12700585	-2.3998983
1276880934928	6.6331096	-7.3549876	-1.2258313	0.1731615	0.0	-24.3125	43.9375	-13.1875	0.5371029	-0.12314209	-2.4077554
1276880934968	6.742072	-7.3141265	-1.2666923	0.2211361	0.0	-24.0625	43.9375	-13.1875	0.5613106	-0.12665659	-2.3968697
1276880935038	6.66035	-7.3549876	-1.3075534	0.20163631	0.0	-24.5625	44.1875	-12.9375	0.5365014	-0.13102162	-2.4057167
1276880935078	6.701211	-7.273266	-1.2666923	0.16386318	0.0	-24.8125	44.1875	-13.1875	0.5436833	-0.1273881	-2.3971074
1276880935158	6.742072	-7.3141265	-1.3075534	0.2263794	0.0	-25.125	44.1875	-13.1875	0.53125525	-0.13069665	-2.3968697
1276880935198	6.701211	-7.3141265	-1.3075534	0.19896698	0.0	-25.125	43.6875	-12.9375	0.5185557	-0.13105679	-2.3998983
1276880935238	6.742072	-7.3141265	-1.334794	0.22996616	0.0	-25.125	43.1875	-12.9375	0.5098364	-0.13338763	-2.3968697
1276880935268	6.66035	-7.3549876	-1.2666923	0.19637966	0.0	-24.8125	42.6875	-13.1875	0.490882	-0.12697175	-2.4057167
1276880935298	6.6331096	-7.3141265	-1.2666923	0.1482029	0.0	-24.8125	42.6875	-13.1875	0.490882	-0.12697175	-2.4057167
1276880935328	6.66035	-7.3141265	-1.2258313	0.16126633	0.0	-24.8125	43.1875	-13.4375	0.5071079	-0.12328979	-2.402944
1276880935358	6.701211	-7.3141265	-1.1849703	0.18368626	0.0	-24.8125	43.9375	-13.1875	0.5416426	-0.118891545	-2.3998983
1276880935398	6.6331096	-7.3141265	-1.1849703	0.138134	0.0	-25.125	43.9375	-12.9375	0.5271359	-0.11943873	-2.4049838
1276880935428	6.66035	-7.3141265	-1.2258313	0.16126633	0.0	-24.8125	43.9375	-13.1875	0.5309381	-0.12328979	-2.402944
1276880935468	6.701211	-7.3549876	-1.2666923	0.22363281	0.0	-24.5625	43.9375	-12.9375	0.541199	-0.1266249	-2.4026725
1276880935508	6.66035	-7.3549876	-1.3756552	0.21076107	0.0	-24.3125	43.9375	-13.4375	0.520231	-0.13776174	-2.4057167
1276880935548	6.742072	-7.3549876	-1.334794	0.25978184	0.0	-24.5625	44.4375	-13.4375	0.54053926	-0.13299021	-2.3996453
1276880935588	6.6331096	-7.3958488	-1.2666923	0.20839977	0.0	-24.0625	44.4375	-12.9375	0.5529322	-0.12681854	-2.4105098
1276880935628	6.510526	-7.3141265	-1.1849703	0.05679512	0.0	-24.0625	44.1875	-13.1875	0.5411339	-0.12042845	-2.4142573
1276880935668	6.5922484	-7.3549876	-1.1441092	0.13631535	0.0	-24.0625	43.9375	-12.6875	0.5594712	-0.11532265	-2.4108276
1276880935698	6.701211	-7.3958488	-1.3075534	0.2588606	0.0	-24.3125	43.4375	-12.125	0.54660076	-0.1302725	-2.40543
1276880935738	6.742072	-7.3549876	-1.4573772	0.27676773	0.0	-24.8125	43.4375	-12.375	0.52050084	-0.14504005	-2.3996453
1276880935768	6.66035	-7.43671	-1.3756552	0.270916	0.0	-24.5625	43.6875	-11.875	0.53173345	-0.13693424	-2.4112115
1276880935798	6.6331096	-7.43671	-1.3756552	0.2529335	0.0	-25.125	43.4375	-12.125	0.49713743	-0.13718057	-2.4132478
1276880935828	6.6331096	-7.3958488	-1.2666923	0.20839977	0.0	-24.8125	43.6875	-12.9375	0.51183116	-0.12681854	-2.4105098
1276880935858	6.5922484	-7.3141265	-1.1849703	0.11092663	0.0	-25.125	43.6875	-13.1875	0.50874853	-0.119767964	-2.408058
1276880935898	6.6331096	-7.3141265	-1.2258313	0.14308548	0.0	-25.625	43.4375	-13.6875	0.47836542	-0.12351622	-2.4049838
1276880935938	6.701211	-7.273266	-1.3075534	0.16913605	0.0	-25.125	43.6875	-13.4375	0.5126619	-0.13145095	-2.3971074
1276880935978	6.742072	-7.246025	-1.334794	0.18044662	0.0	-25.125	43.6875	-13.4375	0.5126619	-0.13145095	-2.3971074
1276880936018	6.66035	-7.3958488	-1.334794	0.23528767	0.0	-24.8125	43.9375	-12.9375	0.5151022	-0.13331653	-2.4084723
1276880936058	6.6331096	-7.43671	-1.334794	0.24742699	0.0	-25.125	44.1875	-13.4375	0.49152926	-0.13315459	-2.4132476
1276880936098	6.701211	-7.3141265	-1.3075534	0.19896698	0.0	-25.375	43.9375	-13.6875	0.50083834	-0.13105679	-2.3998983
1276880936138	6.66035	-7.3141265	-1.2666923	0.1663742	0.0	-25.375	43.9375	-13.6875	0.50083834	-0.13105679	-2.3998983
1276880936188	6.701211	-7.504812	-1.4165162	0.35380936	0.0	-25.125	43.4375	-14.1875	0.45366916	-0.1398702	-2.4127018
1276880936228	6.5513873	-7.6546354	-1.334794	0.3568039	0.0	-25.125	43.1875	-13.6875	0.42214918	-0.13171323	-2.4336996
1276880936268	6.5922484	-7.3958488	-0.9125633	0.14267635	0.0	-24.8125	43.6875	-13.6875	0.526742	-0.09185021	-2.4135802
1276880936298	6.4424243	-7.3141265	-0.9942854	-0.0092077255	0.0	-24.5625	43.6875	-13.6875	0.5118465	-0.10165919	-2.4194763
1276880936328	6.5513873	-7.4639506	-1.1168685	0.1872797	0.0	-24.8125	43.9375	-13.1875	0.50666034	-0.11198862	-2.4212146
1276880936358	6.3607025	-7.6546354	-1.1441092	0.21138191	0.0	-24.8125	44.1875	-13.4375	0.44823128	-0.11445472	-2.448256
1276880936398	6.238119	-7.6546354	-1.1441092	0.13400173	0.0	-24.5625	43.6875	-13.4375	0.42259482	-0.11534961	-2.4578042
1276880936428	6.4015636	-7.7363577	-1.3075534	0.3196001	0.0	-24.5625	43.9375	-13.9375	0.42246446	-0.12948668	-2.4503279
1276880936458	6.742072	-7.5456724	-1.3075534	0.39640808	0.0	-24.3125	44.1875	-14.1875	0.5069249	-0.12850648	-2.4123793
1276880936498	7.082581	-7.1234417	-1.1441092	0.30351067	0.0	-23.8125	44.1875	-14.1875	0.6306791	-0.113407224	-2.3590708
1276880936538	7.3549876	-6.8237944	-1.1168685	0.28827	0.0	-24.3125	44.4375	-13.9375	0.69681203	-0.11086364	-2.318748
1276880936578	7.3549876	-6.510526	-1.1441092	0.08232212	0.0	-24.0625	44.1875	-12.9375	0.75197476	-0.115955144	-2.2953658
1276880936608	7.205164	-6.510526	-1.2258313	-0.018698692	0.0	-23.8125	44.4375	-12.9375	0.7358909	-0.12556851	-2.3055923
1276880936648	7.014479	-6.851035	-1.1849703	0.069773674	0.0	-24.0625	44.1875	-12.9375	0.6716996	-0.120269425	-2.3444073
1276880936688	6.891896	-7.082581	-1.2258313	0.15145397	0.0	-24.0625	43.9375	-13.6875	0.60133547	-0.12341189	-2.369839
1276880936728	6.66035	-7.3549876	-1.2258313	0.191288	0.0	-24.8125	43.9375	-14.1875	0.50424504	-0.1229177	-2.4057167
1276880936768	6.4424243	-7.5865335	-1.0351465	0.19993973	0.0	-25.375	43.4375	-14.4375	0.42314667	-0.10363187	-2.4375677
1276880936799	6.2789803	-7.7772183	-0.9125633	0.2304554	0.0	-25.625	43.6875	-14.4375	0.3774439	-0.0910447	-2.4623828
1276880936838	6.4015636	-7.7363577	-0.88532263	0.27377892	0.0	-25.875	43.6875	-13.6875	0.41352254	-0.08793919	-2.4503279
1276880936868	6.5922484	-7.5456724	-1.0351465	0.2664051	0.0	-25.875	43.6875	-13.6875	0.41352254	-0.08793919	-2.4503279
1276880936908	6.6331096	-7.43671	-1.1168685	0.22082138	0.0	-26.125	43.9375	-13.1875	0.4807292	-0.111612454	-2.4132476
1276880936948	6.701211	-7.3549876	-1.1849703	0.21364021	0.0	-25.375	43.6875	-13.1875	0.5129952	-0.11853447	-2.4026725
1276880936988	6.701211	-7.3549876	-1.1168685	0.20581532	0.0	-25.125	43.6875	-13.9375	0.5112827	-0.11178044	-2.4026725
1276880937028	6.6331096	-7.43671	-1.0760075	0.21635246	0.0	-24.8125	43.4375	-13.9375	0.49825233	-0.10756109	-2.4132478
1276880937068	6.742072	-7.3141265	-1.0760075	0.19883728	0.0	-24.3125	43.6875	-14.4375	0.5398705	-0.10775012	-2.3968697
1276880937098	6.742072	-7.3958488	-1.0351465	0.25444508	0.0	-24.8125	44.1875	-14.6875	0.52604216	-0.10306845	-2.4024043
