#timestamp	accel_x	accel_y	accel_z	accel_mag	temperature	mag_x	mag_y	mag_z	azimuth	pitch	roll
1276887897046	0.0	3.9090397	9.152874	0.1460228	0.0	-1.1875	-37.0	-35.6875	3.0823166	1.1671623	-0.0
1276887897085	0.0	3.9090397	9.234595	0.22122765	0.0	-2.9375	-36.25	-36.1875	2.9903634	1.1703633	-0.0
1276887897116	0.0	3.990762	9.384419	0.39107037	0.0	-2.6875	-36.5	-36.4375	3.0034428	1.1687106	-0.0
1276887897155	0.0	3.9090397	9.302697	0.2839775	0.0	-2.1875	-36.75	-36.4375	3.0313642	1.1729941	-0.0
1276887897186	-0.84446156	3.8681788	9.193735	0.20337963	0.0	-1.9375	-36.75	-36.1875	2.6524901	1.1641498	0.21493761
1276887897226	-0.9125633	3.9090397	9.152874	0.1877718	0.0	-1.4375	-36.5	-35.9375	2.643171	1.157491	0.22934209
1276887897255	-0.9942854	3.9499009	9.152874	0.21160412	0.0	-1.9375	-36.25	-35.9375	2.5806026	1.1520997	0.24660072
1276887897295	-0.95342433	3.9090397	9.112013	0.15419197	0.0	-2.1875	-36.25	-35.9375	2.5851295	1.1549712	0.23923162
1276887897325	-0.7218784	3.8681788	9.084772	0.09370327	0.0	-2.6875	-36.5	-36.4375	2.662813	1.1620529	0.18449742
1276887897365	-0.7218784	3.8273177	9.275456	0.25334835	0.0	-2.1875	-36.75	-36.6875	2.6951263	1.1732497	0.18642205
1276887897406	-0.7627395	3.8273177	9.302697	0.28147697	0.0	-2.1875	-37.0	-36.6875	2.6805122	1.1735845	0.19671111
1276887897445	-0.5720546	3.9090397	9.234595	0.23753166	0.0	-2.4375	-36.75	-36.9375	2.747165	1.1665459	0.14531001
1276887897475	-0.5720546	3.8273177	9.275456	0.24370861	0.0	-1.9375	-36.25	-37.4375	2.7652328	1.1755404	0.14836785
1276887897505	-0.5720546	3.7864566	9.384419	0.3290205	0.0	-2.9375	-36.0	-37.75	2.7163591	1.1833593	0.14994518
1276887897542	-0.6946377	3.7864566	9.275456	0.23595238	0.0	-3.1875	-36.0	-37.4375	2.6461468	1.1773956	0.18143576
1276887897576	-0.7218784	3.8273177	9.275456	0.25334835	0.0	-3.1875	-35.75	-37.4375	2.6292977	1.1732497	0.18642205
1276887897605	-0.5720546	3.8273177	9.302697	0.26885414	0.0	-3.6875	-36.5	-36.9375	2.689918	1.1765815	0.14836785
1276887897636	-0.6537767	3.8273177	9.425281	0.38705826	0.0	-3.1875	-36.25	-36.4375	2.681641	1.1800299	0.16918556
1276887897675	-0.84446156	3.6774938	9.425281	0.34583664	0.0	-2.6875	-36.0	-36.1875	2.619724	1.1900071	0.22571662
1276887897715	-0.7627395	3.7864566	9.275456	0.24089336	0.0	-2.1875	-36.25	-35.9375	2.677641	1.1762124	0.19877869
1276887897755	-0.84446156	3.759216	9.193735	0.1617794	0.0	-1.6875	-36.0	-36.4375	2.6536918	1.1739517	0.22096956
1276887897785	-0.6946377	3.5957718	9.193735	0.08965492	0.0	-1.9375	-36.25	-36.4375	2.7135544	1.1917199	0.1908311
1276887897815	-0.6537767	3.255263	9.384419	0.14782047	0.0	-2.1875	-36.0	-36.6875	2.7207842	1.230735	0.19820008
1276887897855	-0.53119355	3.405087	9.193735	0.0117788315	0.0	-2.9375	-36.0	-36.4375	2.7434502	1.2121572	0.15475269
1276887897895	-0.6537767	3.718355	9.152874	0.094293594	0.0	-2.6875	-35.5	-36.1875	2.689153	1.1795765	0.17404523
1276887897935	-0.38136974	3.405087	8.921328	-0.24996948	0.0	-2.4375	-35.5	-36.1875	2.8287797	1.2041013	0.11153518
1276887897975	-0.42223078	3.445948	9.152874	-0.017476082	0.0	-1.9375	-35.75	-35.9375	2.8407552	1.208258	0.12192191
1276887898016	-0.7627395	3.6774938	9.425281	0.33936596	0.0	-0.9375	-35.5	-36.6875	2.7283177	1.1916034	0.20450781
1276887898055	-1.2666923	3.9499009	9.425281	0.49102688	0.0	-0.1875	-36.25	-35.9375	2.5588346	1.1562079	0.3103284
1276887898085	-1.6889231	4.2495484	9.275456	0.5347824	0.0	0.8125	-36.0	-35.6875	2.4283333	1.1127584	0.378294
1276887898115	-2.070293	4.5219555	9.043911	0.51451874	0.0	1.5625	-36.5	-35.1875	2.3154626	1.0680212	0.42934737
1276887898145	-2.3699405	4.7535014	8.853226	0.5176897	0.0	2.8125	-37.0	-33.9375	2.280156	1.0304102	0.4625008
1276887898185	-2.6423476	4.0180025	8.049625	-0.42993355	0.0	4.3125	-37.25	-33.1875	2.1786022	1.0322781	0.5817183
1276887898225	-2.3426998	3.8273177	8.308413	-0.36385822	0.0	6.375	-39.0625	-32.4375	2.4150217	1.0755848	0.54926884
1276887898265	-2.7921712	4.099725	8.390134	-0.059942245	0.0	7.875	-39.5625	-32.1875	2.350512	1.0368732	0.59790325
1276887898305	-2.5333846	3.2961242	8.430995	-0.40643024	0.0	9.375	-40.3125	-31.6875	2.42771	1.112694	0.6552961
1276887898335	-2.8738933	5.053149	8.430995	0.43421173	0.0	9.625	-40.5625	-32.1875	2.469043	0.96714795	0.5171118
1276887898375	-3.759216	4.7943625	8.076866	0.3103342	0.0	9.875	-39.8125	-32.4375	2.1227882	0.92454565	0.6649647
1276887898415	-3.5276701	5.134871	8.008764	0.33985996	0.0	10.375	-39.5625	-32.1875	2.2245922	0.90968806	0.6019496
1276887898455	-3.9771416	4.7126403	9.343558	1.388381	0.0	9.625	-38.8125	-32.6875	2.1645448	0.98743635	0.7009599
1276887898495	-0.040861044	2.3018389	7.668256	-1.8002605	0.0	8.875	-38.3125	-33.4375	-2.8492537	1.2791333	0.017749615
1276887898537	0.23154591	2.8330324	7.6954966	-1.6029711	0.0	7.625	-37.5	-34.4375	-2.7001233	1.2169715	-0.08154952
1276887898575	-1.4165162	2.7240696	10.147159	0.79485416	0.0	6.125	-37.25	-35.6875	2.6862981	1.2769718	0.47951928
1276887898616	-1.7570249	3.445948	10.841797	1.7044859	0.0	5.625	-37.25	-36.4375	2.6341255	1.2281026	0.47152144
1276887898656	-1.0351465	4.140586	9.152874	0.29241276	0.0	5.375	-36.75	-36.9375	2.9376485	1.1344675	0.24497867
1276887898695	-0.7627395	3.1463003	8.430995	-0.77544594	0.0	5.375	-36.75	-36.6875	2.9822536	1.2041658	0.23783593
1276887898748	-0.95342433	2.7649305	9.534244	0.16609573	0.0	5.375	-35.75	-37.1875	2.864157	1.2731519	0.33205947
1276887898787	-1.8387469	2.982856	9.915613	0.70989895	0.0	5.875	-35.0	-37.75	2.5139139	1.2311066	0.55241895
1276887898830	-1.3075534	2.9556155	10.501288	1.1807251	0.0	6.375	-34.5	-37.4375	2.7818072	1.2722311	0.41651273
1276887898866	-1.1849703	3.214402	10.18802	0.9419441	0.0	6.875	-34.0	-37.75	2.887678	1.2464106	0.35318673
1276887898905	-1.0351465	4.372132	10.269742	1.4029293	0.0	7.625	-33.75	-37.75	3.1201186	1.1583867	0.23247932
1276887898935	-1.7570249	8.349273	12.108489	5.005945	0.0	7.875	-34.0	-37.4375	-3.0406857	0.95696205	0.20741403
1276887898975	-1.9885708	12.067628	13.797412	8.6311	0.0	8.875	-34.0	-37.75	-1.9111633	0.845532	0.16331784
1276887899047	-2.070293	7.8589406	12.4489975	5.060313	0.0	10.625	-34.0	-38.5	-2.959291	0.9924354	0.25757962
1276887899103	-2.8738933	-0.23154591	4.671779	-4.3168054	0.0	13.375	-32.75	-38.75	1.2489221	1.0178592	1.6511914
1276887899166	-3.1463003	-5.175732	8.62168	0.72999	0.0	16.6875	-32.25	-37.75	0.69549155	0.9583724	2.5953884
1276887899205	-4.0588636	0.19068487	10.228881	1.1997452	0.0	19.4375	-33.0	-34.4375	1.7789619	1.1926699	1.523851
1276887899235	-2.7513103	-0.040861044	6.932757	-2.347797	0.0	21.6875	-34.25	-30.4375	1.8106558	1.1929649	1.5856467
1276887899265	-2.2609777	1.607201	6.2108784	-3.0044355	0.0	22.9375	-37.25	-26.6875	2.5586927	1.1507429	0.95282996
1276887899305	-2.3018389	4.630918	6.6331096	-1.3958235	0.0	22.4375	-39.5625	-23.9375	-3.0244486	0.908593	0.46129197
1276887899335	-2.6423476	6.701211	6.6331096	-0.014492035	0.0	21.4375	-41.3125	-22.6875	-2.8260899	0.7442087	0.37559068
1276887899365	-2.7513103	7.3958488	8.076866	1.4851189	0.0	19.6875	-42.5625	-21.4375	-2.948391	0.79703605	0.35614443
1276887899395	-2.4925237	7.5865335	9.00305	2.2275953	0.0	18.1875	-44.0625	-20.1875	-2.9838784	0.8452231	0.3174356
1276887899425	-2.7921712	7.5865335	9.575105	2.7246847	0.0	17.4375	-45.0625	-19.4375	-3.108781	0.8696341	0.35265756
1276887899455	-3.2961242	8.308413	8.662541	2.6405897	0.0	16.9375	-45.8125	-20.1875	3.0826395	0.7697291	0.37767673
1276887899487	-3.568531	7.8589406	5.175732	0.25742245	0.0	17.1875	-46.3125	-20.4375	2.7206552	0.54016566	0.4262357
1276887899534	-3.5276701	6.6331096	3.7864566	-1.3935738	0.0	17.4375	-45.8125	-20.6875	2.080141	0.46684152	0.48878422
1276887899575	-3.568531	7.0553403	5.5571017	-0.14261246	0.0	17.6875	-46.3125	-20.9375	2.713705	0.6126396	0.46827006
1276887899614	-4.140586	6.6331096	8.049625	1.4156075	0.0	18.1875	-46.0625	-19.9375	2.7389388	0.79990673	0.5580454
1276887899655	-2.982856	5.407278	7.9270425	0.24193668	0.0	18.1875	-46.8125	-19.1875	2.9028676	0.9089703	0.50409937
1276887899695	-3.214402	4.9850473	6.6331096	-0.908268	0.0	17.9375	-47.5625	-18.9375	2.728628	0.8411777	0.57271713
1276887899735	-3.336985	6.0201936	5.7886477	-0.81295013	0.0	17.6875	-47.5625	-18.1875	2.749933	0.6992366	0.50613755
1276887899765	-3.0237172	6.782933	5.938472	-0.29789162	0.0	16.9375	-48.3125	-17.4375	2.9153042	0.67452514	0.41934165
1276887899805	-3.173541	7.8180795	6.742072	0.9937792	0.0	16.1875	-48.0625	-16.6875	2.9772642	0.67415977	0.38560227
1276887899845	-3.214402	7.5456724	6.3198414	0.5475731	0.0	15.6875	-48.0625	-15.9375	2.903139	0.6565196	0.40271124
1276887899895	-2.3699405	6.0882955	6.932757	-0.28052425	0.0	14.875	-48.0625	-15.4375	3.0046966	0.81505376	0.37121513
1276887899935	-3.445948	6.973618	7.164303	0.76846886	0.0	14.875	-47.8125	-14.9375	2.8063138	0.7443146	0.45894915
1276887899969	-2.8738933	6.66035	6.0474343	-0.36255264	0.0	14.375	-47.8125	-14.9375	2.8656511	0.694941	0.40735728
1276887900034	-2.5606253	6.3198414	4.9850473	-1.3598824	0.0	13.875	-48.5625	-14.9375	2.8447733	0.6312721	0.38495737
1276887900075	-2.9147544	7.5456724	7.082581	0.9449043	0.0	13.875	-49.0625	-14.6875	2.9331644	0.7191555	0.36862448
1276887900105	-2.6832085	6.701211	6.973618	0.23014164	0.0	13.125	-49.0625	-15.1875	2.8956602	0.76814944	0.38085675
1276887900135	-2.7513103	6.2108784	6.3198414	-0.52844334	0.0	13.875	-49.3125	-15.9375	2.833151	0.7493309	0.41700286
1276887900165	-2.4108016	5.938472	6.6331096	-0.58300877	0.0	13.875	-49.0625	-16.1875	2.9229426	0.80256695	0.38563654
1276887900195	-2.7240696	6.5922484	6.6331096	-0.06619644	0.0	13.875	-48.5625	-16.9375	2.8845208	0.74910784	0.39185342
1276887900235	-3.0645783	7.246025	6.3198414	0.28477764	0.0	13.875	-48.8125	-17.1875	2.8105388	0.6767446	0.40011805
1276887900275	-2.7921712	6.0882955	6.1700177	-0.6999121	0.0	13.125	-48.5625	-17.4375	2.7611563	0.7443886	0.42999336
1276887900315	-2.4108016	5.706926	7.014479	-0.4480238	0.0	13.125	-48.3125	-17.9375	2.8824594	0.84733695	0.39969555
1276887900355	-3.0237172	6.0474343	6.6331096	-0.33498383	0.0	12.625	-48.3125	-18.6875	2.6827133	0.77583265	0.4636476
1276887900395	-3.718355	7.1234417	9.534244	2.6621666	0.0	12.875	-48.0625	-19.4375	2.7271175	0.8704934	0.4810833
1276887900435	-3.1054392	7.8180795	7.5865335	1.5212631	0.0	13.125	-47.8125	-19.9375	2.8504968	0.73383206	0.3781011
1276887900469	-2.3018389	6.932757	3.7864566	-1.5787201	0.0	13.375	-47.3125	-20.4375	2.680515	0.47821543	0.3205713
1276887900505	-2.7240696	6.5922484	5.053149	-1.0652189	0.0	14.375	-46.8125	-20.4375	2.7618518	0.61636007	0.39185342
1276887900545	-2.982856	5.5571017	9.615966	1.6931591	0.0	14.625	-46.5625	-19.9375	2.8379405	0.9902895	0.492625
1276887900585	-2.7240696	4.7943625	8.240311	0.10844898	0.0	14.625	-46.8125	-19.9375	2.7941108	0.98105955	0.51669514
1276887900625	-2.5606253	4.7126403	5.366417	-2.219542	0.0	14.625	-47.3125	-19.9375	2.6933413	0.78568184	0.49772534
1276887900665	-2.7513103	5.6252036	5.5162406	-1.4615002	0.0	13.875	-47.5625	-19.9375	2.6882713	0.72216606	0.454893
1276887900705	-2.9556155	6.6331096	7.668256	0.7544079	0.0	13.375	-47.5625	-19.6875	2.8271866	0.8126152	0.41917655
1276887900745	-2.5606253	7.014479	8.049625	1.1731577	0.0	12.875	-47.8125	-19.6875	2.9549322	0.8229128	0.35001767
1276887900785	-2.4516625	6.701211	6.6331096	-0.06421566	0.0	12.625	-47.8125	-19.9375	2.9045582	0.7489188	0.35072795
1276887900825	-2.4516625	5.938472	7.205164	-0.15312862	0.0	12.375	-48.0625	-20.1875	2.8529801	0.8426011	0.39152953
1276887900865	-2.4925237	5.597963	7.8180795	0.1267395	0.0	12.125	-48.3125	-20.6875	2.8213742	0.906013	0.41890138
1276887900905	-2.9147544	5.09401	6.6331096	-0.949852	0.0	11.375	-48.3125	-20.6875	2.5694573	0.8464438	0.51972187
1276887900945	-2.4925237	5.325556	6.0474343	-1.3718605	0.0	9.875	-48.3125	-20.1875	2.6248453	0.7994364	0.4377467
1276887900975	-1.1441092	6.66035	6.1291566	-0.6832838	0.0	8.625	-48.3125	-19.6875	-3.124124	0.73664784	0.17011882
1276887901015	-1.3075534	8.076866	8.894087	2.2784739	0.0	7.625	-48.5625	-19.9375	3.1312892	0.82707363	0.16049628
1276887901055	-1.879608	6.510526	7.3549876	0.19413567	0.0	6.125	-48.5625	-20.6875	2.8030794	0.82631725	0.28106058
1276887901095	-0.6946377	5.6660647	6.6331096	-1.0553675	0.0	5.375	-48.3125	-20.9375	3.1181397	0.8601779	0.12198744
1276887901135	-0.10896278	5.8567495	6.3607025	-1.1595736	0.0	4.0625	-48.3125	-21.1875	-2.9937198	0.8265371	0.018602505
1276887901175	-0.5720546	5.5162406	8.281172	0.15999222	0.0	2.3125	-47.5625	-21.4375	3.0473788	0.9807031	0.10333433
1276887901215	-1.1168685	7.5456724	10.119919	2.8660498	0.0	0.8125	-46.8125	-22.1875	2.8918357	0.92490005	0.14694752
1276887901255	0.38136974	10.18802	9.302697	3.9948483	0.0	-1.1875	-46.0625	-24.6875	-3.0997748	0.73965794	-0.037415687
1276887901295	0.040861044	8.730643	9.275456	2.9314775	0.0	-2.6875	-44.0625	-27.6875	2.9546316	0.81564057	-0.0046801534
1276887901335	-0.6537767	6.8237944	12.108489	4.107627	0.0	-3.1875	-42.0625	-30.4375	2.814514	1.0556496	0.09551684
1276887901375	-3.486809	5.47538	11.727119	3.5971909	0.0	-1.6875	-39.5625	-33.1875	2.0688813	1.0652446	0.56705105
1276887901415	-0.23154591	2.0294318	7.8861814	-1.6602354	0.0	1.8125	-37.25	-34.9375	3.0530057	1.3173558	0.11360271
1276887901455	-1.3075534	-0.9125633	5.175732	-4.3908706	0.0	5.875	-35.5	-35.9375	0.907149	1.2719482	2.1801229
1276887901495	-5.284695	0.95342433	7.7363577	-0.38920593	0.0	9.875	-34.75	-36.6875	1.3328781	0.9640231	1.392304
1276887901535	-6.4015636	2.1792557	8.689782	1.2043209	0.0	12.375	-35.25	-35.9375	1.4401509	0.9094939	1.2426764
1276887901585	-1.2666923	2.0294318	4.7943625	-4.4485707	0.0	13.375	-35.75	-34.6875	2.7426057	1.1079634	0.5579958
1276887901625	-2.6832085	4.372132	3.0237172	-3.8519874	0.0	13.375	-37.8125	-32.6875	0.79359925	0.53261733	0.55043733
1276887901655	-2.3018389	7.164303	10.378705	3.012992	0.0	12.375	-40.5625	-30.1875	3.1039267	0.9434601	0.3108752
1276887901686	-2.7921712	8.008764	12.980191	5.6988935	0.0	11.125	-42.3125	-27.9375	2.981665	0.99201936	0.33546224
1276887901715	-2.4925237	6.469665	3.0645783	-2.2263546	0.0	10.125	-44.5625	-25.6875	0.90035385	0.41619384	0.367738
1276887901745	-1.1849703	4.140586	6.2789803	-2.1925712	0.0	9.125	-45.8125	-24.1875	2.9877424	0.96959007	0.27873403
1276887901786	-4.862464	3.336985	6.891896	-0.73596954	0.0	8.375	-46.0625	-22.4375	1.875726	0.8630042	0.96934164
1276887901825	-3.6774938	4.7943625	6.510526	-0.92426205	0.0	8.125	-47.0625	-20.6875	2.2221851	0.8226781	0.6543212
1276887901865	-3.1463003	0.6537767	7.5865335	-1.5675888	0.0	7.125	-47.5625	-19.6875	1.7388563	1.1701283	1.3659196
1276887901905	-4.0180025	10.337844	9.575105	4.8459263	0.0	6.875	-47.3125	-20.6875	2.5137432	0.7121674	0.37070054
1276887901935	-1.334794	12.830367	6.469665	4.624447	0.0	6.625	-46.3125	-23.9375	-1.3313633	0.46487847	0.10366106
1276887901965	-1.4573772	7.3549876	4.7535014	-0.9288368	0.0	6.375	-44.0625	-26.9375	1.9992019	0.565024	0.19561431
1276887902005	-5.09401	6.238119	7.8180795	1.4176731	0.0	6.875	-42.5625	-29.6875	1.7846426	0.77055025	0.68477756
1276887902045	-4.399372	6.782933	7.7363577	1.3832512	0.0	7.125	-41.8125	-30.6875	1.847395	0.763383	0.5753864
1276887902085	-4.0180025	6.742072	6.782933	0.5667801	0.0	7.875	-42.0625	-29.9375	1.8106289	0.7126956	0.53744334
1276887902115	-4.099725	7.504812	7.164303	1.3493881	0.0	8.625	-43.0625	-29.4375	1.8926138	0.6973526	0.4999823
1276887902155	-2.9147544	8.308413	5.5571017	0.60521317	0.0	8.125	-43.5625	-27.4375	1.5963248	0.56300277	0.33740482
1276887902195	-2.0294318	8.499097	2.9147544	-0.59529686	0.0	7.125	-45.0625	-24.9375	0.3646262	0.32196438	0.23439306
1276887902235	-1.920469	9.343558	2.982856	0.18773365	0.0	5.375	-46.8125	-20.6875	0.62741584	0.3030716	0.20271616
1276887902275	-3.214402	8.771504	4.440233	0.5368185	0.0	2.8125	-49.3125	-14.4375	2.0393844	0.44369426	0.35126224
1276887902315	-0.61291564	7.4639506	3.9499009	-1.339777	0.0	0.3125	-51.5625	-7.625	2.9186676	0.48534366	0.08193296
1276887902355	0.46309182	6.1291566	2.9556155	-2.9863367	0.0	-2.6875	-53.0625	-1.375	-3.081151	0.44821194	-0.07541227
1276887902405	-1.879608	5.5571017	0.9942854	-3.856616	0.0	-6.0	-53.0625	3.125	2.027964	0.1678935	0.3261558
1276887902445	-0.5720546	7.3141265	1.56634	-2.304843	0.0	-9.25	-52.0625	4.625	2.4237754	0.21034266	0.0780534
1276887902485	-0.6537767	13.211738	7.273266	5.288973	0.0	-13.0	-51.0625	4.125	2.633938	0.50272244	0.049444202
1276887902525	2.3018389	13.252599	7.1234417	5.4141665	0.0	-15.0625	-50.0625	3.875	2.9189932	0.48703367	-0.17197394
1276887902565	2.8330324	11.795221	2.9556155	2.6789007	0.0	-16.5625	-50.3125	2.625	2.8598998	0.23899145	-0.23571967
1276887902595	1.3075534	10.760075	1.0351465	1.0818958	0.0	-16.8125	-50.3125	2.375	2.1733167	0.09521125	-0.12092608
1276887902626	0.50395286	8.049625	3.7864566	-0.8966732	0.0	-15.0625	-50.8125	2.625	2.688048	0.4389267	-0.062524155
1276887902665	-0.9125633	9.847511	-0.6537767	0.10464001	0.0	-13.75	-51.5625	1.625	1.479903	-0.06601076	0.09240553
1276887902705	0.84446156	13.906375	-3.7864566	4.630719	0.0	-12.0	-51.0625	1.375	0.6281208	-0.26537147	-0.0606503
1276887902745	1.6889231	11.495573	0.10896278	1.8128386	0.0	-11.0	-51.3125	1.625	2.1242824	0.009377726	-0.14587581
1276887902785	1.4982382	6.891896	2.3699405	-2.3662496	0.0	-12.5	-50.8125	1.875	3.0646987	0.3241712	-0.21406068
1276887902825	-0.29964766	2.4925237	3.5276701	-5.4768786	0.0	-15.5625	-49.3125	1.875	2.6459353	0.9522935	0.119644396
1276887902865	0.61291564	3.759216	3.486809	-4.6428137	0.0	-19.5625	-48.3125	-0.375	2.8149748	0.7412847	-0.16162135
1276887902905	1.6480621	8.430995	4.1814466	-0.25247383	0.0	-22.0625	-47.0625	-2.625	2.5718615	0.45299053	-0.19304235
1276887902935	3.1463003	10.419566	5.938472	2.5922213	0.0	-23.5625	-46.3125	-5.875	2.6988702	0.49946117	-0.2932547
1276887902965	0.8036005	10.923519	5.5162406	2.457035	0.0	-24.5625	-45.5625	-8.375	2.147829	0.46654463	-0.073433794
1276887902995	-1.6480621	10.501288	4.630918	1.7881145	0.0	-25.375	-44.8125	-10.375	1.7740567	0.41085935	0.15566929
1276887903035	0.6537767	9.275456	4.7535014	0.6364002	0.0	-26.625	-43.5625	-13.4375	1.9241887	0.472578	-0.07036821
1276887903075	2.7240696	9.043911	6.932757	1.9098339	0.0	-27.375	-42.8125	-15.4375	2.442263	0.633178	-0.29256177
1276887903115	1.6480621	8.580819	5.47538	0.504817	0.0	-27.875	-42.3125	-17.1875	2.0586977	0.5597792	-0.18975279
1276887903155	0.6946377	8.349273	3.5957718	-0.6894989	0.0	-27.625	-41.0625	-17.4375	1.6129862	0.40541095	-0.08300623
1276887903195	2.070293	8.076866	5.284695	0.06502056	0.0	-28.125	-41.0625	-17.6875	2.1053205	0.5649097	-0.25092155
1276887903235	1.9477097	7.668256	6.1291566	0.20146084	0.0	-28.375	-40.5625	-18.1875	2.2442827	0.6591168	-0.24873646
1276887903275	1.1168685	7.8589406	5.325556	-0.24778557	0.0	-28.125	-40.3125	-18.6875	1.9533557	0.5909289	-0.14116907
1276887903315	1.7570249	7.9679036	4.399372	-0.53685474	0.0	-27.875	-40.0625	-19.6875	1.7871584	0.4945006	-0.2170394
1276887903355	2.5333846	7.9679036	5.012288	-0.058390617	0.0	-27.875	-39.5625	-20.4375	1.9729133	0.5400427	-0.30784106
1276887903405	2.070293	7.5865335	5.366417	-0.28614426	0.0	-28.125	-38.5625	-21.1875	1.9937028	0.5988214	-0.26640397
1276887903445	1.9885708	7.8861814	4.440233	-0.5404787	0.0	-28.625	-38.0625	-20.6875	1.7257324	0.49972877	-0.24700955
1276887903476	2.9147544	8.580819	4.399372	0.26711464	0.0	-29.375	-38.5625	-19.1875	1.7512144	0.45194468	-0.32745394
1276887903515	3.2961242	8.689782	4.671779	0.59538174	0.0	-30.125	-39.3125	-16.9375	1.9802793	0.4657822	-0.3625442
1276887903555	3.336985	8.812365	4.399372	0.59275913	0.0	-30.625	-40.3125	-15.1875	2.0115137	0.43679833	-0.361985
1276887903595	3.0237172	8.812365	3.3778462	0.10346985	0.0	-30.625	-40.5625	-14.4375	1.7518052	0.34781894	-0.33053443
1276887903625	3.3778462	8.539958	3.3778462	-0.021428108	0.0	-30.625	-40.8125	-14.1875	1.8371162	0.35245052	-0.3766507
1276887903665	3.173541	8.730643	3.486809	0.11571503	0.0	-30.625	-40.8125	-14.1875	1.8371162	0.35245052	-0.3766507
1276887903705	1.9885708	8.049625	5.09401	-0.07526684	0.0	-30.625	-41.0625	-12.9375	2.1737304	0.5509091	-0.24218984
1276887903745	2.1111538	8.117727	6.3607025	0.7201252	0.0	-31.125	-41.3125	-12.6875	2.331747	0.6488122	-0.25443092
1276887903785	3.2961242	8.730643	6.0474343	1.3136024	0.0	-30.875	-41.5625	-13.9375	2.3958828	0.5749843	-0.3609914
1276887903825	3.1463003	8.049625	3.405087	-0.5173931	0.0	-30.625	-40.5625	-15.9375	1.792916	0.37531093	-0.37260485
1276887903865	1.334794	8.19945	6.1291566	0.5170708	0.0	-29.875	-39.5625	-19.9375	1.9784752	0.6356448	-0.1613751
1276887903905	1.6480621	7.164303	5.366417	-0.70490456	0.0	-27.875	-38.8125	-23.6875	1.9262205	0.6305673	-0.2261045
1276887903945	1.5390993	6.0882955	6.0882955	-1.0600214	0.0	-26.375	-37.8125	-26.4375	2.1658516	0.7699138	-0.24760887
1276887903985	0.61291564	7.504812	7.3141265	0.69069767	0.0	-24.0625	-37.0	-28.9375	1.8627336	0.77086985	-0.08148883
1276887904025	1.334794	6.5513873	6.510526	-0.4744854	0.0	-22.0625	-36.25	-31.4375	1.925724	0.7721034	-0.20099124
1276887904065	1.5390993	4.671779	5.6252036	-2.3342166	0.0	-20.8125	-35.25	-33.1875	2.328107	0.85229653	-0.31824797
1276887904095	2.070293	5.47538	6.0201936	-1.409709	0.0	-20.0625	-34.75	-34.1875	2.1841133	0.7994184	-0.36149397
1276887904125	3.486809	5.829509	6.1700177	-0.6300421	0.0	-19.5625	-35.25	-34.1875	-2.5101094	0.7373973	-0.53904396
1276887904165	3.568531	6.3607025	5.284695	-0.7999325	0.0	-19.3125	-36.5	-32.6875	-0.4246369	0.62703997	-0.5112704
1276887904205	1.8387469	7.1234417	4.671779	-1.0917244	0.0	-18.0625	-39.0625	-30.6875	1.1770157	0.5657705	-0.2526121
1276887904245	1.2258313	7.246025	4.4810944	-1.1992264	0.0	-15.8125	-41.5625	-28.9375	1.3438998	0.547563	-0.1675862
1276887904285	0.23154591	5.7886477	2.9556155	-3.3029804	0.0	-13.75	-43.5625	-28.6875	1.1393908	0.4717586	-0.039978687
1276887904325	0.7627395	4.9850473	2.5606253	-4.1507444	0.0	-11.5	-44.5625	-28.4375	0.7856179	0.4698301	-0.15182798
1276887904365	1.7978859	5.6252036	3.255263	-3.063354	0.0	-10.5	-46.0625	-27.4375	-1.2570506	0.50378144	-0.30935147
1276887904405	2.0294318	7.205164	1.9885708	-2.0614972	0.0	-10.75	-47.3125	-25.6875	-0.19759794	0.25965834	-0.27455062
1276887904446	0.23154591	11.536434	-0.040861044	1.7321796	0.0	-11.75	-49.3125	-21.1875	0.46651557	-0.003541185	-0.020068144
1276887904485	-0.27240697	14.137921	0.95342433	4.366	0.0	-13.5	-51.5625	-16.4375	0.84150153	0.06732297	0.01926544
1276887904525	-4.5628166	17.161638	-5.407278	8.75621	0.0	-15.8125	-52.5625	-13.1875	0.831862	-0.2955808	0.2598613
1276887904565	-7.246025	13.252599	-11.032481	8.897678	0.0	-16.0625	-54.0625	-7.875	0.93096423	-0.6308554	0.5003543
1276887904605	-1.525479	8.730643	-1.2258313	-0.8593664	0.0	-15.8125	-54.5625	-4.125	1.1532325	-0.13743825	0.17298076
1276887904645	-0.7627395	6.973618	0.46309182	-2.7761755	0.0	-14.5	-55.0625	-0.375	1.7229096	0.06591694	0.10894196
1276887904685	0.08172209	9.343558	-4.5628166	0.59181404	0.0	-13.0	-55.5625	3.375	0.52919054	-0.45425966	-0.008746133
1276887904725	-0.61291564	9.112013	-2.5333846	-0.32917786	0.0	-13.25	-55.3125	4.125	1.0140367	-0.27059615	0.0671634
1276887904765	0.08172209	8.921328	-2.982856	-0.39951515	0.0	-13.0	-54.8125	4.125	0.74666333	-0.32265368	-0.00916005
1276887904805	-0.6946377	10.228881	-3.636633	1.07166	0.0	-13.0	-54.8125	3.625	0.85290015	-0.34086373	0.06780534
1276887904845	-0.08172209	10.269742	-2.9556155	0.88025475	0.0	-12.0	-55.0625	3.375	0.805059	-0.28021702	0.007957392
1276887904885	2.152015	8.430995	-3.405087	-0.46280384	0.0	-9.75	-55.3125	3.625	-0.24356195	-0.3730102	-0.2499141
1276887904925	1.6889231	8.349273	-2.8738933	-0.81653976	0.0	-7.0	-56.0625	3.875	-0.28844732	-0.32538408	-0.19959061
1276887904965	-1.8387469	8.921328	-0.6537767	-0.6743727	0.0	-4.9375	-56.3125	4.375	1.600826	-0.07165096	0.2032606
1276887904995	-6.782933	8.240311	-4.0588636	1.6119871	0.0	-2.6875	-56.0625	4.375	1.294536	-0.36340567	0.68869257
1276887905025	-6.2789803	9.615966	-1.1849703	1.7387629	0.0	-1.4375	-56.0625	4.875	1.5743144	-0.10281664	0.5784634
1276887905055	-6.5922484	7.668256	-0.7627395	0.33443737	0.0	-0.1875	-55.8125	5.125	1.623762	-0.075283885	0.7100872
1276887905095	-5.8976107	6.0201936	-2.1111538	-1.1186409	0.0	2.0625	-55.8125	4.875	1.4304444	-0.24545352	0.7751128
1276887905135	-3.636633	6.6331096	-3.0237172	-1.6601105	0.0	3.3125	-56.0625	4.875	1.033986	-0.38026422	0.5015022
1276887905165	-3.8273177	7.8589406	-2.6423476	-0.6746559	0.0	5.125	-55.8125	3.625	1.0377922	-0.29354832	0.453195
1276887905205	-4.1814466	8.471856	-1.9885708	-0.15205193	0.0	6.625	-56.3125	2.375	1.1418928	-0.20745626	0.4584897
1276887905245	-5.47538	7.7363577	-2.070293	-0.105252266	0.0	8.125	-56.0625	1.125	1.2116901	-0.21505535	0.61590606
1276887905285	-6.1700177	7.3141265	-2.2201166	0.01651001	0.0	10.375	-55.3125	-0.375	1.179811	-0.22797808	0.70075244
1276887905325	-5.6660647	8.008764	-1.4573772	0.11144161	0.0	12.375	-55.0625	-1.125	1.1867841	-0.14747529	0.6157305
1276887905365	-3.336985	9.275456	-1.8387469	0.2208395	0.0	14.375	-54.5625	-1.375	0.4011142	-0.1844141	0.34534755
1276887905405	-3.6774938	8.117727	-2.3699405	-0.58504105	0.0	16.4375	-54.5625	-0.875	0.4564174	-0.2599152	0.42536262
1276887905445	-4.2495484	6.469665	-1.8387469	-1.8507581	0.0	17.9375	-54.0625	-0.125	0.8523869	-0.23322627	0.5811701
1276887905485	-6.701211	4.7943625	-2.3699405	-1.2329254	0.0	19.9375	-53.3125	0.375	1.1904684	-0.28006592	0.9497782
1276887905525	-7.273266	4.7535014	-2.5333846	-0.7560034	0.0	21.1875	-52.3125	0.875	1.2103711	-0.28370243	0.9919239
1276887905565	-5.938472	5.134871	-2.3018389	-1.6255245	0.0	21.9375	-51.5625	0.875	1.0755161	-0.28521073	0.8578419
1276887905595	-6.4015636	5.2165933	-1.56634	-1.401516	0.0	21.1875	-52.5625	0.625	1.2651235	-0.18745099	0.88703966
1276887905625	-5.202973	9.152874	-0.5720546	0.7372236	0.0	19.6875	-54.0625	-0.125	1.2488488	-0.054281343	0.51689965
1276887905665	-5.6252036	8.730643	-3.1463003	1.0453653	0.0	17.6875	-55.3125	-0.625	0.73015374	-0.29415134	0.5723618
1276887905705	-4.7943625	10.528529	-2.1792557	1.9655628	0.0	15.1875	-56.0625	-1.375	0.66666496	-0.18619256	0.42730957
1276887905745	-5.6660647	10.18802	-1.9477097	2.0125551	0.0	13.875	-56.0625	-1.375	0.9620431	-0.16554704	0.50755244
1276887905785	-5.8158884	9.425281	-1.4982382	1.3694496	0.0	13.375	-55.5625	-1.125	1.1299765	-0.13446216	0.5528635
1276887905825	-3.9090397	6.8237944	-2.1383946	-1.6569576	0.0	13.375	-55.5625	-1.125	1.1299765	-0.13446216	0.5528635
1276887905855	-4.630918	7.014479	-1.4982382	-1.2689075	0.0	14.125	-55.0625	-0.875	1.0642843	-0.1763975	0.5835082
1276887905895	-7.164303	8.471856	-2.3018389	1.5246353	0.0	14.875	-54.8125	-1.125	1.1226754	-0.20456387	0.70196855
1276887905935	-4.0180025	7.6954966	-0.53119355	-1.1091118	0.0	14.125	-54.8125	-1.375	1.2174159	-0.061112043	0.48118964
1276887905965	-2.0294318	6.742072	-1.9477097	-2.50133	0.0	13.875	-54.8125	-1.625	0.14999777	-0.26987943	0.29238325
1276887906005	-4.0588636	6.4015636	-1.607201	-2.0582643	0.0	13.125	-55.8125	-2.125	0.9546448	-0.20894092	0.5650754
1276887906045	-4.5628166	6.3198414	-1.334794	-1.8983402	0.0	13.125	-56.0625	-2.625	1.0904013	-0.16959557	0.6253277
1276887906085	-5.938472	7.082581	-1.56634	-0.43211937	0.0	13.625	-56.3125	-3.125	1.1424444	-0.16787198	0.6977571
1276887906125	-7.5456724	6.2789803	-0.84446156	0.046058655	0.0	15.1875	-55.3125	-3.625	1.341836	-0.08581385	0.87676865
1276887906155	-4.4810944	3.336985	-0.95342433	-4.138785	0.0	17.6875	-54.3125	-4.375	1.2178321	-0.16901936	0.93070817
1276887906195	-4.140586	5.6252036	-0.61291564	-2.7950149	0.0	19.6875	-53.3125	-5.375	0.99928653	-0.087525785	0.634531
1276887906235	-3.8273177	7.205164	-0.6537767	-1.6218977	0.0	21.4375	-52.3125	-6.875	0.4590541	-0.07996259	0.4882879
1276887906295	-4.4810944	8.921328	-0.38136974	0.18413258	0.0	21.6875	-52.3125	-8.625	0.36363074	-0.03818143	0.465478
1276887906335	-5.5571017	11.495573	-0.10896278	2.9621181	0.0	20.1875	-51.8125	-11.125	0.36072072	-0.008533643	0.45028964
1276887906375	-6.782933	12.9529505	-0.14982383	4.8155775	0.0	18.6875	-52.0625	-13.9375	0.48265672	-0.010246487	0.4823954
1276887906415	-5.706926	11.795221	-1.1849703	3.350113	0.0	17.6875	-51.8125	-15.9375	0.30964985	-0.0901877	0.45063114
1276887906455	-4.8216033	10.460427	-0.6537767	1.7300663	0.0	16.6875	-51.8125	-17.1875	0.31252512	-0.056699596	0.43191224
1276887906485	-3.7864566	9.466142	0.6537767	0.4096365	0.0	16.6875	-52.3125	-16.6875	0.29075062	0.06403734	0.3805064
1276887906525	-4.2086873	6.6331096	0.7218784	-1.9179053	0.0	16.1875	-52.3125	-15.4375	0.93769747	0.091635585	0.56539935
1276887906565	-6.0201936	4.0180025	0.08172209	-2.5682974	0.0	15.6875	-53.3125	-14.4375	1.197537	0.01129039	0.9822718
1276887906605	-5.6660647	7.5456724	0.19068487	-0.36854553	0.0	15.1875	-53.3125	-13.9375	0.9952959	0.0202051	0.6440785
1276887906645	-4.671779	9.234595	-0.08172209	0.5427437	0.0	15.1875	-53.5625	-14.1875	0.62859523	-0.007896398	0.46835625
1276887906685	-3.9090397	8.730643	-0.14982383	-0.23966694	0.0	15.1875	-53.5625	-14.6875	0.47654969	-0.01566115	0.42097118
1276887906725	-4.944186	6.4424243	-0.27240697	-1.6811342	0.0	15.4375	-53.0625	-15.1875	0.8705036	-0.033531167	0.65457076
1276887906765	-4.5900574	8.662541	0.42223078	0.0059194565	0.0	16.1875	-53.3125	-15.9375	0.66578174	0.043042872	0.48726037
1276887906805	-3.8681788	5.8567495	-0.53119355	-2.7677236	0.0	17.1875	-52.5625	-16.4375	0.62166506	-0.07553695	0.5836969
1276887906845	-6.0201936	3.445948	0.50395286	-2.8517056	0.0	17.6875	-52.0625	-17.1875	1.1998703	0.072523214	1.0509197
1276887906885	-4.5628166	10.95076	0.14982383	2.057619	0.0	17.4375	-52.0625	-17.9375	0.22395521	0.01262849	0.3947911
1276887906925	-3.7864566	11.304889	0.08172209	2.1157837	0.0	16.6875	-52.0625	-18.1875	0.039920397	0.006854534	0.32319564
1276887906955	-3.486809	9.507003	-0.040861044	0.31968212	0.0	15.4375	-51.8125	-18.6875	0.17524374	-0.004035139	0.35152897
1276887906985	-3.9090397	9.724928	0.10896278	0.67508125	0.0	15.1875	-51.8125	-18.6875	0.28099224	0.010395682	0.38219556
1276887907025	-3.9499009	9.80665	0.10896278	0.7661438	0.0	15.1875	-51.3125	-18.6875	0.27324912	0.010306141	0.38289872
1276887907065	-2.8330324	9.084772	0.3405087	-0.2843027	0.0	15.1875	-50.8125	-18.9375	0.036875375	0.035766527	0.30228722
1276887907105	-3.1054392	8.921328	0.5720546	-0.34297848	0.0	15.1875	-51.0625	-19.1875	0.15212926	0.0604843	0.3349737
1276887907135	-2.6832085	8.471856	0.38136974	-0.91185474	0.0	14.625	-50.8125	-19.6875	0.08026199	0.042888753	0.30672503
1276887907165	-2.3018389	8.19945	0.7218784	-1.2596893	0.0	13.875	-50.8125	-20.1875	0.023940252	0.08456098	0.27368632
1276887907205	-2.2609777	7.3141265	-0.23154591	-2.147533	0.0	13.375	-50.3125	-20.6875	0.09324056	-0.030236015	0.29980698
1276887907245	-3.173541	7.8861814	-0.23154591	-1.3027201	0.0	12.125	-50.3125	-20.9375	0.32550246	-0.027231472	0.3825891
1276887907285	-3.214402	8.62168	-0.29964766	-0.6003723	0.0	10.125	-50.8125	-20.9375	0.3506732	-0.032553934	0.3568649
1276887907325	-2.8330324	9.425281	0.42223078	0.044251442	0.0	8.375	-50.8125	-20.4375	0.34766558	0.042875282	0.291987
1276887907365	-2.3018389	6.4424243	-0.9942854	-2.8934822	0.0	5.875	-51.5625	-19.6875	0.41594878	-0.14432539	0.3431579
1276887907405	-2.1383946	7.014479	-0.3405087	-2.4655604	0.0	3.0625	-52.0625	-18.9375	0.5226441	-0.046400595	0.29590437
1276887907445	-1.1849703	8.812365	-0.27240697	-0.9108019	0.0	0.0625	-51.8125	-17.4375	0.34566018	-0.030626597	0.13366501
1276887907480	-0.88532263	9.724928	-0.9125633	0.0010404587	0.0	-2.9375	-51.8125	-16.1875	0.34983328	-0.09318047	0.090786174
1276887907515	-0.95342433	11.032481	-0.84446156	1.2991037	0.0	-6.0	-51.5625	-15.4375	0.49581483	-0.07611166	0.08620557
1276887907565	-0.53119355	12.762266	-0.88532263	2.9973106	0.0	-9.25	-50.8125	-14.1875	0.57201225	-0.06919965	0.04159819
1276887907605	-0.7627395	9.193735	-0.88532263	-0.53894615	0.0	-11.5	-50.0625	-13.9375	0.69924915	-0.095673606	0.0827734
1276887907645	0.38136974	11.304889	-0.6537767	1.5235472	0.0	-13.75	-49.0625	-14.1875	0.617554	-0.057734217	-0.03372215
1276887907685	0.08172209	10.923519	-0.9942854	1.1623316	0.0	-14.5	-48.8125	-13.9375	0.6572848	-0.09076979	-0.007481157
1276887907725	0.84446156	9.956474	-1.1441092	0.2508583	0.0	-14.5	-48.3125	-14.6875	0.47393703	-0.11400352	-0.08461282
1276887907765	1.1849703	9.575105	-1.3756552	-0.060922623	0.0	-14.75	-48.5625	-15.1875	0.37410402	-0.14162768	-0.123129286
1276887907805	2.152015	9.275456	-0.7627395	-0.25431824	0.0	-14.5	-49.3125	-14.9375	0.15566678	-0.0799336	-0.22797823
1276887907845	1.1441092	9.915613	-0.23154591	0.17743587	0.0	-15.5625	-49.0625	-15.1875	0.54145795	-0.023193575	-0.11487661
1276887907875	0.6946377	9.507003	-0.23154591	-0.271492	0.0	-16.0625	-49.3125	-15.1875	0.64824396	-0.024285771	-0.0729363
1276887907915	0.84446156	9.043911	-0.53119355	-0.707881	0.0	-16.3125	-49.3125	-14.9375	0.57809526	-0.058414027	-0.09310354
1276887907945	0.92618364	8.853226	-0.29964766	-0.9000673	0.0	-16.5625	-49.3125	-15.1875	0.59143084	-0.033649746	-0.10423623
1276887907975	0.53119355	9.043911	-0.23154591	-0.74419403	0.0	-16.3125	-49.5625	-15.1875	0.6821558	-0.025552798	-0.058667537
1276887908015	-0.3405087	9.888372	0.040861044	0.087667465	0.0	-16.8125	-49.3125	-14.9375	0.8981507	0.00412976	0.03442166
1276887908055	-0.19068487	9.915613	-0.42223078	0.11978054	0.0	-16.8125	-48.8125	-15.1875	0.8000328	-0.04254885	0.0192284
1276887908095	-0.040861044	10.269742	-0.27240697	0.46678543	0.0	-16.8125	-48.8125	-15.1875	0.8000328	-0.04254885	0.0192284
1276887908125	0.7627395	10.310603	-0.10896278	0.5327015	0.0	-16.5625	-48.5625	-15.4375	0.6810796	-0.0105388425	-0.07384172
1276887908165	1.4573772	9.956474	-0.040861044	0.25600338	0.0	-16.0625	-49.0625	-15.9375	0.498466	-0.004060674	-0.14534266
1276887908205	1.920469	9.384419	-0.14982383	-0.22656822	0.0	-15.3125	-49.8125	-16.6875	0.2791275	-0.015639734	-0.20185731
1276887908245	0.7218784	7.205164	-0.38136974	-2.555379	0.0	-14.25	-49.8125	-17.4375	0.4298886	-0.052617777	-0.09985581
1276887908285	-0.50395286	8.962189	0.10896278	-0.8296423	0.0	-13.75	-50.0625	-18.1875	0.7546443	0.012138283	0.05617185
1276887908325	-0.23154591	9.724928	0.42223078	-0.06980705	0.0	-13.25	-49.5625	-18.4375	0.72493285	0.04337784	0.023805028
1276887908365	0.08172209	9.507003	0.42223078	-0.28992558	0.0	-13.25	-49.5625	-18.9375	0.6544108	0.044381805	-0.008595778
1276887908405	0.3405087	9.615966	0.42223078	-0.17539787	0.0	-13.25	-49.3125	-19.6875	0.58157176	0.04385371	-0.035395976
1276887908435	0.5720546	9.507003	0.50395286	-0.2691288	0.0	-13.0	-48.8125	-20.4375	0.513927	0.052863594	-0.06009946
1276887908465	0.50395286	9.656827	0.46309182	-0.12559986	0.0	-12.25	-48.8125	-21.6875	0.46527505	0.047853135	-0.05213888
1276887908505	0.88532263	9.765789	0.53119355	0.01356411	0.0	-11.0	-47.8125	-22.1875	0.32772058	0.05411826	-0.090408385
1276887908545	0.6537767	9.043911	0.8036005	-0.70359993	0.0	-10.75	-47.8125	-23.1875	0.36887237	0.088393226	-0.07216363
1276887908585	-0.19068487	9.534244	0.88532263	-0.22949219	0.0	-9.75	-48.0625	-23.9375	0.50415057	0.092573225	0.019997334
1276887908615	0.27240697	9.956474	0.95342433	0.19907856	0.0	-9.0	-48.0625	-24.1875	0.37570682	0.09543264	-0.027352957
1276887908655	0.53119355	9.384419	0.9942854	-0.35476685	0.0	-9.0	-48.5625	-24.6875	0.31130388	0.1053894	-0.056543432
1276887908685	0.040861044	8.539958	0.8036005	-1.2288685	0.0	-8.5	-48.0625	-24.6875	0.39081162	0.09382153	-0.0047846525
1276887908715	-0.38136974	9.152874	0.95342433	-0.59635353	0.0	-8.75	-47.5625	-24.9375	0.49375668	0.103703	0.04164258
1276887908755	-0.14982383	9.656827	1.1168685	-0.08429718	0.0	-8.75	-47.8125	-24.9375	0.4571003	0.11513053	0.015513564
1276887908795	0.6946377	9.765789	1.1441092	0.05043602	0.0	-8.5	-47.5625	-24.9375	0.25992376	0.116331935	-0.071010105
1276887908835	0.6537767	9.466142	1.2258313	-0.23910427	0.0	-8.5	-47.5625	-24.9375	0.25992376	0.116331935	-0.071010105
1276887908865	-0.14982383	9.80665	0.88532263	0.041021347	0.0	-8.5	-47.8125	-24.1875	0.4361232	0.090023264	0.01527659
1276887908905	-0.6537767	9.534244	0.19068487	-0.24811554	0.0	-9.0	-47.5625	-23.9375	0.48883557	0.019950498	0.06846426
1276887908945	-0.46309182	9.534244	0.6946377	-0.23592472	0.0	-9.25	-48.3125	-23.6875	0.5215991	0.072643295	0.048533287
1276887908975	0.313268	9.534244	0.7218784	-0.23998642	0.0	-9.5	-49.0625	-22.9375	0.39056465	0.07552949	-0.032845326
1276887909005	0.23154591	9.112013	-0.08172209	-0.69132996	0.0	-9.25	-49.0625	-22.1875	0.33984974	-0.008965476	-0.025405593
1276887909045	-0.42223078	8.853226	0.14982383	-0.94209576	0.0	-9.25	-49.0625	-21.6875	0.50658107	0.016902255	0.0476562
1276887909085	-0.27240697	10.228881	-0.88532263	0.46408558	0.0	-9.5	-48.8125	-21.6875	0.3964364	-0.08630566	0.026624868
1276887909115	0.50395286	9.615966	-0.8036005	-0.14401436	0.0	-9.25	-48.3125	-21.9375	0.2533247	-0.08326194	-0.05236003
1276887909146	1.0351465	9.00305	0.14982383	-0.74304867	0.0	-9.75	-48.5625	-22.4375	0.18917345	0.016531028	-0.11447464
1276887909185	0.88532263	9.152874	0.8036005	-0.5760126	0.0	-9.75	-48.5625	-22.6875	0.26804087	0.087168306	-0.09642622
1276887909225	0.313268	8.689782	0.19068487	-1.1091328	0.0	-10.5	-48.3125	-21.9375	0.39718658	0.021925814	-0.036034554
1276887909265	-0.7218784	10.732834	0.61291564	0.96788025	0.0	-11.5	-48.5625	-20.9375	0.68074536	0.05691633	0.06715774
1276887909305	-1.7570249	10.760075	0.313268	1.1004333	0.0	-12.5	-48.5625	-21.1875	0.7929618	0.02872547	0.1618626
1276887909345	-0.9942854	10.528529	0.23154591	0.77125835	0.0	-13.0	-48.5625	-20.4375	0.73415935	0.021891324	0.09415801
1276887909385	-0.95342433	10.56939	0.61291564	0.8233404	0.0	-12.5	-49.0625	-20.6875	0.7553971	0.05769109	0.08996269
1276887909425	-0.29964766	10.119919	0.7218784	0.34340668	0.0	-11.25	-49.3125	-20.9375	0.6306036	0.07118072	0.029601041
1276887909455	0.8036005	9.152874	0.08172209	-0.61820316	0.0	-9.25	-49.5625	-20.4375	0.23942319	0.008894122	-0.08757306
1276887909485	0.6537767	8.430995	-0.3405087	-1.3434925	0.0	-7.75	-50.0625	-20.6875	0.16825466	-0.0402451	-0.07738956
1276887909525	-0.19068487	9.507003	-0.29964766	-0.29301453	0.0	-6.5	-50.5625	-20.4375	0.32885253	-0.031501863	0.020054618
1276887909565	-0.14982383	7.8180795	-0.46309182	-1.9734344	0.0	-6.0	-50.3125	-20.1875	0.2925325	-0.059153486	0.019161418
1276887909605	-1.0760075	9.152874	-0.14982383	-0.5895281	0.0	-6.25	-50.8125	-19.4375	0.54019666	-0.016255662	0.1170224
1276887909645	-0.9942854	9.765789	0.08172209	0.009963989	0.0	-6.25	-51.5625	-18.4375	0.56579816	0.008324971	0.1014635
1276887909855	-1.3075534	10.651112	0.19068487	0.9261141	0.0	-6.25	-52.0625	-17.4375	0.64926296	0.017767549	0.12215098
1276887909885	-0.42223078	9.343558	0.92618364	-0.40781116	0.0	-7.25	-52.5625	-18.1875	0.6384339	0.09870253	0.04515878
1276887909925	-0.08172209	8.921328	2.152015	-0.6290722	0.0	-8.0	-52.0625	-19.6875	0.88414884	0.23668994	0.009160049
1276887909965	-0.0	10.760075	-0.50395286	0.9652195	0.0	-7.25	-50.3125	-22.9375	0.27943662	-0.046801243	0.0
1276887910005	-0.50395286	10.038197	1.7297841	0.3919525	0.0	-6.75	-48.0625	-25.4375	0.49420425	0.17043383	0.05016141
1276887910045	-0.10896278	9.234595	0.8036005	-0.53651524	0.0	-5.25	-47.5625	-25.9375	0.26138222	0.08679598	0.011798863
1276887910085	-0.29964766	9.615966	0.88532263	-0.14536762	0.0	-3.4375	-46.8125	-26.4375	0.21841902	0.09176487	0.031151393
1276887910115	-0.3405087	9.302697	1.2666923	-0.4119377	0.0	-3.6875	-47.3125	-25.4375	0.2797888	0.13524224	0.036586888
1276887910155	-0.38136974	9.575105	1.3075534	-0.13515759	0.0	-3.9375	-48.0625	-25.4375	0.30255827	0.13561192	0.03980826
1276887910185	0.10896278	9.575105	1.4165162	-0.12672138	0.0	-4.1875	-47.8125	-25.9375	0.19286329	0.14686276	-0.011379309
1276887910226	-0.10896278	9.152874	1.3075534	-0.5602093	0.0	-4.6875	-48.0625	-25.6875	0.2749864	0.14188714	0.011904199
1276887910265	-0.7218784	9.193735	1.2258313	-0.5035038	0.0	-5.25	-48.3125	-25.9375	0.43465558	0.13214953	0.07835775
1276887910305	-1.334794	9.302697	0.88532263	-0.36707115	0.0	-5.5	-48.3125	-25.6875	0.52671176	0.09392641	0.14251193
1276887910345	-1.3756552	9.534244	0.92618364	-0.12925148	0.0	-6.0	-48.5625	-24.9375	0.5650528	0.09585256	0.14329678
1276887910385	-1.4573772	9.997335	1.0351465	0.34924412	0.0	-6.25	-48.8125	-24.4375	0.5964835	0.102102995	0.14475691
1276887910425	-1.2258313	9.466142	0.5720546	-0.2443409	0.0	-6.5	-48.8125	-23.6875	0.54870176	0.05985964	0.12877974
1276887910465	-1.4982382	8.894087	0.5720546	-0.7691307	0.0	-7.0	-49.0625	-23.4375	0.63565636	0.06334009	0.16688651
1276887910505	-1.525479	9.343558	0.7218784	-0.31190014	0.0	-7.0	-49.0625	-24.1875	0.62525314	0.07610266	0.16183744
1276887910535	-1.2258313	9.575105	0.92618364	-0.10906696	0.0	-7.25	-48.8125	-24.1875	0.60074306	0.09565244	0.12733012
1276887910575	-0.84446156	9.507003	0.9942854	-0.21056652	0.0	-7.5	-48.8125	-24.4375	0.547508	0.10379996	0.08859271
1276887910605	-0.61291564	9.425281	0.84446156	-0.32378674	0.0	-7.25	-48.8125	-23.9375	0.48905587	0.08916945	0.064937465
1276887910645	-0.42223078	9.534244	0.88532263	-0.22208595	0.0	-7.25	-49.0625	-23.6875	0.45815644	0.09250149	0.0442568
1276887910845	-0.7218784	9.466142	1.0351465	-0.25675583	0.0	-7.25	-48.8125	-23.9375	0.5321588	0.10860688	0.07611168
1276887910875	-0.9125633	9.384419	0.9942854	-0.32568455	0.0	-7.5	-48.8125	-23.6875	0.5816454	0.10506493	0.096937604
1276887910905	-1.0351465	9.466142	0.88532263	-0.24301243	0.0	-7.5	-49.0625	-23.9375	0.582941	0.092704475	0.10891975
1276887910945	-1.1168685	9.507003	0.8036005	-0.20059586	0.0	-7.75	-48.8125	-23.1875	0.61086285	0.08375351	0.116942495
1276887910975	-1.1849703	9.384419	0.84446156	-0.31009293	0.0	-7.5	-49.8125	-23.1875	0.6294801	0.089040525	0.12560521
1276887911005	-1.2258313	9.384419	0.92618364	-0.29729652	0.0	-7.0	-50.0625	-23.4375	0.625725	0.09755177	0.12988868
1276887911045	-1.0760075	9.466142	0.92618364	-0.2346363	0.0	-7.25	-49.5625	-23.6875	0.59556997	0.09691116	0.11318327
1276887911085	-0.88532263	9.507003	0.7627395	-0.22809696	0.0	-7.25	-49.5625	-24.1875	0.52847284	0.07971431	0.092855416
1276887911115	-0.7218784	9.507003	0.88532263	-0.23126411	0.0	-7.5	-48.5625	-24.1875	0.5161278	0.09259041	0.0757858
1276887911155	-0.6946377	9.466142	0.88532263	-0.27385616	0.0	-7.5	-48.0625	-24.4375	0.50419647	0.093005285	0.07325
1276887911195	-0.9125633	9.425281	0.95342433	-0.28941822	0.0	-7.5	-48.0625	-24.4375	0.50419647	0.093005285	0.07325
1276887911235	-1.1168685	9.575105	1.0760075	-0.106762886	0.0	-7.25	-47.5625	-24.4375	0.5862689	0.11115868	0.11611824
1276887911275	-1.4165162	9.193735	0.84446156	-0.46617985	0.0	-7.75	-47.8125	-24.4375	0.637493	0.09053251	0.15287197
1276887911315	-1.4982382	9.112013	1.0760075	-0.5098076	0.0	-8.0	-48.0625	-24.1875	0.6985206	0.11599899	0.16296633
1276887911365	-0.29964766	10.079058	1.4165162	0.37586975	0.0	-8.0	-48.3125	-24.4375	0.4939843	0.13956517	0.029720975
1276887911405	0.23154591	9.656827	1.0351465	-0.09174156	0.0	-7.25	-48.5625	-24.4375	0.3082609	0.10675502	-0.023972837
1276887911445	-0.29964766	9.302697	0.95342433	-0.45042324	0.0	-6.75	-48.8125	-24.1875	0.41049382	0.102079846	0.032199707
1276887911475	-0.50395286	9.507003	1.1168685	-0.22101116	0.0	-6.75	-48.8125	-23.9375	0.47487783	0.11678001	0.05295903
1276887911505	-0.6946377	9.343558	1.0760075	-0.3757229	0.0	-6.75	-49.0625	-23.6875	0.5224397	0.114342496	0.07420751
1276887911535	-0.9942854	9.112013	1.0351465	-0.5822849	0.0	-7.75	-49.0625	-23.6875	0.6222737	0.11245559	0.10868807
1276887911575	-1.2258313	9.193735	0.92618364	-0.485425	0.0	-8.0	-49.3125	-23.6875	0.6547398	0.0995271	0.13255152
1276887911605	-0.7627395	9.697687	1.0760075	-0.019684792	0.0	-7.75	-49.5625	-24.1875	0.55629253	0.11016562	0.07849011
1276887911636	-0.38136974	9.615966	1.0351465	-0.12761307	0.0	-8.0	-49.3125	-24.1875	0.486405	0.10715219	0.039639283
1276887911675	-0.88532263	9.466142	0.84446156	-0.2617693	0.0	-8.0	-49.3125	-23.9375	0.57058567	0.08858854	0.09325391
1276887911715	-1.1168685	9.615966	0.95342433	-0.079203606	0.0	-8.0	-49.5625	-24.6875	0.6032797	0.09817146	0.11562921
1276887911755	-1.1168685	9.275456	1.1168685	-0.39767075	0.0	-8.0	-49.0625	-24.1875	0.64513767	0.11898295	0.11983423
1276887911795	-1.334794	9.302697	0.92618364	-0.36315155	0.0	-7.25	-49.0625	-24.4375	0.6237345	0.098234236	0.14251195
1276887911835	-1.2258313	9.615966	0.95342433	-0.06609154	0.0	-6.75	-49.5625	-24.9375	0.57305855	0.098038875	0.12679486
1276887911865	-0.8036005	9.575105	1.0351465	-0.1422863	0.0	-6.75	-49.0625	-24.6875	0.5098101	0.1073155	0.08372981
1276887911895	-0.5720546	9.615966	1.0760075	-0.1137743	0.0	-7.25	-49.3125	-25.1875	0.47814527	0.11123941	0.059420053
1276887911935	-0.8036005	9.575105	0.9942854	-0.14657688	0.0	-7.5	-49.5625	-25.1875	0.5255293	0.10310992	0.08372981
1276887911965	-0.8036005	9.425281	0.95342433	-0.29924774	0.0	-8.0	-49.3125	-24.6875	0.5529345	0.100451164	0.08505441
1276887912005	-0.7218784	9.507003	1.1168685	-0.20708752	0.0	-7.75	-49.3125	-24.4375	0.5517926	0.11660986	0.0757858
1276887912045	-0.7627395	9.384419	1.1168685	-0.3252735	0.0	-7.5	-49.0625	-24.1875	0.5583431	0.11807017	0.081098944
1276887912085	-0.84446156	9.275456	1.1168685	-0.42610645	0.0	-7.25	-49.0625	-23.9375	0.5744339	0.119345345	0.09079229
1276887912115	-0.9942854	9.507003	1.0351465	-0.19190979	0.0	-7.0	-48.8125	-24.6875	0.5555199	0.10787153	0.1042057
1276887912145	-0.9942854	9.534244	1.1168685	-0.15585709	0.0	-7.25	-48.5625	-24.9375	0.56624836	0.115988046	0.10391011
1276887912185	-0.7218784	9.466142	1.1849703	-0.239357	0.0	-6.5	-48.5625	-25.1875	0.49035895	0.12417525	0.076111674
1276887912225	-1.0351465	9.343558	1.1849703	-0.33153725	0.0	-6.5	-48.0625	-25.1875	0.5514972	0.12538965	0.11033723
1276887912265	-1.2666923	9.343558	1.2258313	-0.29827213	0.0	-6.5	-48.0625	-24.6875	0.6099988	0.12928098	0.13474701
1276887912305	-0.95342433	9.466142	1.3075534	-0.20318413	0.0	-6.75	-48.3125	-24.4375	0.57698315	0.13657854	0.1003809
1276887912345	-1.1849703	9.425281	0.92618364	-0.26212883	0.0	-7.25	-48.5625	-23.6875	0.60929614	0.09719119	0.12506635
1276887912385	-1.2258313	9.343558	0.92618364	-0.33761883	0.0	-7.75	-48.5625	-23.6875	0.6360013	0.097968504	0.1304503
1276887912425	-1.2258313	9.275456	1.0760075	-0.38887215	0.0	-8.0	-48.3125	-24.1875	0.6521299	0.11450284	0.13139713
1276887912465	-1.1168685	9.425281	1.0351465	-0.25914574	0.0	-7.75	-48.3125	-24.4375	0.60889894	0.10863418	0.11794711
1276887912505	-0.5720546	9.615966	1.1441092	-0.105978966	0.0	-8.0	-48.0625	-24.9375	0.5148461	0.1182164	0.059420053
1276887912535	-0.14982383	9.697687	1.1441092	-0.04055786	0.0	-7.75	-48.3125	-24.9375	0.4181079	0.11742083	0.01544821
1276887912575	-0.19068487	9.466142	0.92618364	-0.29339504	0.0	-7.75	-48.5625	-24.6875	0.41403174	0.097511634	0.020141162
1276887912605	-0.29964766	9.466142	0.95342433	-0.2878971	0.0	-7.5	-48.3125	-24.4375	0.43342265	0.10033098	0.03164411
1276887912635	-0.14982383	9.507003	1.2258313	-0.21977329	0.0	-7.25	-48.0625	-24.6875	0.4113245	0.12821655	0.015758008
1276887912675	-0.10896278	9.534244	1.2666923	-0.18801308	0.0	-7.5	-48.0625	-24.9375	0.41230214	0.1320751	0.011428074
1276887912715	-0.42223078	9.507003	1.2258313	-0.21164894	0.0	-7.5	-48.0625	-24.9375	0.41230214	0.1320751	0.011428074
1276887912755	-0.9125633	9.384419	1.1849703	-0.30379486	0.0	-7.75	-48.3125	-24.9375	0.581707	0.12502167	0.0969376
1276887912795	-1.0351465	9.343558	1.1849703	-0.33153725	0.0	-7.75	-48.3125	-24.4375	0.61727184	0.12538965	0.11033723
1276887912835	-1.0760075	9.343558	1.0351465	-0.34454727	0.0	-7.75	-48.0625	-24.1875	0.60918367	0.109618604	0.11465528
1276887912865	-1.0760075	9.425281	0.95342433	-0.27235794	0.0	-7.75	-48.3125	-23.9375	0.6038812	0.10016691	0.11366974
1276887912895	-0.95342433	9.534244	0.95342433	-0.17753601	0.0	-7.5	-47.8125	-23.6875	0.57313746	0.099177256	0.09966865
1276887912925	-0.95342433	9.534244	0.84446156	-0.18771362	0.0	-8.0	-48.3125	-23.9375	0.57516414	0.08790474	0.09966865
1276887912965	-0.88532263	9.534244	0.92618364	-0.18670082	0.0	-8.25	-48.5625	-23.6875	0.5894984	0.096426755	0.09259163
1276887913005	-0.7627395	9.466142	0.9942854	-0.25792217	0.0	-8.75	-48.5625	-23.9375	0.5902743	0.104316615	0.08040184
1276887913045	-0.84446156	9.302697	0.84446156	-0.42760944	0.0	-9.0	-49.0625	-23.9375	0.6016819	0.090159185	0.09052788
1276887913085	-0.6946377	9.466142	0.9942854	-0.26312065	0.0	-9.0	-49.3125	-23.6875	0.5972675	0.10437364	0.07325
1276887913115	-0.7627395	9.466142	0.92618364	-0.26477242	0.0	-8.5	-49.0625	-24.1875	0.56937516	0.09721821	0.08040184
1276887913145	-0.88532263	9.507003	0.95342433	-0.21103	0.0	-7.75	-49.0625	-23.9375	0.5723771	0.09952459	0.092855416
1276887913175	-0.9942854	9.466142	1.0351465	-0.23231125	0.0	-7.75	-49.3125	-24.1875	0.5991288	0.10832851	0.10465223
1276887913205	-0.9942854	9.425281	0.9942854	-0.2770586	0.0	-7.75	-49.0625	-23.9375	0.599708	0.10452686	0.105102606
1276887913245	-0.9125633	9.507003	0.92618364	-0.21114635	0.0	-8.0	-48.8125	-23.9375	0.58152485	0.096673176	0.095695354
1276887913285	-0.7218784	9.575105	0.95342433	-0.15715504	0.0	-8.5	-48.8125	-23.9375	0.5670065	0.0989671	0.07524882
1276887913325	-0.7218784	9.575105	0.92618364	-0.15980816	0.0	-8.75	-48.3125	-23.9375	0.5703369	0.09615711	0.07524882
1276887913365	-0.6946377	9.507003	0.92618364	-0.22941494	0.0	-8.5	-48.3125	-24.4375	0.54651594	0.09685816	0.07293629
1276887913405	-0.7627395	9.425281	0.9942854	-0.29842758	0.0	-8.5	-48.8125	-24.4375	0.57172215	0.104762636	0.08074889
1276887913435	-0.88532263	9.466142	1.0351465	-0.24301243	0.0	-8.25	-48.5625	-24.4375	0.58705527	0.1084502	0.09325392
1276887913465	-0.88532263	9.425281	0.9942854	-0.28781033	0.0	-8.5	-48.8125	-24.4375	0.59350234	0.10464536	0.09365585
1276887913505	-0.9125633	9.384419	0.95342433	-0.32988262	0.0	-8.5	-48.8125	-24.6875	0.5884573	0.10077698	0.0969376
1276887913535	-0.84446156	9.466142	1.0351465	-0.24670887	0.0	-8.5	-48.5625	-25.1875	0.5713048	0.1084923	0.08897311
1276887913565	-0.7218784	9.534244	1.1168685	-0.18010807	0.0	-8.75	-48.8125	-25.4375	0.56226796	0.11628157	0.07557009
1276887913605	-0.6537767	9.534244	1.0760075	-0.18963337	0.0	-8.5	-49.0625	-25.6875	0.53188264	0.11212055	0.06846425
1276887913635	-0.6537767	9.466142	1.0351465	-0.26166248	0.0	-8.5	-49.0625	-25.6875	0.53188264	0.11212055	0.06846425
1276887913675	-0.6946377	9.466142	1.0351465	-0.25877666	0.0	-8.75	-49.3125	-25.1875	0.55769444	0.108629964	0.07325
1276887913715	-0.7218784	9.343558	1.1168685	-0.3689289	0.0	-9.0	-49.0625	-24.6875	0.59585315	0.11861888	0.077106304
1276887913755	-0.8036005	9.343558	1.0760075	-0.36707115	0.0	-8.75	-48.8125	-24.6875	0.594806	0.114237234	0.0857947
1276887913795	-0.8036005	9.275456	0.88532263	-0.4544487	0.0	-9.0	-48.5625	-24.1875	0.5918747	0.09480659	0.086421505
1276887913835	-0.6946377	9.534244	1.1168685	-0.1821127	0.0	-9.0	-48.0625	-23.6875	0.6047536	0.116305895	0.072728634
1276887913865	-0.61291564	9.697687	1.1849703	-0.017627716	0.0	-8.75	-48.3125	-23.9375	0.57970405	0.12134853	0.063118294
1276887913895	-0.8036005	9.534244	0.9942854	-0.18707752	0.0	-9.25	-48.3125	-23.6875	0.6182198	0.1035456	0.08408697
1276887913925	-1.0760075	9.234595	0.8036005	-0.4749136	0.0	-9.5	-48.5625	-24.1875	0.6443863	0.086221576	0.115996115
1276887913965	-1.0351465	9.193735	0.88532263	-0.51256084	0.0	-9.5	-49.3125	-24.4375	0.6479517	0.09540117	0.1121204
1276887914005	-0.8036005	9.575105	0.95342433	-0.15069771	0.0	-9.5	-49.5625	-24.6875	0.6030003	0.09890069	0.08372981
1276887914045	-0.7218784	9.575105	0.84446156	-0.16731167	0.0	-9.25	-49.8125	-24.6875	0.5684512	0.0877182	0.07524882
1276887914085	-0.8036005	9.575105	0.9942854	-0.14657688	0.0	-9.0	-49.5625	-24.4375	0.59676254	0.10310992	0.08372981
1276887914115	-0.88532263	9.534244	1.1849703	-0.15834713	0.0	-8.75	-49.5625	-24.1875	0.6350409	0.12312732	0.092591636
1276887914155	-0.9125633	9.425281	1.0351465	-0.28088474	0.0	-8.75	-49.3125	-23.6875	0.63408977	0.10888308	0.09651996
1276887914195	-0.84446156	9.343558	1.0351465	-0.36807442	0.0	-8.5	-49.0625	-23.6875	0.61413425	0.10989294	0.09013413
1276887914235	-1.0351465	9.343558	1.0760075	-0.34454727	0.0	-8.25	-49.3125	-23.6875	0.6464051	0.11396411	0.11033723
1276887914275	-1.879608	8.580819	-0.38136974	-1.0141068	0.0	-8.5	-48.5625	-23.6875	0.6299216	-0.043387834	0.2156417
1276887914315	-0.8036005	10.310603	2.3426998	0.7972431	0.0	-8.5	-48.5625	-24.1875	0.7541048	0.22276615	0.07778199
1276887914355	-0.23154591	9.697687	1.4165162	-0.003320694	0.0	-8.5	-48.3125	-24.1875	0.51672626	0.14500095	0.02387187
1276887914395	-1.1168685	8.894087	0.61291564	-0.82178307	0.0	-7.75	-48.3125	-24.1875	0.5799475	0.068269454	0.12492039
1276887914435	-1.2666923	9.343558	0.7627395	-0.34682178	0.0	-7.5	-48.8125	-24.4375	0.5979373	0.08071694	0.13474701
1276887914465	-0.7627395	9.80665	1.1849703	0.10073662	0.0	-7.0	-48.8125	-23.9375	0.5387047	0.11989173	0.07762151
1276887914505	-0.6537767	9.534244	1.334794	-0.15725136	0.0	-7.0	-49.5625	-23.9375	0.5496588	0.13877423	0.06846426
1276887914545	-1.1168685	9.302697	1.1441092	-0.36755276	0.0	-7.25	-49.5625	-23.6875	0.6386452	0.121508375	0.11948666
1276887914575	-1.4165162	9.302697	0.95342433	-0.34854698	0.0	-7.0	-49.3125	-24.1875	0.6402124	0.10097654	0.15110868
1276887914615	-1.1441092	9.384419	1.0760075	-0.29170895	0.0	-6.75	-49.5625	-25.1875	0.57593983	0.11332852	0.121317126
1276887914655	-0.53119355	9.425281	1.3075534	-0.27628994	0.0	-6.25	-48.5625	-25.4375	0.44961622	0.13763286	0.05629883
1276887914695	-0.61291564	9.507003	1.0760075	-0.21933746	0.0	-6.25	-48.5625	-25.6875	0.43527046	0.1124694	0.06438082
1276887914735	-0.9942854	9.507003	0.9942854	-0.19622326	0.0	-6.25	-49.3125	-25.4375	0.50976574	0.10364449	0.1042057
1276887914775	-1.0760075	9.384419	1.1849703	-0.2867098	0.0	-6.5	-48.8125	-24.4375	0.5810035	0.12479612	0.114160396
1276887914815	-1.2666923	9.234595	1.1849703	-0.41056538	0.0	-7.0	-49.0625	-24.9375	0.6281616	0.1264499	0.13631745
1276887914855	-1.2666923	9.384419	1.0760075	-0.27619267	0.0	-7.0	-48.8125	-25.1875	0.60031414	0.11314322	0.13416733
1276887914885	-1.1168685	9.534244	0.95342433	-0.15998173	0.0	-7.0	-48.0625	-25.1875	0.55073583	0.098996185	0.11661139
1276887914915	-1.1849703	9.466142	0.95342433	-0.21910572	0.0	-7.0	-48.0625	-25.6875	0.55344284	0.0996087	0.12453208
1276887914945	-1.4165162	9.384419	1.0760075	-0.25512505	0.0	-7.0	-48.3125	-25.1875	0.62077653	0.1128926	0.14981246
1276887914975	-1.7297841	9.152874	1.1168685	-0.42503738	0.0	-7.5	-48.8125	-24.9375	0.70752233	0.11933167	0.18678512
1276887915005	-1.6889231	9.193735	1.1168685	-0.3925848	0.0	-7.75	-49.0625	-24.9375	0.70945704	0.11891837	0.18167807
1276887915045	-1.2258313	9.425281	1.1441092	-0.2333765	0.0	-8.0	-49.0625	-24.6875	0.6484595	0.119797096	0.12933184
1276887915085	-0.95342433	9.507003	0.9942854	-0.20036411	0.0	-7.75	-48.5625	-24.4375	0.574812	0.10368933	0.09995234
1276887915115	-0.8036005	9.507003	1.1441092	-0.19739151	0.0	-7.25	-48.3125	-24.6875	0.5397083	0.11934633	0.08432677
1276887915145	-0.7218784	9.534244	1.1849703	-0.17196941	0.0	-6.75	-48.0625	-24.1875	0.5181189	0.123302296	0.0755701
1276887915185	-0.50395286	9.507003	1.4165162	-0.18149662	0.0	-6.5	-48.0625	-24.1875	0.49067602	0.14770466	0.05295903
1276887915225	-0.61291564	9.275456	1.1849703	-0.43574238	0.0	-6.25	-48.5625	-23.9375	0.49059138	0.12679148	0.06598337
1276887915265	-0.9125633	9.302697	0.9942854	-0.40656757	0.0	-6.25	-48.3125	-23.9375	0.52730566	0.10597235	0.09778378
1276887915305	-1.0760075	9.384419	1.1168685	-0.29494572	0.0	-6.25	-48.3125	-24.4375	0.5591816	0.11769196	0.11416039
1276887915345	-1.0760075	9.507003	1.1849703	-0.16584873	0.0	-5.75	-48.5625	-24.4375	0.5457807	0.12322361	0.112700924
1276887915385	-1.0760075	9.534244	1.2258313	-0.13389206	0.0	-5.75	-48.5625	-24.9375	0.5379862	0.12707198	0.11238162
1276887915425	-1.1168685	9.302697	1.1441092	-0.36755276	0.0	-6.0	-48.8125	-24.9375	0.55563897	0.121508375	0.11948666
1276887915465	-1.0760075	9.234595	1.1168685	-0.44273376	0.0	-5.75	-49.0625	-25.1875	0.5337147	0.119558275	0.11599613
1276887915495	-1.0760075	9.384419	1.1168685	-0.29494572	0.0	-6.0	-49.0625	-25.6875	0.5266056	0.11769196	0.11416039
1276887915535	-0.95342433	9.507003	0.95342433	-0.20450783	0.0	-6.0	-48.5625	-25.6875	0.47908014	0.09945676	0.09995233
1276887915565	-1.2258313	9.534244	1.0351465	-0.1383524	0.0	-5.75	-48.5625	-25.9375	0.52138406	0.107271664	0.12786992
1276887915605	-1.2666923	9.507003	1.1849703	-0.14270878	0.0	-6.25	-48.5625	-25.9375	0.5638508	0.122927055	0.13245767
1276887915645	-1.3075534	9.275456	1.0760075	-0.37788677	0.0	-6.25	-49.0625	-25.4375	0.5816768	0.11436885	0.14004636
1276887915685	-1.3075534	9.234595	0.88532263	-0.43801975	0.0	-6.5	-49.3125	-25.4375	0.57067025	0.09463983	0.1406579
1276887915725	-1.1441092	9.507003	0.9942854	-0.17956924	0.0	-6.75	-49.3125	-24.9375	0.5657922	0.10346455	0.119767874
1276887915765	-0.9942854	9.466142	0.95342433	-0.24080181	0.0	-6.5	-49.3125	-24.1875	0.5430013	0.099835366	0.10465224
1276887915805	-1.0760075	9.466142	0.9942854	-0.22780704	0.0	-6.75	-49.0625	-24.1875	0.5707794	0.10398746	0.11318327
1276887915845	-1.0351465	9.343558	1.1168685	-0.33981323	0.0	-6.5	-49.0625	-24.1875	0.5738976	0.118252344	0.11033723
1276887915875	-1.0351465	9.275456	1.0351465	-0.41638184	0.0	-6.0	-49.0625	-24.1875	0.5467361	0.11046058	0.111140706
1276887915905	-0.9942854	9.384419	0.9942854	-0.31747055	0.0	-6.25	-48.8125	-24.4375	0.53224546	0.10497365	0.10555685
1276887915935	-1.2258313	9.915613	0.9942854	0.23379993	0.0	-6.25	-48.5625	-24.4375	0.5548577	0.09919054	0.12300227
1276887915965	-1.3075534	9.724928	1.1441092	0.07226181	0.0	-6.25	-49.0625	-24.6875	0.5907128	0.11607375	0.13365225
1276887915995	-1.0351465	9.384419	1.3756552	-0.26561832	0.0	-6.75	-48.8125	-24.9375	0.59583664	0.14468737	0.109860666
1276887916035	-0.14982383	9.302697	1.3075534	-0.41131496	0.0	-6.25	-49.0625	-25.1875	0.37036437	0.13962372	0.016104026
1276887916075	-0.46309182	9.425281	0.9942854	-0.31776333	0.0	-6.25	-49.0625	-24.9375	0.41379285	0.1049769	0.04909347
1276887916115	-1.2666923	9.302697	1.0351465	-0.36121655	0.0	-6.25	-48.8125	-24.4375	0.59007317	0.10981283	0.1353317
1276887916145	-1.1849703	9.302697	1.2258313	-0.34900856	0.0	-6.5	-49.3125	-23.9375	0.6269405	0.12997845	0.12669691
1276887916185	-1.1441092	9.275456	1.0351465	-0.4037466	0.0	-7.0	-49.3125	-24.1875	0.6057444	0.110311545	0.12272811
1276887916225	-1.607201	9.343558	0.61291564	-0.30607986	0.0	-7.25	-49.3125	-24.9375	0.61757743	0.0645584	0.17034467
1276887916265	-1.3075534	9.534244	0.9942854	-0.13193607	0.0	-7.0	-49.3125	-24.6875	0.60701466	0.10295333	0.13629262
1276887916305	-0.61291564	9.534244	1.4573772	-0.14220905	0.0	-6.25	-48.5625	-24.9375	0.4930848	0.15137532	0.06419738
1276887916345	-1.2258313	9.152874	0.7218784	-0.54388237	0.0	-6.25	-48.0625	-24.9375	0.5350784	0.07801244	0.13313632
1276887916385	-1.607201	9.193735	0.6537767	-0.4506216	0.0	-6.25	-48.0625	-24.4375	0.59894645	0.06993458	0.17306598
1276887916425	-0.8036005	9.888372	1.1441092	0.18007469	0.0	-6.5	-48.8125	-24.6875	0.5018781	0.1148151	0.08108901
1276887916475	-0.6946377	9.00305	0.7218784	-0.7480335	0.0	-6.25	-49.3125	-24.4375	0.45521125	0.07977428	0.07700326
1276887916515	-0.7218784	9.765789	0.92618364	0.029485703	0.0	-5.5	-49.3125	-24.4375	0.43287316	0.09430104	0.07378491
1276887916555	-1.0351465	9.80665	0.9942854	0.10448074	0.0	-4.4375	-49.5625	-24.9375	0.4498462	0.10048911	0.10516613
1276887916595	-1.8387469	8.921328	1.1168685	-0.6295881	0.0	-4.1875	-48.8125	-24.6875	0.63882995	0.12200463	0.2032606
1276887916636	-1.7297841	8.962189	1.2666923	-0.5915823	0.0	-4.6875	-49.0625	-24.9375	0.6522232	0.13789542	0.19066462
1276887916675	-1.2258313	9.466142	0.38136974	-0.25385284	0.0	-5.5	-49.5625	-24.6875	0.47944736	0.039932925	0.12877974
1276887916715	-1.0351465	9.534244	0.6946377	-0.19125366	0.0	-6.0	-49.3125	-24.4375	0.49561682	0.07230522	0.108147815
1276887916755	-0.8036005	9.575105	1.1441092	-0.1300087	0.0	-6.0	-49.0625	-24.6875	0.4924056	0.11851135	0.08372981
1276887916795	-0.7627395	9.384419	1.0351465	-0.33455276	0.0	-5.75	-49.0625	-24.1875	0.47766852	0.10950247	0.08109895
1276887916835	-1.0351465	9.234595	0.92618364	-0.46817684	0.0	-5.5	-48.8125	-24.1875	0.51384217	0.09934267	0.11162842
1276887916875	-1.1441092	9.384419	1.334794	-0.25898075	0.0	-5.75	-48.5625	-23.9375	0.5965222	0.14026259	0.121317126
1276887916905	-1.334794	9.302697	1.2258313	-0.3290701	0.0	-6.0	-48.8125	-24.4375	0.618359	0.12970348	0.14251193
1276887916935	-1.4573772	9.234595	0.84446156	-0.41970158	0.0	-5.75	-48.8125	-24.6875	0.5789352	0.090083025	0.15652615
1276887916965	-1.6889231	9.615966	0.6537767	-0.021626472	0.0	-5.5	-49.3125	-23.9375	0.59286785	0.06686383	0.17386405
1276887916995	-1.334794	9.765789	0.95342433	0.0959425	0.0	-5.25	-49.3125	-23.6875	0.56015325	0.09642965	0.1358389
1276887917035	-0.53119355	9.425281	1.3075534	-0.27628994	0.0	-4.9375	-49.5625	-23.1875	0.44421983	0.13763286	0.05629883
1276887917075	-0.9125633	9.534244	1.0351465	-0.17305756	0.0	-5.5	-49.3125	-23.4375	0.5124502	0.107659616	0.095423594
1276887917115	-1.56634	9.302697	0.6946377	-0.34746838	0.0	-5.5	-49.0625	-24.1875	0.5816797	0.073501445	0.16681021
1276887917145	-1.7297841	9.043911	0.88532263	-0.55633736	0.0	-5.75	-49.3125	-24.1875	0.65174186	0.09585404	0.18898264
1276887917175	-1.7978859	9.152874	1.0351465	-0.42160797	0.0	-6.0	-49.0625	-24.1875	0.6830302	0.11052235	0.19395913
1276887917215	-1.4165162	9.425281	0.95342433	-0.227952	0.0	-5.75	-49.0625	-24.1875	0.59142274	0.099700995	0.14917259
1276887917255	-1.3075534	9.384419	0.7627395	-0.3009262	0.0	-6.0	-48.8125	-24.1875	0.55835986	0.08032637	0.13844109
1276887917295	-1.4165162	9.425281	0.9942854	-0.2237997	0.0	-5.75	-49.0625	-24.6875	0.5846487	0.10394382	0.1491726
1276887917335	-1.3075534	9.466142	1.1168685	-0.18558311	0.0	-5.5	-49.3125	-24.9375	0.5662349	0.116348036	0.13726093
1276887917375	-1.1849703	9.534244	1.0760075	-0.13898563	0.0	-5.25	-49.3125	-24.9375	0.5269429	0.11153071	0.12365164
1276887917415	-1.4165162	9.343558	1.0351465	-0.2998047	0.0	-5.25	-50.0625	-25.4375	0.5659614	0.10910063	0.1504578
1276887917455	-1.2258313	9.302697	1.1168685	-0.35729885	0.0	-4.9375	-50.3125	-25.9375	0.5220156	0.118472196	0.13101676
1276887917495	-0.9942854	9.275456	1.1849703	-0.40309525	0.0	-4.4375	-49.8125	-25.6875	0.46658355	0.12634891	0.106787525
1276887917535	-0.8036005	9.193735	0.7218784	-0.5496721	0.0	-4.1875	-49.8125	-26.4375	0.36132452	0.078061335	0.087185815
1276887917575	-1.0351465	9.615966	1.1849703	-0.06280708	0.0	-3.6875	-49.5625	-25.9375	0.42540967	0.121913984	0.107235774
1276887917615	-1.1441092	9.575105	1.334794	-0.071492195	0.0	-3.1875	-48.8125	-25.6875	0.44353154	0.13754395	0.118924074
1276887917655	-1.6480621	9.193735	1.1168685	-0.39982986	0.0	-3.6875	-48.8125	-25.9375	0.54647696	0.11901039	0.17737535
1276887917695	-1.7297841	9.343558	0.6946377	-0.2789669	0.0	-3.6875	-48.5625	-25.1875	0.5216783	0.07297205	0.18305863
1276887917745	-1.2666923	9.302697	0.7627395	-0.38717842	0.0	-3.6875	-48.3125	-25.1875	0.44610724	0.08106352	0.1353317
1276887917785	-1.4573772	9.425281	0.9942854	-0.21767426	0.0	-3.9375	-48.8125	-24.6875	0.52457577	0.10387718	0.15340938
1276887917825	-1.525479	9.425281	1.0351465	-0.20276928	0.0	-3.6875	-49.0625	-24.4375	0.54025936	0.10799398	0.16045828
1276887917865	-1.6480621	9.152874	0.9942854	-0.45358562	0.0	-3.6875	-49.3125	-24.6875	0.5661999	0.10650709	0.1781506
1276887917895	-1.4573772	9.234595	1.0351465	-0.40063	0.0	-3.6875	-49.3125	-24.4375	0.5378828	0.110274844	0.15652615
1276887917925	-1.3075534	9.425281	0.9942854	-0.23929882	0.0	-3.4375	-49.0625	-24.4375	0.48394147	0.10411283	0.1378485
1276887917955	-1.0351465	9.507003	0.9942854	-0.19190979	0.0	-3.1875	-49.3125	-24.9375	0.40633005	0.10359783	0.10845528
1276887917985	-1.0351465	9.384419	1.0351465	-0.30873585	0.0	-3.4375	-49.0625	-25.4375	0.41411516	0.10920364	0.10986067
1276887918015	-1.1441092	9.343558	1.2666923	-0.30846214	0.0	-3.1875	-49.0625	-26.4375	0.43272853	0.13375998	0.121842444
1276887918055	-1.1849703	9.425281	1.3075534	-0.21760654	0.0	-2.9375	-49.0625	-26.9375	0.42246264	0.13678525	0.12506637
1276887918095	-1.1441092	9.384419	1.1441092	-0.2837677	0.0	-2.9375	-48.8125	-26.4375	0.40701458	0.12043408	0.121317126
1276887918125	-1.0760075	9.302697	1.0760075	-0.38031673	0.0	-2.9375	-48.5625	-25.6875	0.40085676	0.11439846	0.11515447
1276887918155	-1.1168685	9.302697	1.0760075	-0.37556553	0.0	-3.4375	-48.5625	-24.9375	0.44448674	0.11434057	0.11948666
1276887918195	-1.1441092	9.343558	1.1168685	-0.32728004	0.0	-3.6875	-48.3125	-24.6875	0.46672797	0.11809527	0.12184245
1276887918235	-1.1849703	9.425281	1.1168685	-0.24174213	0.0	-3.9375	-49.0625	-24.9375	0.4825566	0.117034286	0.12506635
1276887918275	-1.334794	9.425281	0.9942854	-0.23553753	0.0	-3.9375	-49.8125	-25.1875	0.49866694	0.10407176	0.14068297
1276887918315	-1.525479	9.384419	0.92618364	-0.25404644	0.0	-3.6875	-49.5625	-24.9375	0.522385	0.0971087	0.16114493
1276887918355	-1.334794	9.466142	0.88532263	-0.20595646	0.0	-4.1875	-49.8125	-25.1875	0.49458173	0.09234564	0.14008363
1276887918395	-0.6946377	9.384419	0.84446156	-0.3587427	0.0	-3.9375	-49.0625	-25.1875	0.34906378	0.08950024	0.073885575
1276887918435	-0.53119355	9.234595	0.53119355	-0.5415497	0.0	-3.9375	-49.3125	-24.9375	0.29712996	0.05736419	0.05745881
1276887918465	-0.61291564	9.466142	0.61291564	-0.30090618	0.0	-3.9375	-49.8125	-24.6875	0.32169455	0.06452321	0.06465794
1276887918495	-0.7218784	9.656827	0.7627395	-0.092886925	0.0	-3.6875	-50.0625	-23.6875	0.3594684	0.07860243	0.07461439
1276887918535	-0.9942854	9.466142	0.6537767	-0.26600742	0.0	-3.9375	-50.0625	-22.6875	0.4435133	0.068579175	0.10465224
1276887918575	-1.2258313	9.302697	0.3405087	-0.41735935	0.0	-3.9375	-49.5625	-22.4375	0.465544	0.0362736	0.13101676
1276887918605	-1.1168685	9.384419	0.10896278	-0.3553753	0.0	-3.9375	-49.3125	-22.4375	0.41878045	0.011529152	0.11845589
1276887918645	-0.88532263	9.466142	0.08172209	-0.2988472	0.0	-3.9375	-49.3125	-22.6875	0.3651291	0.008595372	0.09325392
1276887918685	-0.8036005	9.466142	0.19068487	-0.30454636	0.0	-4.1875	-49.5625	-22.9375	0.36411312	0.020068994	0.08468903
1276887918725	-0.84446156	9.384419	0.313268	-0.37910652	0.0	-4.6875	-49.8125	-22.6875	0.40952817	0.033235133	0.08974378
1276887918765	-1.0351465	9.384419	0.42223078	-0.35587597	0.0	-4.9375	-50.0625	-22.4375	0.4749994	0.044691723	0.109860666
1276887918805	-1.0760075	9.507003	0.42223078	-0.22963715	0.0	-4.9375	-50.3125	-22.6875	0.4761251	0.044102233	0.11270092
1276887918845	-1.1441092	9.615966	0.3405087	-0.11687565	0.0	-4.9375	-50.0625	-22.6875	0.47670338	0.035148274	0.118423454
1276887918885	-1.2258313	9.615966	0.38136974	-0.10536671	0.0	-4.6875	-49.5625	-23.1875	0.47439757	0.0393214	0.12679486
1276887918915	-1.1849703	9.615966	0.6946377	-0.09307861	0.0	-4.4375	-49.5625	-23.4375	0.4842004	0.071573175	0.122611314
1276887918945	-1.1168685	9.656827	0.7627395	-0.055574417	0.0	-4.6875	-49.0625	-23.1875	0.48896036	0.07830105	0.11514427
1276887918975	-0.8036005	9.615966	0.6946377	-0.13219452	0.0	-4.4375	-49.0625	-23.1875	0.40872377	0.07186306	0.08337566
1276887919015	-0.50395286	9.466142	0.50395286	-0.3137169	0.0	-4.4375	-50.0625	-22.9375	0.33668968	0.053112127	0.0531872
1276887919055	-0.3405087	9.343558	0.5720546	-0.43940544	0.0	-4.6875	-50.0625	-22.6875	0.32056445	0.061107706	0.03642703
1276887919095	-1.0351465	9.234595	0.92618364	-0.46817684	0.0	-4.6875	-50.5625	-22.1875	0.5405486	0.09934267	0.11162842
1276887919125	-1.7570249	9.302697	0.95342433	-0.29159164	0.0	-4.6875	-50.8125	-22.1875	0.68560576	0.100370064	0.18667363
1276887919155	-1.6889231	9.343558	0.8036005	-0.27773	0.0	-4.6875	-50.5625	-22.1875	0.6477424	0.08443308	0.17882708
1276887919195	-1.3756552	9.384419	0.6946377	-0.2965355	0.0	-4.4375	-50.5625	-22.4375	0.55831563	0.07310709	0.1455526
1276887919235	-1.334794	9.343558	0.6537767	-0.3456154	0.0	-4.6875	-50.3125	-22.6875	0.54853076	0.069157146	0.14189705
1276887919275	-1.7978859	9.343558	0.8036005	-0.25781536	0.0	-4.9375	-50.3125	-22.4375	0.6657516	0.084256575	0.19009641
1276887919315	-1.920469	9.234595	0.92618364	-0.32911015	0.0	-4.9375	-50.5625	-21.9375	0.7245196	0.097880274	0.20504199
1276887919355	-1.56634	9.152874	0.7218784	-0.49270153	0.0	-5.5	-50.5625	-21.6875	0.6638706	0.077582896	0.16948913
1276887919395	-1.2258313	9.193735	0.7627395	-0.50024414	0.0	-5.25	-51.0625	-21.6875	0.59861296	0.082050584	0.13255152
1276887919435	-1.2666923	9.384419	0.6537767	-0.3145876	0.0	-5.5	-50.8125	-21.9375	0.5855874	0.06893072	0.13416734
1276887919475	-1.7978859	9.275456	0.46309182	-0.34721375	0.0	-5.5	-50.5625	-21.9375	0.6555734	0.048975118	0.1914584
1276887919515	-1.7570249	9.302697	0.7627395	-0.30880356	0.0	-5.25	-51.0625	-21.4375	0.6988346	0.080393136	0.18667364
1276887919555	-1.4165162	9.466142	0.61291564	-0.2155075	0.0	-5.75	-50.8125	-21.1875	0.63332516	0.063947916	0.14853814
1276887919595	-1.4165162	9.425281	0.38136974	-0.2678938	0.0	-5.75	-51.0625	-20.9375	0.61142755	0.039991733	0.14917259
1276887919625	-1.4982382	9.302697	0.53119355	-0.36911583	0.0	-6.0	-50.8125	-21.1875	0.6509479	0.056314964	0.15968296
1276887919665	-1.607201	9.234595	0.50395286	-0.41970158	0.0	-6.25	-50.8125	-21.9375	0.6570751	0.05371237	0.1723153
1276887919705	-1.879608	9.275456	0.50395286	-0.32925606	0.0	-5.5	-50.5625	-22.1875	0.66751057	0.05319929	0.1999358
1276887919745	-1.9477097	9.466142	0.50395286	-0.12907887	0.0	-4.9375	-50.8125	-21.9375	0.6614534	0.052097872	0.20292342
1276887919785	-1.879608	9.507003	0.38136974	-0.10812092	0.0	-4.9375	-51.0625	-22.1875	0.6297257	0.039332572	0.1951905
1276887919825	-1.6889231	9.343558	0.50395286	-0.29831123	0.0	-4.6875	-50.8125	-21.9375	0.6155971	0.053025994	0.17882708
1276887919865	-1.4982382	9.193735	0.7218784	-0.46370697	0.0	-4.6875	-51.0625	-21.9375	0.6186474	0.077341646	0.1615429
1276887919905	-1.4165162	9.275456	0.6946377	-0.39797688	0.0	-4.6875	-51.0625	-22.9375	0.57131374	0.07389674	0.15154572
1276887919935	-1.334794	9.466142	0.6537767	-0.22453499	0.0	-4.1875	-50.8125	-22.9375	0.5231398	0.068281904	0.14008364
1276887919965	-1.1849703	9.534244	0.6537767	-0.17683315	0.0	-3.6875	-50.3125	-23.4375	0.45773414	0.06794313	0.12365163
1276887919999	-1.0351465	9.575105	0.6946377	-0.15073586	0.0	-3.6875	-50.0625	-23.4375	0.42811978	0.07200129	0.10768987
1276887920035	-0.95342433	9.534244	0.7627395	-0.19454384	0.0	-3.6875	-49.8125	-23.6875	0.41254336	0.07943547	0.099668644
1276887920075	-1.2258313	9.275456	0.7627395	-0.4195032	0.0	-3.4375	-49.5625	-24.1875	0.45670277	0.08134327	0.13139713
1276887920115	-1.3756552	9.384419	0.7627395	-0.2913189	0.0	-3.6875	-49.5625	-24.1875	0.49196202	0.08024509	0.14555262
1276887920146	-1.2258313	9.507003	0.7218784	-0.19380093	0.0	-3.1875	-49.3125	-24.6875	0.42397982	0.07516591	0.1282323
1276887920185	-0.9942854	9.534244	0.7218784	-0.19355965	0.0	-2.9375	-49.0625	-24.4375	0.3687975	0.07516403	0.10391011
1276887920225	-1.0760075	9.575105	0.84446156	-0.1343422	0.0	-2.9375	-49.0625	-24.4375	0.3687975	0.07516403	0.10391011
1276887920265	-1.334794	9.343558	0.84446156	-0.3305292	0.0	-2.9375	-49.0625	-24.4375	0.3687975	0.07516403	0.10391011
1276887920315	-0.9942854	9.466142	0.92618364	-0.24347782	0.0	-2.9375	-49.0625	-24.4375	0.3687975	0.07516403	0.10391011
1276887920355	-0.88532263	9.534244	0.8036005	-0.19772816	0.0	-3.1875	-49.0625	-24.6875	0.35909483	0.083728455	0.092591636
1276887920395	-0.95342433	9.302697	0.95342433	-0.40674496	0.0	-2.9375	-48.8125	-24.4375	0.38636267	0.101603866	0.10213241
1276887920435	-1.1441092	9.302697	1.1168685	-0.36755276	0.0	-2.4375	-48.5625	-25.1875	0.4073984	0.11860151	0.12237231
1276887920475	-1.0760075	9.384419	1.0351465	-0.3041954	0.0	-2.9375	-48.3125	-25.6875	0.39251733	0.10915125	0.11416039
1276887920515	-1.1849703	9.343558	1.0351465	-0.33153725	0.0	-2.6875	-48.5625	-25.4375	0.41241974	0.109467484	0.12614872
1276887920555	-1.2258313	9.425281	1.0351465	-0.24578667	0.0	-3.4375	-49.0625	-25.6875	0.4468935	0.10848179	0.12933186
1276887920595	-1.1849703	9.425281	0.92618364	-0.26212883	0.0	-3.6875	-49.3125	-25.1875	0.44889802	0.09719119	0.12506635
1276887920635	-1.1849703	9.425281	0.9942854	-0.2552805	0.0	-3.4375	-49.5625	-24.9375	0.45261103	0.104287654	0.12506637
1276887920675	-1.3756552	9.425281	0.92618364	-0.23658466	0.0	-3.4375	-49.5625	-24.9375	0.45261103	0.104287654	0.12506637
1276887920715	-1.3075534	9.302697	0.88532263	-0.3708849	0.0	-2.9375	-49.3125	-24.9375	0.448972	0.09396449	0.13964158
1276887920755	-1.3075534	9.302697	0.9942854	-0.36003876	0.0	-3.1875	-49.3125	-24.9375	0.4704138	0.10544844	0.13964157
1276887920795	-1.56634	9.384419	0.9942854	-0.24059772	0.0	-3.9375	-49.8125	-24.4375	0.5602175	0.10412701	0.16538404
1276887920835	-1.879608	9.302697	0.95342433	-0.26819515	0.0	-4.4375	-49.8125	-24.1875	0.6354677	0.10012304	0.19936574
1276887920875	-2.1792557	9.234595	0.8036005	-0.2844305	0.0	-4.9375	-50.0625	-23.4375	0.700482	0.08449263	0.23174825
1276887920915	-2.070293	9.112013	0.8036005	-0.42791557	0.0	-5.75	-50.3125	-22.9375	0.7290201	0.08578844	0.22341199
1276887920945	-1.9885708	9.00305	0.6946377	-0.5604706	0.0	-6.0	-49.8125	-22.6875	0.71642417	0.075197846	0.21738711
1276887920975	-1.9885708	9.00305	0.6537767	-0.56344986	0.0	-6.5	-50.0625	-23.1875	0.7143679	0.070789665	0.21738711
1276887921005	-1.879608	9.193735	0.84446156	-0.3848238	0.0	-6.75	-49.8125	-23.1875	0.72196674	0.089748666	0.20166539
1276887921045	-1.7570249	9.466142	0.95342433	-0.1317339	0.0	-6.75	-50.3125	-23.1875	0.71221864	0.0987062	0.18352297
1276887921085	-1.6889231	9.343558	0.95342433	-0.26392746	0.0	-6.25	-50.5625	-22.9375	0.70047086	0.10007812	0.17882708
1276887921125	-1.6480621	9.275456	0.95342433	-0.3377943	0.0	-5.75	-50.8125	-21.9375	0.71112776	0.100861475	0.17584474
1276887921165	-2.1383946	9.152874	0.6537767	-0.38458824	0.0	-5.25	-51.5625	-21.9375	0.7389938	0.06944366	0.22951417
1276887921205	-2.2609777	9.152874	0.61291564	-0.3587513	0.0	-4.6875	-50.8125	-21.4375	0.7417488	0.064918816	0.24217558
1276887921245	-1.8387469	9.302697	0.6537767	-0.30146313	0.0	-4.4375	-50.8125	-21.9375	0.6544372	0.06883539	0.19514205
1276887921285	-1.6889231	9.384419	0.53119355	-0.25667858	0.0	-4.4375	-50.3125	-22.4375	0.5932856	0.055651248	0.17806482
1276887921325	-1.920469	9.275456	0.5720546	-0.31720638	0.0	-4.9375	-50.3125	-22.4375	0.6571673	0.060319833	0.20416366
1276887921365	-1.9885708	9.112013	0.6537767	-0.45728588	0.0	-4.6875	-50.5625	-22.6875	0.673554	0.06998451	0.21486728
1276887921405	-1.879608	9.234595	0.61291564	-0.36279774	0.0	-4.4375	-50.5625	-22.1875	0.6500814	0.06494667	0.20079693
1276887921445	-1.879608	9.384419	0.7218784	-0.20866203	0.0	-3.9375	-50.5625	-22.4375	0.6353528	0.07528252	0.19767468
1276887921475	-1.7978859	9.384419	0.6537767	-0.22922134	0.0	-2.9375	-50.0625	-22.9375	0.5614034	0.06831536	0.18928838
1276887921505	-1.7297841	9.193735	0.50395286	-0.43803787	0.0	-2.4375	-50.0625	-22.6875	0.5268317	0.0538176	0.185974
1276887921545	-1.607201	9.112013	0.84446156	-0.5155268	0.0	-1.9375	-49.8125	-22.9375	0.5206978	0.09101467	0.17458692
1276887921595	-0.8036005	9.507003	0.8036005	-0.2319622	0.0	-1.6875	-49.8125	-23.1875	0.30070287	0.08402853	0.08432677
1276887921635	-0.84446156	9.466142	0.8036005	-0.26900196	0.0	-0.9375	-49.8125	-23.4375	0.2724912	0.08435563	0.08897311
1276887921675	-1.2258313	9.384419	0.5720546	-0.3252344	0.0	-0.1875	-49.8125	-24.1875	0.3039098	0.060370967	0.12988868
1276887921715	-1.334794	9.615966	0.50395286	-0.08541393	0.0	0.3125	-49.8125	-24.4375	0.29086417	0.05186366	0.1379288
1276887921755	-1.1849703	9.275456	0.6537767	-0.4329815	0.0	1.0625	-49.5625	-24.1875	0.2474436	0.06980275	0.12706502
1276887921795	-1.1849703	9.343558	0.7627395	-0.3574171	0.0	1.3125	-49.5625	-23.6875	0.24625412	0.08080764	0.12614872
1276887921835	-0.95342433	9.615966	0.7218784	-0.116607666	0.0	1.3125	-49.5625	-23.6875	0.24625412	0.08080764	0.12614872
1276887921875	-0.46309182	9.507003	0.7627395	-0.25786304	0.0	0.8125	-50.0625	-23.9375	0.081583224	0.07996335	0.04867213
1276887921915	-0.6537767	9.384419	0.6946377	-0.3738737	0.0	0.8125	-50.0625	-23.9375	0.081583224	0.07996335	0.04867213
1276887921945	-0.88532263	9.466142	0.61291564	-0.2794628	0.0	0.3125	-49.8125	-24.1875	0.20373973	0.064377785	0.09325392
1276887921975	-0.84446156	9.507003	0.50395286	-0.2489214	0.0	0.3125	-49.5625	-24.1875	0.18684286	0.052751727	0.08859271
1276887922005	-0.6946377	9.534244	0.38136974	-0.23953152	0.0	0.5625	-49.0625	-23.6875	0.13746007	0.039873116	0.07272864
1276887922045	-0.6946377	9.615966	0.42223078	-0.15638638	0.0	0.8125	-49.0625	-23.1875	0.12888943	0.043767262	0.07211269
1276887922085	-0.95342433	9.425281	0.50395286	-0.31987476	0.0	0.5625	-49.3125	-22.6875	0.21622309	0.053146634	0.10081314
1276887922125	-0.8036005	9.507003	0.46309182	-0.2545128	0.0	0.0625	-49.8125	-22.1875	0.20625336	0.04849945	0.08432676
1276887922165	-0.3405087	9.425281	0.53119355	-0.3602743	0.0	0.0625	-49.8125	-22.4375	0.08832675	0.056262203	0.036111463
1276887922205	-0.6946377	9.724928	0.08172209	-0.056602478	0.0	-0.4375	-49.8125	-22.4375	0.17904681	0.008381809	0.071307465
1276887922245	-0.61291564	9.615966	0.19068487	-0.16928387	0.0	-0.6875	-49.8125	-22.1875	0.17985679	0.019787285	0.06365327
1276887922285	-0.5720546	9.80665	0.10896278	0.017274857	0.0	-0.9375	-49.5625	-21.9375	0.17683886	0.0110918	0.058267303
1276887922325	-0.19068487	10.119919	0.10896278	0.3156519	0.0	-1.1875	-50.0625	-21.6875	0.1004017	0.010764833	0.0188403
1276887922365	-0.10896278	9.193735	-0.23154591	-0.609354	0.0	-1.4375	-50.3125	-21.4375	0.08936215	-0.025178092	0.011851297
1276887922405	-0.88532263	9.193735	-0.0	-0.5703869	0.0	-1.4375	-50.3125	-21.4375	0.08936215	-0.025178092	0.011851297
1276887922445	-0.9125633	9.724928	0.08172209	-0.038658142	0.0	-1.4375	-50.5625	-21.1875	0.28814495	0.008366412	0.093563564
1276887922475	-0.53119355	9.847511	-0.10896278	0.055779457	0.0	-1.4375	-50.5625	-20.4375	0.19557421	-0.011048494	0.05388968
1276887922505	-0.23154591	9.656827	-0.14982383	-0.14588547	0.0	-1.9375	-50.8125	-19.9375	0.15108944	-0.015509108	0.02397284
1276887922545	-0.84446156	9.534244	0.08172209	-0.23473358	0.0	-2.4375	-51.3125	-19.4375	0.35086957	0.008537797	0.0883409
1276887922585	-0.95342433	9.234595	-0.0	-0.52296734	0.0	-2.9375	-51.0625	-18.9375	0.40711844	-0.0	0.10288032
1276887922625	-0.95342433	9.384419	-0.040861044	-0.37383366	0.0	-3.4375	-51.0625	-19.4375	0.41162685	-0.0043318104	0.10124911
1276887922655	-1.0351465	9.915613	-0.5720546	0.17924786	0.0	-4.1875	-50.5625	-20.1875	0.38837546	-0.057317626	0.10401882
1276887922695	-0.88532263	8.962189	-0.23154591	-0.79786396	0.0	-4.6875	-50.0625	-20.1875	0.42029068	-0.025705062	0.09846475
1276887922735	-0.29964766	7.7363577	-0.7627395	-2.0270104	0.0	-4.9375	-50.3125	-20.6875	0.26358584	-0.09820079	0.038713045
1276887922775	-1.6480621	9.575105	0.8036005	-0.057572365	0.0	-5.5	-49.8125	-20.4375	0.70205057	0.08252199	0.17044939
1276887922815	-1.3756552	9.915613	0.61291564	0.22268009	0.0	-4.9375	-50.0625	-20.1875	0.60118574	0.061150424	0.13785629
1276887922855	-2.2609777	8.853226	0.08172209	-0.6689091	0.0	-3.9375	-50.0625	-20.1875	0.68676156	0.008943477	0.25004008
1276887922915	-2.4925237	9.234595	0.10896278	-0.2409668	0.0	-3.4375	-50.0625	-19.1875	0.7203217	0.011391256	0.26362938
1276887922945	-1.3075534	8.921328	-0.0	-0.7900114	0.0	-2.4375	-50.3125	-19.1875	0.46839273	-0.0	0.14552875
1276887922975	-1.920469	9.466142	0.08172209	-0.14731693	0.0	-2.1875	-50.8125	-18.4375	0.59693635	0.008460528	0.20016104
1276887923005	-1.6889231	9.80665	0.10896278	0.14496899	0.0	-2.9375	-50.8125	-17.9375	0.58494073	0.01094947	0.17054915
1276887923035	-1.0760075	9.956474	-0.3405087	0.2135849	0.0	-3.4375	-50.3125	-19.1875	0.40009853	-0.033988655	0.10765332
1276887923075	-1.6480621	9.697687	-0.61291564	0.04915619	0.0	-3.9375	-50.3125	-18.6875	0.5161592	-0.062228434	0.16833557
1276887923115	-2.982856	8.539958	0.14982383	-0.7595091	0.0	-4.1875	-50.0625	-18.4375	0.85832435	0.016561108	0.33603528
1276887923155	-0.7627395	8.19945	0.6537767	-1.5458899	0.0	-4.6875	-50.5625	-18.9375	0.5595912	0.07922529	0.092756316
1276887923195	-1.6889231	10.269742	1.2258313	0.67298317	0.0	-4.9375	-50.8125	-18.6875	0.79812384	0.11724113	0.16299722
1276887923235	-0.8036005	10.882658	0.95342433	1.1472092	0.0	-5.25	-51.0625	-19.4375	0.5412592	0.08715031	0.07370852
1276887923275	-1.525479	10.378705	-0.53119355	0.6970053	0.0	-5.5	-50.3125	-20.9375	0.4993814	-0.050593834	0.1459367
1276887923315	-0.61291564	9.575105	-0.10896278	-0.21133041	0.0	-5.25	-49.5625	-21.9375	0.3576059	-0.011356071	0.06392416
1276887923355	-0.27240697	8.580819	1.3075534	-1.1225061	0.0	-4.6875	-49.5625	-22.4375	0.40135312	0.1511427	0.031735376
1276887923395	-0.0	10.119919	1.4165162	0.41192436	0.0	-4.9375	-48.8125	-23.4375	0.29168412	0.13906954	0.0
1276887923435	-2.2201166	9.234595	1.3756552	-0.20982265	0.0	-5.5	-49.0625	-23.1875	0.8011564	0.14384028	0.23593543
1276887923465	-1.920469	9.302697	-0.6946377	-0.28242302	0.0	-5.5	-49.0625	-22.9375	0.52706134	-0.07299857	0.20358221
1276887923499	-1.525479	9.112013	-0.3405087	-0.56155396	0.0	-5.75	-48.8125	-22.4375	0.5167976	-0.03683961	0.16587576
1276887923535	-1.4573772	9.656827	0.6537767	-0.018612862	0.0	-5.75	-49.0625	-21.4375	0.6203355	0.066843204	0.14978644
1276887923575	-1.334794	9.956474	0.5720546	0.25517368	0.0	-5.25	-49.0625	-21.1875	0.5665567	0.056884643	0.13326831
1276887923615	-1.7978859	9.997335	0.08172209	0.35138988	0.0	-5.75	-48.8125	-20.6875	0.6134612	0.008045151	0.17793457
1276887923655	-1.3756552	9.084772	0.84446156	-0.5795908	0.0	-6.0	-48.8125	-20.6875	0.68321955	0.09164836	0.1502826
1276887923695	-1.1168685	9.847511	0.53119355	0.118219376	0.0	-6.5	-49.0625	-20.6875	0.58528185	0.05354705	0.11293373
1276887923735	-1.7978859	9.425281	0.88532263	-0.17067051	0.0	-6.5	-49.0625	-20.6875	0.58528185	0.05354705	0.11293373
1276887923775	-1.3075534	7.5456724	0.7218784	-2.1145778	0.0	-5.75	-49.8125	-21.1875	0.70720416	0.093985364	0.17158134
1276887923815	-0.7627395	6.973618	0.10896278	-2.790598	0.0	-5.25	-50.0625	-21.6875	0.47132578	0.015531121	0.10894196
1276887923855	-1.3756552	8.730643	1.0760075	-0.9030361	0.0	-4.9375	-50.0625	-21.9375	0.67300314	0.12114676	0.15628141
1276887923895	-2.4925237	10.18802	1.7297841	0.82352257	0.0	-5.25	-50.5625	-22.4375	0.873081	0.1634508	0.23993935
1276887923935	-0.7627395	10.337844	1.0760075	0.61499023	0.0	-5.75	-49.8125	-22.9375	0.48749205	0.10343175	0.07364784
1276887923975	-0.27240697	9.847511	0.38136974	0.05200672	0.0	-6.0	-49.0625	-23.4375	0.32917246	0.0386934	0.027655466
1276887924005	-0.7627395	9.615966	0.84446156	-0.12358856	0.0	-5.75	-48.3125	-24.1875	0.44684398	0.08732111	0.07915438
1276887924045	-0.46309182	9.112013	0.88532263	-0.6400242	0.0	-5.5	-47.5625	-25.1875	0.36797836	0.096731864	0.050778434
1276887924086	-0.6537767	9.466142	0.9942854	-0.26600742	0.0	-5.25	-47.5625	-25.4375	0.3955458	0.104405336	0.06895525
1276887924125	-1.2258313	9.656827	1.7978859	0.092308044	0.0	-4.6875	-48.0625	-25.1875	0.5833765	0.18263741	0.12626404
1276887924159	-1.56634	10.378705	1.1168685	0.7488384	0.0	-4.6875	-48.3125	-24.9375	0.5387301	0.106007695	0.14978825
1276887924195	-1.6480621	10.419566	0.95342433	0.7854452	0.0	-4.9375	-48.3125	-24.4375	0.5533761	0.090134814	0.15687038
1276887924235	-1.2666923	10.56939	0.61291564	0.85600376	0.0	-5.25	-48.3125	-24.1875	0.47288573	0.057514165	0.11927647
1276887924275	-1.0351465	10.419566	0.92618364	0.7050915	0.0	-6.5	-47.8125	-24.9375	0.49566308	0.088223845	0.099021494
1276887924315	-0.3405087	9.765789	1.0760075	0.024136543	0.0	-7.0	-48.0625	-24.6875	0.4220667	0.10967256	0.034853388
1276887924355	-1.2666923	9.534244	0.84446156	-0.15162945	0.0	-7.25	-48.5625	-23.9375	0.60317636	0.08757536	0.13208362
1276887924395	-1.334794	9.084772	0.38136974	-0.6164274	0.0	-7.5	-48.8125	-23.4375	0.59475845	0.041509256	0.14588277
1276887924435	-0.8036005	8.62168	0.27240697	-1.1433163	0.0	-6.75	-50.0625	-21.4375	0.5194243	0.03144885	0.09293843
1276887924475	-1.1168685	9.084772	0.6537767	-0.63016415	0.0	-6.25	-50.0625	-20.6875	0.6226575	0.071305186	0.12232472
1276887924505	-1.1441092	7.9679036	0.6946377	-1.727109	0.0	-5.75	-50.3125	-20.1875	0.67938584	0.08608116	0.14261493
1276887924545	-1.3756552	8.962189	0.53119355	-0.72395134	0.0	-5.25	-50.3125	-19.4375	0.6593934	0.0585175	0.15230672
1276887924585	-0.6946377	9.507003	0.14982383	-0.2731266	0.0	-5.5	-50.0625	-19.9375	0.4448994	0.015716119	0.07293629
1276887924625	-1.1441092	9.234595	-0.040861044	-0.5013609	0.0	-6.5	-50.3125	-19.9375	0.56006575	-0.004391177	0.123265676
1276887924655	-0.8036005	10.228881	0.9942854	0.501811	0.0	-8.0	-49.8125	-19.9375	0.6659929	0.09660351	0.07840089
1276887924695	-0.29964766	9.275456	0.38136974	-0.51852226	0.0	-9.0	-49.8125	-19.6875	0.5412746	0.04107146	0.032294206
1276887924735	-0.61291564	9.234595	0.27240697	-0.5477295	0.0	-10.0	-49.3125	-19.9375	0.62128735	0.029425276	0.06627448
1276887924775	-1.3075534	8.117727	0.6946377	-1.5550013	0.0	-10.25	-49.3125	-19.6875	0.85385543	0.08428144	0.15970209
1276887924815	-1.6480621	8.812365	0.95342433	-0.79094696	0.0	-9.5	-49.3125	-19.6875	0.8989374	0.10594963	0.18488133
1276887924855	-1.525479	10.119919	1.6889231	0.56602097	0.0	-9.0	-49.3125	-20.1875	0.92691696	0.1635525	0.14961383
1276887924895	-0.14982383	9.343558	0.7627395	-0.43081474	0.0	-8.5	-48.8125	-20.4375	0.5147322	0.08144163	0.016033612
1276887924935	-1.1849703	9.80665	0.7218784	0.09767437	0.0	-7.5	-48.5625	-21.1875	0.64383894	0.072949864	0.12025035
1276887924965	-1.4982382	9.656827	0.61291564	-0.015088081	0.0	-7.25	-48.5625	-21.6875	0.66293395	0.062637255	0.1539209
1276887924995	-1.3756552	8.962189	0.84446156	-0.7002592	0.0	-6.75	-48.3125	-22.1875	0.6676591	0.09286627	0.15230672
1276887925035	-1.9477097	7.8180795	0.84446156	-1.7054739	0.0	-6.0	-48.8125	-22.1875	0.7951803	0.10442908	0.24415864
1276887925065	-2.0294318	9.765789	1.1441092	0.233181	0.0	-4.9375	-49.3125	-22.4375	0.721392	0.114205115	0.2048941
1276887925105	-1.3075534	10.882658	1.1441092	1.2138271	0.0	-3.4375	-49.5625	-22.6875	0.48963138	0.10400407	0.11957698
1276887925135	-0.7627395	9.234595	0.46309182	-0.52904415	0.0	-1.9375	-50.3125	-22.4375	0.2959666	0.04993576	0.082408816
1276887925165	-1.1168685	9.847511	0.42223078	0.11298466	0.0	-0.9375	-50.5625	-22.6875	0.31231028	0.042578015	0.11293374
1276887925205	-0.8036005	9.656827	0.27240697	-0.11261654	0.0	-0.6875	-50.3125	-22.4375	0.22708943	0.028104175	0.083024494
1276887925245	-1.0760075	9.697687	0.46309182	-0.03846836	0.0	-0.6875	-49.8125	-22.1875	0.30210772	0.047425967	0.11050307
1276887925285	-1.6889231	10.079058	0.61291564	0.4312954	0.0	-0.9375	-49.8125	-22.1875	0.44469005	0.059902873	0.16602509
1276887925325	-0.84446156	10.337844	-0.23154591	0.5682106	0.0	-0.9375	-49.8125	-22.1875	0.44469005	0.059902873	0.16602509
1276887925365	-0.5720546	10.56939	0.14982383	0.7792702	0.0	-1.6875	-49.5625	-21.6875	0.20500714	0.014153595	0.054070953
1276887925425	-0.5720546	9.847511	0.46309182	0.068327904	0.0	-2.4375	-50.0625	-21.1875	0.27621323	0.046912685	0.05802608
1276887925465	-0.5720546	9.302697	0.38136974	-0.47858143	0.0	-3.9375	-49.8125	-20.9375	0.35416985	0.040895503	0.06141608
1276887925495	-0.5720546	9.152874	0.6946377	-0.6096468	0.0	-5.5	-50.0625	-20.1875	0.4840007	0.0756007	0.06241881
1276887925535	-0.88532263	7.5865335	0.313268	-2.1622128	0.0	-6.75	-50.8125	-19.9375	0.61353445	0.040991344	0.11617115
1276887925565	-1.1168685	9.043911	0.19068487	-0.6920414	0.0	-8.0	-50.8125	-19.6875	0.64968073	0.020922322	0.12287186
1276887925605	-0.7218784	9.888372	0.95342433	0.15377331	0.0	-9.0	-50.8125	-19.4375	0.71632254	0.09586805	0.07287348
1276887925635	-0.50395286	9.302697	1.1441092	-0.42032337	0.0	-10.25	-50.5625	-19.1875	0.78586775	0.122194916	0.054119866
1276887925665	0.040861044	9.043911	1.0351465	-0.70359993	0.0	-11.0	-49.8125	-19.6875	0.65976995	0.11396076	-0.0045180414
1276887925705	-0.10896278	9.425281	0.3405087	-0.37459183	0.0	-11.75	-49.5625	-19.6875	0.60314035	0.036109053	0.011560178
1276887925745	-0.9125633	9.152874	1.0760075	-0.5456753	0.0	-12.25	-49.3125	-19.9375	0.875797	0.11645029	0.09937397
1276887925785	-1.0760075	9.084772	0.92618364	-0.6116142	0.0	-12.75	-49.3125	-19.9375	0.88670313	0.10089759	0.11789156
1276887925825	-1.1441092	9.302697	1.2666923	-0.3486557	0.0	-13.5	-49.0625	-19.4375	0.98150694	0.13433185	0.122372314
1276887925865	-0.46309182	9.084772	1.2666923	-0.6223135	0.0	-14.25	-49.0625	-19.6875	0.9161186	0.13835979	0.05093043
1276887925905	-0.6946377	9.384419	1.1849703	-0.32224178	0.0	-14.5	-48.8125	-19.6875	0.92597634	0.12526612	0.073885575
1276887925945	-0.88532263	9.343558	1.0760075	-0.35976315	0.0	-14.25	-48.0625	-20.1875	0.9031591	0.114148475	0.09447014
1276887925985	-0.6537767	9.425281	0.88532263	-0.31733322	0.0	-13.5	-48.0625	-20.9375	0.7954256	0.09343264	0.069253236
1276887926025	-0.5720546	9.80665	1.2666923	0.098002434	0.0	-12.25	-48.3125	-21.4375	0.7807034	0.12823983	0.058267303
1276887926065	-0.6946377	9.534244	1.2666923	-0.16357899	0.0	-11.25	-48.3125	-21.9375	0.75914556	0.1317385	0.07272864
1276887926105	-0.38136974	10.079058	1.1441092	0.34430218	0.0	-10.75	-48.3125	-22.1875	0.64661247	0.11294956	0.03781979
1276887926135	-1.0760075	9.043911	1.7297841	-0.53614426	0.0	-11.25	-48.3125	-21.6875	0.9294264	0.18769008	0.118419245
1276887926175	-0.9942854	9.302697	1.2258313	-0.37100315	0.0	-11.75	-47.8125	-21.1875	0.8411047	0.13028316	0.10647719
1276887926215	-0.6946377	9.656827	1.334794	-0.03329277	0.0	-12.75	-48.3125	-20.6875	0.856293	0.13700296	0.071808614
1276887926255	-0.5720546	9.697687	1.1168685	-0.028113365	0.0	-13.25	-48.8125	-20.1875	0.8349788	0.11446613	0.05892049
1276887926295	-0.7627395	9.507003	0.7218784	-0.24181938	0.0	-13.0	-48.8125	-20.4375	0.78767234	0.07554399	0.08005775
1276887926335	-0.6537767	9.656827	0.95342433	-0.080872536	0.0	-13.0	-49.3125	-20.6875	0.799404	0.09818835	0.067597836
1276887926375	-0.5720546	9.724928	0.95342433	-0.018366814	0.0	-12.0	-49.5625	-20.6875	0.75453156	0.09755933	0.058755826
1276887926415	-0.50395286	9.534244	1.1168685	-0.19399357	0.0	-11.75	-49.8125	-20.4375	0.7774984	0.1164503	0.052807994
1276887926455	-0.61291564	9.302697	0.6946377	-0.45794106	0.0	-11.25	-50.3125	-20.1875	0.723425	0.0743716	0.06579071
1276887926485	-1.0760075	9.152874	0.9942854	-0.5372658	0.0	-10.5	-50.3125	-19.6875	0.84916323	0.10747229	0.1170224
1276887926525	-0.7218784	9.084772	0.46309182	-0.6814842	0.0	-11.25	-50.0625	-19.6875	0.72382873	0.050770674	0.07929366
1276887926565	-0.53119355	9.302697	0.7627395	-0.45763302	0.0	-11.0	-50.0625	-19.6875	0.7256949	0.08167577	0.05703909
1276887926605	-0.50395286	9.507003	0.53119355	-0.271492	0.0	-10.75	-50.0625	-19.4375	0.6769979	0.055737793	0.05295903
1276887926645	-0.46309182	9.507003	0.46309182	-0.27711678	0.0	-11.25	-49.5625	-19.1875	0.6826608	0.048614584	0.048672132
1276887926685	-0.50395286	9.302697	0.10896278	-0.48967552	0.0	-10.5	-49.5625	-18.4375	0.63512176	0.011695349	0.05411987
1276887926725	-0.53119355	9.724928	0.46309182	-0.056221962	0.0	-11.0	-50.0625	-17.9375	0.72205496	0.047512382	0.054567624
1276887926765	-0.42223078	9.888372	0.6946377	0.115078926	0.0	-11.0	-50.3125	-17.6875	0.74799603	0.07006908	0.042673804
1276887926805	-0.42223078	9.343558	0.08172209	-0.45320034	0.0	-11.25	-51.5625	-17.4375	0.6737805	0.008737218	0.04515878
1276887926869	-0.50395286	8.962189	0.10896278	-0.8296423	0.0	-12.0	-52.0625	-17.1875	0.7327102	0.012138283	0.05617185
1276887926917	-0.9942854	9.425281	0.19068487	-0.32715225	0.0	-11.75	-52.0625	-16.9375	0.82256943	0.020116858	0.105102606
1276887926955	-0.9125633	8.689782	0.5720546	-1.0503759	0.0	-12.25	-52.0625	-16.6875	0.92232376	0.06537739	0.10463216
1276887926986	-0.7627395	9.507003	-0.040861044	-0.2690115	0.0	-12.75	-51.3125	-17.1875	0.7681746	-0.0042842017	0.080057755
1276887927025	-0.53119355	9.615966	1.0760075	-0.11610031	0.0	-12.75	-50.8125	-17.6875	0.9121106	0.111266226	0.055184703
1276887927055	-0.19068487	8.853226	1.334794	-0.8513365	0.0	-12.75	-49.8125	-18.9375	0.8834645	0.14960799	0.021535132
1276887927095	-0.19068487	7.7363577	0.61291564	-2.0437088	0.0	-12.25	-49.3125	-20.1875	0.691631	0.07903631	0.024642898
1276887927125	-0.9125633	11.727119	0.27240697	1.9590759	0.0	-10.75	-49.0625	-21.4375	0.62059826	0.023154654	0.077659994
1276887927165	-0.38136974	10.528529	0.7627395	0.75635815	0.0	-9.5	-49.0625	-22.9375	0.5271202	0.072271444	0.03620668
1276887927205	-0.84446156	9.384419	0.6537767	-0.36165905	0.0	-8.5	-49.5625	-23.4375	0.5727358	0.069274805	0.08974378
1276887927245	-0.95342433	9.765789	1.334794	0.0959425	0.0	-7.5	-49.8125	-23.6875	0.6296944	0.13520393	0.097320594
1276887927285	-1.334794	9.534244	1.1168685	-0.11485577	0.0	-7.25	-50.3125	-23.4375	0.6758278	0.11549516	0.13909593
1276887927325	-1.0351465	9.275456	0.88532263	-0.43171406	0.0	-6.5	-49.5625	-23.1875	0.57377625	0.094575986	0.11114071
1276887927365	-0.9942854	9.343558	1.0760075	-0.34893036	0.0	-6.0	-49.5625	-23.9375	0.55093056	0.11401716	0.10601503
1276887927405	-1.4165162	9.466142	1.1849703	-0.16203976	0.0	-5.75	-49.3125	-23.9375	0.6283988	0.1231747	0.14853813
1276887927445	-1.7297841	9.112013	1.0760075	-0.4696951	0.0	-5.25	-48.5625	-24.1875	0.651497	0.115498416	0.18760324
1276887927485	-1.7978859	9.084772	1.1168685	-0.47858143	0.0	-5.25	-48.8125	-24.6875	0.6586445	0.12001996	0.19537653
1276887927525	-1.334794	9.384419	1.0760075	-0.26690197	0.0	-4.9375	-48.3125	-24.4375	0.5524495	0.11303256	0.14128743
1276887927565	-0.9125633	9.615966	1.0760075	-0.087732315	0.0	-4.9375	-48.3125	-24.4375	0.5524495	0.11303256	0.14128743
1276887927605	-0.9942854	9.534244	1.0760075	-0.16050053	0.0	-4.9375	-48.5625	-24.6875	0.47798118	0.11178052	0.1039101
1276887927635	-1.2258313	9.384419	1.1849703	-0.26861382	0.0	-4.9375	-48.8125	-24.1875	0.55568075	0.12455812	0.12988867
1276887927665	-1.0760075	9.302697	1.2258313	-0.36204147	0.0	-4.9375	-49.0625	-24.1875	0.53641224	0.13015884	0.11515447
1276887927695	-0.6537767	9.384419	1.3075534	-0.3090477	0.0	-4.9375	-48.8125	-24.4375	0.44263595	0.1381106	0.069553815
1276887927735	-0.6946377	9.425281	1.4165162	-0.25024128	0.0	-4.4375	-48.8125	-24.4375	0.44047588	0.14877506	0.07356642
1276887927775	-0.9125633	9.302697	1.3756552	-0.35861492	0.0	-4.1875	-49.0625	-24.6875	0.47600877	0.1461217	0.09778378
1276887927815	-1.2258313	9.152874	1.2666923	-0.48558426	0.0	-3.9375	-48.8125	-24.9375	0.5183493	0.13631745	0.13313633
1276887927855	-1.525479	9.234595	1.2258313	-0.36697292	0.0	-3.1875	-49.3125	-25.1875	0.53836733	0.13022722	0.16371328
1276887927898	-2.1792557	9.615966	0.92618364	0.096570015	0.0	-3.9375	-49.3125	-25.4375	0.6140134	0.093660355	0.2228643
1276887927945	-2.4516625	9.302697	1.0760075	-0.12632942	0.0	-3.6875	-49.0625	-25.4375	0.67414075	0.11138428	0.25768402
1276887927975	-1.607201	8.962189	1.1168685	-0.6332474	0.0	-3.4375	-49.5625	-25.6875	0.5535594	0.12205354	0.17744514
1276887928005	-0.7218784	9.043911	1.0760075	-0.6703911	0.0	-3.4375	-49.3125	-25.6875	0.35625336	0.1180473	0.07965041
1276887928035	-0.88532263	9.112013	1.0351465	-0.5933933	0.0	-2.4375	-49.5625	-25.6875	0.34625423	0.11259176	0.09685593
1276887928065	-1.3075534	9.275456	1.1168685	-0.37313652	0.0	-1.9375	-49.5625	-26.4375	0.40747663	0.118672036	0.14004636
1276887928105	-1.6889231	9.193735	1.1168685	-0.3925848	0.0	-1.9375	-49.3125	-25.9375	0.49485683	0.11891837	0.18167807
1276887928135	-1.879608	9.384419	1.0351465	-0.18003178	0.0	-2.1875	-49.3125	-25.9375	0.5205518	0.107737914	0.19767466
1276887928165	-1.9477097	9.507003	0.8036005	-0.06896782	0.0	-1.9375	-49.0625	-25.9375	0.49198848	0.08261878	0.20207486
1276887928205	-1.9885708	9.466142	0.9942854	-0.08292389	0.0	-2.1875	-49.0625	-25.9375	0.5285557	0.10243258	0.2070611
1276887928245	-1.1441092	9.466142	1.2666923	-0.18784904	0.0	-1.6875	-49.5625	-26.1875	0.37251523	0.13207284	0.12027989
1276887928285	-0.53119355	9.234595	1.2666923	-0.47046185	0.0	-0.9375	-49.5625	-26.4375	0.19170406	0.13609526	0.05745881
1276887928325	-0.7627395	9.193735	1.2666923	-0.49477386	0.0	-0.9375	-49.5625	-26.6875	0.24970928	0.1364528	0.0827734
1276887928365	-1.3756552	9.425281	1.1849703	-0.20808315	0.0	-0.9375	-49.3125	-26.4375	0.37872985	0.12376859	0.14493042
1276887928405	-1.920469	9.534244	1.1441092	-0.013847351	0.0	-0.6875	-48.5625	-26.6875	0.45536506	0.11709908	0.19876881
1276887928435	-2.070293	9.425281	1.0760075	-0.09687042	0.0	-0.4375	-48.3125	-26.9375	0.4642342	0.11104496	0.21621948
1276887928465	-1.879608	9.275456	1.0760075	-0.2816925	0.0	-0.1875	-48.3125	-26.6875	0.43269217	0.11320884	0.1999358
1276887928495	-1.1168685	9.343558	0.9942854	-0.34419346	0.0	0.5625	-48.3125	-26.4375	0.2389775	0.105271205	0.118969046
1276887928525	-0.7218784	9.384419	1.0760075	-0.3332014	0.0	0.8125	-48.3125	-25.9375	0.1417295	0.113827035	0.07677189
1276887928565	-0.88532263	9.466142	1.2666923	-0.21518803	0.0	1.0625	-48.8125	-25.1875	0.18597777	0.1324515	0.09325392
1276887928605	-1.2258313	9.384419	1.334794	-0.2488432	0.0	1.0625	-48.5625	-25.1875	0.28019994	0.14011283	0.12988868
1276887928635	-1.3756552	9.302697	1.2258313	-0.3232298	0.0	1.0625	-48.5625	-25.4375	0.30849758	0.12962314	0.14681305
1276887928675	-1.2666923	9.384419	1.2258313	-0.25811672	0.0	1.0625	-48.5625	-25.6875	0.27517632	0.12873429	0.13416734
1276887928705	-1.1168685	9.425281	1.1168685	-0.24993992	0.0	1.0625	-48.0625	-26.6875	0.21654664	0.11713514	0.11794711
1276887928745	-1.0760075	9.425281	1.0351465	-0.26383972	0.0	1.3125	-48.3125	-26.4375	0.19575654	0.108687826	0.11366974
1276887928785	-1.1441092	9.466142	1.0351465	-0.21559429	0.0	1.3125	-48.5625	-26.6875	0.20917748	0.108138956	0.12027989
1276887928825	-1.4573772	9.275456	1.1168685	-0.35120487	0.0	1.3125	-48.8125	-26.6875	0.29347432	0.11839549	0.15584773
1276887928865	-1.525479	9.302697	1.0760075	-0.3184967	0.0	1.0625	-48.8125	-25.9375	0.32563692	0.11364986	0.16253586
1276887928905	-1.3756552	9.384419	1.0760075	-0.26109886	0.0	0.8125	-48.5625	-26.4375	0.29091606	0.11296354	0.1455526
1276887928945	-1.3075534	9.384419	1.1168685	-0.26597786	0.0	0.8125	-48.3125	-26.1875	0.27992445	0.11733296	0.13844109
1276887928985	-1.334794	9.343558	1.1168685	-0.3023796	0.0	0.5625	-47.8125	-26.1875	0.2947971	0.11778443	0.14189705
1276887929025	-1.525479	9.302697	1.0351465	-0.32304382	0.0	0.3125	-48.0625	-26.4375	0.34026667	0.10936905	0.16253586
1276887929055	-1.525479	9.302697	0.95342433	-0.33161545	0.0	0.8125	-48.0625	-26.1875	0.31692457	0.100795485	0.16253586
1276887929085	-1.4165162	9.302697	0.95342433	-0.34854698	0.0	0.3125	-48.0625	-25.9375	0.3184263	0.10097654	0.15110868
1276887929115	-1.4165162	9.343558	0.9942854	-0.3041668	0.0	0.5625	-48.8125	-25.9375	0.31514856	0.104826145	0.1504578
1276887929145	-1.4165162	9.343558	0.95342433	-0.30835533	0.0	0.3125	-48.5625	-25.4375	0.3279696	0.100547805	0.1504578
1276887929185	-1.4982382	9.302697	0.9942854	-0.3317623	0.0	-0.1875	-48.8125	-25.1875	0.37829688	0.10513257	0.15968296
1276887929225	-1.6889231	9.275456	1.0351465	-0.32202625	0.0	-0.1875	-49.0625	-25.4375	0.42135674	0.109357275	0.18011193
1276887929265	-1.525479	9.302697	0.92618364	-0.33431816	0.0	-0.4375	-48.5625	-25.4375	0.38198683	0.09793426	0.16253586
1276887929295	-1.4573772	9.343558	0.84446156	-0.31248665	0.0	-0.1875	-48.8125	-26.1875	0.33990565	0.08906303	0.15472993
1276887929335	-1.4165162	9.425281	0.92618364	-0.23062515	0.0	0.0625	-49.3125	-26.4375	0.32459393	0.096870445	0.14917259
1276887929375	-1.3756552	9.302697	0.9942854	-0.35037136	0.0	0.5625	-49.0625	-26.4375	0.3029817	0.10534024	0.14681305
1276887929415	-1.4573772	9.302697	1.0351465	-0.33376026	0.0	0.0625	-49.0625	-26.1875	0.34845576	0.10949328	0.15539868
1276887929455	-1.525479	9.343558	1.0351465	-0.28295898	0.0	0.0625	-49.3125	-26.1875	0.36324766	0.108906895	0.16183744
1276887929485	-1.56634	9.302697	1.0351465	-0.31638527	0.0	-0.1875	-48.8125	-26.4375	0.375433	0.10929201	0.16681021
1276887929515	-1.4982382	9.302697	0.95342433	-0.33596325	0.0	-0.6875	-49.3125	-26.1875	0.3827034	0.10084192	0.15968294
1276887929555	-1.4165162	9.343558	0.95342433	-0.30835533	0.0	0.0625	-49.5625	-26.4375	0.3317792	0.100547805	0.1504578
1276887929595	-1.2666923	9.343558	0.9942854	-0.32534313	0.0	0.3125	-49.0625	-25.9375	0.2947293	0.105061136	0.13474703
1276887929635	-1.1849703	9.466142	1.0351465	-0.21063423	0.0	0.3125	-49.0625	-25.9375	0.2947293	0.105061136	0.13474703
1276887929665	-1.2258313	9.425281	0.9942854	-0.25012493	0.0	0.3125	-48.8125	-25.6875	0.28397894	0.10423119	0.12933184
1276887929695	-1.3075534	9.384419	1.0351465	-0.2751999	0.0	0.3125	-48.8125	-25.6875	0.28397894	0.10423119	0.12933184
1276887929725	-1.3075534	9.343558	1.0351465	-0.31542778	0.0	0.0625	-48.8125	-25.9375	0.3158841	0.10928094	0.13903877
1276887929765	-1.3756552	9.343558	1.0760075	-0.30126762	0.0	-0.1875	-48.8125	-25.9375	0.34489828	0.11344298	0.14618014
1276887929805	-1.4165162	9.384419	1.1168685	-0.25043488	0.0	0.0625	-48.8125	-26.4375	0.33704707	0.11714124	0.14981246
1276887929845	-1.4165162	9.343558	1.0351465	-0.2998047	0.0	0.3125	-48.5625	-26.4375	0.31979716	0.10910063	0.1504578
1276887929885	-1.3756552	9.302697	0.95342433	-0.35458088	0.0	0.5625	-48.8125	-26.4375	0.29816875	0.10104122	0.14681304
1276887929925	-1.3075534	9.425281	0.9942854	-0.23929882	0.0	1.3125	-48.8125	-26.4375	0.24916694	0.10411283	0.1378485
1276887929955	-1.4165162	9.384419	1.0760075	-0.25512505	0.0	1.5625	-49.0625	-26.4375	0.2712193	0.1128926	0.14981246
1276887929985	-1.4165162	9.343558	1.1168685	-0.29055882	0.0	1.5625	-49.3125	-26.4375	0.27776092	0.11763744	0.1504578
1276887930015	-1.525479	9.302697	1.1168685	-0.31377602	0.0	1.5625	-49.5625	-26.9375	0.2996827	0.11792649	0.16253586
1276887930045	-1.56634	9.275456	1.1441092	-0.3305483	0.0	1.0625	-49.5625	-26.6875	0.3369093	0.121031545	0.16729102
1276887930075	-1.525479	9.302697	1.1441092	-0.31053257	0.0	1.3125	-49.0625	-26.9375	0.30804116	0.12077519	0.16253588
1276887930115	-1.4573772	9.343558	1.1168685	-0.28439045	0.0	0.8125	-49.0625	-26.9375	0.31065255	0.117560886	0.15472993
1276887930145	-1.3075534	9.384419	1.1168685	-0.26597786	0.0	1.0625	-48.5625	-26.6875	0.26451832	0.11733296	0.13844109
1276887930175	-1.2258313	9.425281	1.1441092	-0.2333765	0.0	1.3125	-48.8125	-27.1875	0.23147477	0.119797096	0.12933184
1276887930215	-1.2258313	9.384419	1.1441092	-0.27360344	0.0	1.0625	-49.5625	-27.1875	0.24930055	0.12030506	0.12988867
1276887930255	-1.2666923	9.384419	1.1168685	-0.271492	0.0	1.0625	-49.8125	-27.4375	0.25582075	0.117401116	0.13416734
1276887930295	-1.4165162	9.425281	1.1441092	-0.20709705	0.0	1.0625	-49.8125	-27.1875	0.29237962	0.11946757	0.1491726
1276887930335	-1.4573772	9.343558	1.0760075	-0.28909683	0.0	1.3125	-49.5625	-26.6875	0.2938306	0.11329728	0.15472993
1276887930375	-1.4982382	9.343558	1.0760075	-0.2827549	0.0	1.3125	-48.8125	-26.9375	0.2933306	0.11322151	0.15899637
1276887930415	-1.56634	9.384419	1.0351465	-0.23626518	0.0	1.8125	-48.3125	-26.6875	0.2812239	0.10837344	0.16538404
1276887930455	-1.4982382	9.425281	0.9942854	-0.21137905	0.0	1.8125	-48.5625	-26.9375	0.26155317	0.10380879	0.1576406
1276887930485	-1.4573772	9.425281	1.0760075	-0.20885563	0.0	1.3125	-48.5625	-26.6875	0.28225398	0.11234605	0.15340936
1276887930515	-1.3756552	9.384419	1.1441092	-0.2531824	0.0	1.3125	-48.8125	-25.9375	0.2821329	0.12004666	0.1455526
1276887930555	-1.334794	9.384419	1.1441092	-0.25898075	0.0	1.3125	-48.5625	-25.9375	0.27060357	0.120119914	0.14128742
1276887930595	-1.3756552	9.343558	1.1441092	-0.2933178	0.0	1.5625	-48.5625	-25.6875	0.2736204	0.12055558	0.14618012
1276887930635	-1.4573772	9.343558	1.1441092	-0.2811575	0.0	1.8125	-48.8125	-26.1875	0.2768559	0.12040093	0.15472993
1276887930675	-1.4982382	9.343558	1.0351465	-0.28728485	0.0	2.0625	-48.8125	-26.6875	0.2616767	0.10895658	0.15899637
1276887930705	-1.4982382	9.384419	0.9942854	-0.25151253	0.0	1.8125	-49.3125	-26.4375	0.27516648	0.104246385	0.1583156
1276887930735	-1.4573772	9.343558	0.92618364	-0.3048687	0.0	1.3125	-49.0625	-26.1875	0.28580981	0.097629756	0.15472992
1276887930775	-1.334794	9.425281	0.84446156	-0.24993992	0.0	1.8125	-48.8125	-25.6875	0.23284873	0.0884786	0.14068297
1276887930815	-1.334794	9.466142	0.92618364	-0.20210266	0.0	1.5625	-48.8125	-24.9375	0.25585973	0.09658187	0.14008364
1276887930855	-1.334794	9.384419	0.84446156	-0.29023743	0.0	1.8125	-48.8125	-25.1875	0.2397599	0.08885425	0.14128742
1276887930895	-1.2666923	9.425281	0.84446156	-0.2592144	0.0	2.0625	-49.3125	-25.1875	0.21475197	0.08856478	0.1335926
1276887930935	-1.4165162	9.343558	0.88532263	-0.31494904	0.0	1.5625	-49.3125	-24.6875	0.2842665	0.09340912	0.1504578
1276887930975	-1.7570249	9.302697	0.92618364	-0.2942829	0.0	1.3125	-49.3125	-25.1875	0.36908072	0.09752077	0.18667363
1276887931005	-2.1383946	9.234595	0.84446156	-0.29015923	0.0	0.8125	-49.3125	-24.6875	0.47062004	0.08885352	0.22755277
1276887931045	-2.3018389	9.234595	0.7218784	-0.2621584	0.0	0.3125	-49.3125	-24.6875	0.50568855	0.075705275	0.24428448
1276887931075	-2.0294318	9.275456	0.8036005	-0.27782726	0.0	0.3125	-49.5625	-25.1875	0.4553781	0.08443394	0.2154015
1276887931105	-1.8387469	9.234595	0.8036005	-0.35654354	0.0	0.5625	-49.5625	-24.9375	0.41519648	0.08513895	0.1965445
1276887931135	-1.6889231	9.275456	0.7627395	-0.34788036	0.0	1.0625	-49.5625	-24.9375	0.3584537	0.08072599	0.18011193
1276887931175	-1.6480621	9.343558	0.84446156	-0.28135204	0.0	1.5625	-49.5625	-24.9375	0.33230233	0.08877115	0.17458905
1276887931215	-1.4573772	9.343558	0.84446156	-0.31248665	0.0	1.5625	-49.3125	-24.9375	0.2874577	0.08906303	0.15472993
1276887931255	-1.4165162	9.384419	0.84446156	-0.27843094	0.0	1.5625	-49.5625	-24.9375	0.27840135	0.088743865	0.14981247
1276887931295	-1.334794	9.343558	0.84446156	-0.3305292	0.0	1.0625	-49.3125	-25.1875	0.2783439	0.08923306	0.14189705
1276887931335	-1.3756552	9.384419	0.88532263	-0.28070927	0.0	0.8125	-49.0625	-25.1875	0.29792833	0.093072385	0.14555262
1276887931365	-1.4982382	9.343558	0.88532263	-0.30240917	0.0	0.8125	-48.8125	-25.4375	0.3210723	0.09328551	0.15899637
1276887931405	-1.7297841	9.302697	0.8036005	-0.31043434	0.0	0.8125	-49.0625	-25.1875	0.3709998	0.08472456	0.18384473
1276887931445	-1.879608	9.275456	0.7218784	-0.31517315	0.0	0.8125	-49.5625	-25.1875	0.39984202	0.076128945	0.1999358
1276887931485	-1.920469	9.275456	0.6537767	-0.3119297	0.0	0.3125	-49.8125	-25.1875	0.42282683	0.068911396	0.20416366
1276887931515	-1.8387469	9.275456	0.6537767	-0.3281212	0.0	0.0625	-49.8125	-24.6875	0.42515886	0.069029294	0.19570065
1276887931555	-1.7297841	9.275456	0.6537767	-0.3486557	0.0	-0.1875	-49.3125	-24.9375	0.40481022	0.06917941	0.18437251
1276887931595	-1.4982382	9.343558	0.61291564	-0.323905	0.0	-0.1875	-49.0625	-24.4375	0.35801274	0.06467992	0.15899636
1276887931635	-1.3756552	9.425281	0.61291564	-0.2618084	0.0	0.0625	-49.0625	-24.1875	0.3224967	0.064258546	0.1449304
1276887931675	-1.4165162	9.343558	0.6946377	-0.33083248	0.0	0.3125	-49.5625	-23.6875	0.34156576	0.07337218	0.15045778
1276887931715	-1.525479	9.384419	0.6946377	-0.27371025	0.0	0.8125	-49.5625	-23.1875	0.3506016	0.07293174	0.16114494
1276887931745	-1.4982382	9.425281	0.6537767	-0.24066544	0.0	0.8125	-50.0625	-23.9375	0.331623	0.06839722	0.15764059
1276887931775	-1.4165162	9.384419	0.6537767	-0.2934351	0.0	1.0625	-50.0625	-23.6875	0.30752018	0.06877721	0.14981246
1276887931805	-1.4982382	9.302697	0.7218784	-0.3564644	0.0	0.8125	-50.0625	-24.4375	0.33471623	0.07646223	0.15968294
1276887931845	-1.56634	9.302697	0.7627395	-0.34222317	0.0	0.5625	-50.3125	-25.1875	0.3540553	0.08067763	0.1668102
1276887931885	-1.56634	9.275456	0.7218784	-0.37221146	0.0	0.8125	-49.5625	-24.6875	0.34300888	0.076590106	0.16729103
1276887931925	-1.9885708	9.343558	0.6537767	-0.23147869	0.0	0.5625	-49.5625	-24.6875	0.42972517	0.06833149	0.2096992
1276887931965	-1.525479	9.193735	0.50395286	-0.4736004	0.0	0.5625	-49.3125	-24.9375	0.32553783	0.054022864	0.16442786
1276887931995	-1.3756552	9.466142	0.7218784	-0.21387291	0.0	0.5625	-49.3125	-24.1875	0.30944383	0.07532349	0.14431348
1276887932035	-1.7570249	9.343558	0.7627395	-0.2687788	0.0	0.8125	-49.0625	-24.4375	0.38353562	0.08005505	0.185876
1276887932065	-1.8387469	9.234595	0.7218784	-0.363142	0.0	0.8125	-48.5625	-24.6875	0.39284527	0.076516405	0.1965445
1276887932095	-1.6889231	9.343558	0.7218784	-0.2842741	0.0	1.0625	-48.5625	-23.9375	0.35901737	0.075881444	0.17882706
1276887932125	-1.4573772	9.425281	0.7627395	-0.23891068	0.0	0.8125	-48.3125	-24.4375	0.3099523	0.079804614	0.15340938
1276887932155	-1.3756552	9.466142	0.8036005	-0.20737743	0.0	0.8125	-49.3125	-23.9375	0.30809683	0.083812825	0.14431348
1276887932195	-1.4573772	9.466142	0.95342433	-0.18164062	0.0	1.0625	-49.8125	-23.6875	0.33630207	0.09921969	0.15275744
1276887932235	-1.56634	9.384419	0.88532263	-0.25130844	0.0	1.0625	-49.8125	-24.1875	0.3513178	0.092785195	0.16538402
1276887932275	-1.525479	9.343558	0.8036005	-0.3053379	0.0	1.8125	-50.3125	-24.4375	0.30419296	0.08467901	0.16183743
1276887932315	-1.4982382	9.343558	0.8036005	-0.3096733	0.0	1.8125	-49.8125	-24.4375	0.293635	0.08471775	0.15899636
1276887932355	-1.607201	9.343558	0.8036005	-0.2918749	0.0	1.8125	-49.8125	-24.6875	0.3150828	0.084558904	0.17034467
1276887932395	-1.4982382	9.425281	0.6946377	-0.2377863	0.0	1.8125	-50.3125	-24.6875	0.28313658	0.07265745	0.1576406
1276887932435	-1.607201	9.425281	0.7218784	-0.21810913	0.0	1.3125	-49.8125	-24.1875	0.33394122	0.07535683	0.16889572
1276887932475	-1.7297841	9.193735	0.7627395	-0.42055988	0.0	1.0625	-49.5625	-24.1875	0.38336146	0.08135245	0.185974
1276887932505	-1.6889231	9.234595	0.7627395	-0.38794613	0.0	0.8125	-49.3125	-24.1875	0.38072932	0.08107013	0.18089166
1276887932535	-1.6480621	9.343558	0.8036005	-0.2848873	0.0	0.5625	-49.5625	-23.6875	0.3921833	0.0844967	0.17458905
1276887932575	-1.7978859	9.275456	0.61291564	-0.33869648	0.0	0.8125	-49.8125	-23.4375	0.40567175	0.06478111	0.1914584
1276887932615	-1.6889231	9.275456	0.3405087	-0.37253666	0.0	0.8125	-50.3125	-23.4375	0.36290687	0.036101185	0.18011194
1276887932645	-1.0351465	9.534244	0.19068487	-0.2144823	0.0	0.8125	-50.5625	-23.1875	0.20663024	0.019880535	0.10814782
1276887932685	-0.9125633	9.615966	0.38136974	-0.13995457	0.0	0.8125	-50.3125	-23.4375	0.18194136	0.039462164	0.09461748
1276887932725	-1.4573772	9.466142	0.6946377	-0.20382214	0.0	0.0625	-50.3125	-23.6875	0.36242503	0.07240002	0.15275745
1276887932755	-1.9477097	9.302697	0.88532263	-0.26109886	0.0	-0.6875	-50.0625	-24.1875	0.5098308	0.09288063	0.20638914
1276887932795	-1.9885708	9.343558	0.92618364	-0.20903015	0.0	-0.9375	-49.8125	-24.4375	0.52156126	0.0966518	0.20969918
1276887932835	-1.9885708	9.275456	0.7627395	-0.28980827	0.0	-1.4375	-49.3125	-24.4375	0.5198022	0.08023233	0.21119362
1276887932875	-1.879608	9.302697	0.8036005	-0.28200436	0.0	-1.6875	-49.3125	-24.4375	0.5124381	0.08447106	0.19936574
1276887932915	-1.920469	9.302697	0.95342433	-0.26005936	0.0	-1.6875	-49.5625	-24.4375	0.53936595	0.10003743	0.20358221
1276887932955	-1.9477097	9.302697	0.88532263	-0.26109886	0.0	-1.9375	-49.5625	-24.4375	0.54526114	0.09288063	0.20638914
1276887932995	-1.607201	9.275456	0.88532263	-0.35144043	0.0	-1.4375	-49.5625	-24.9375	0.4532999	0.09377067	0.17157105
1276887933035	-1.334794	9.384419	0.92618364	-0.28263664	0.0	-0.9375	-49.3125	-25.1875	0.36938953	0.09740114	0.14128743
1276887933065	-1.1849703	9.507003	0.92618364	-0.18141937	0.0	-0.4375	-49.0625	-25.1875	0.30869216	0.096373685	0.12400232
1276887933095	-1.0760075	9.534244	0.88532263	-0.17112255	0.0	0.5625	-49.3125	-25.1875	0.23709437	0.09201085	0.11238162
1276887933125	-0.95342433	9.507003	0.84446156	-0.21471405	0.0	0.5625	-49.8125	-24.9375	0.21221392	0.088152826	0.09995235
1276887933155	-0.95342433	9.425281	0.84446156	-0.29570675	0.0	0.3125	-49.8125	-24.9375	0.22616515	0.08890548	0.10081314
1276887933195	-1.1441092	9.384419	0.84446156	-0.31510544	0.0	0.3125	-50.0625	-24.9375	0.2744821	0.08908767	0.121317126
1276887933235	-1.56634	9.302697	0.7218784	-0.34542847	0.0	-0.1875	-50.0625	-24.6875	0.38696676	0.07637287	0.1668102
1276887933275	-1.879608	9.343558	0.5720546	-0.2587576	0.0	0.0625	-49.5625	-24.1875	0.42905444	0.059950132	0.19851664
1276887933315	-1.7297841	9.302697	0.50395286	-0.3310871	0.0	0.3125	-49.5625	-23.9375	0.38976473	0.053209584	0.18384473
1276887933355	-1.56634	9.384419	0.5720546	-0.2752285	0.0	0.3125	-49.3125	-23.4375	0.36444506	0.060053855	0.16538402
1276887933395	-1.4982382	9.343558	0.6946377	-0.31827164	0.0	0.0625	-49.3125	-23.1875	0.3770561	0.073274866	0.15899636
1276887933425	-1.1168685	9.507003	0.6946377	-0.20909691	0.0	-0.1875	-49.8125	-23.1875	0.29772723	0.07243988	0.116942495
1276887933455	-0.9125633	9.615966	0.6537767	-0.12538052	0.0	0.0625	-50.0625	-22.9375	0.2347169	0.06758149	0.094617486
1276887933495	-0.7218784	9.656827	0.61291564	-0.10350227	0.0	0.0625	-50.0625	-23.4375	0.17938241	0.06320876	0.07461439
1276887933535	-0.50395286	9.507003	0.7627395	-0.25579453	0.0	0.3125	-50.0625	-23.9375	0.11714011	0.07994598	0.05295903
1276887933575	-1.2258313	9.656827	0.88532263	-0.032154083	0.0	0.3125	-49.8125	-23.6875	0.30244207	0.09069907	0.12626404
1276887933615	-2.5606253	9.112013	0.61291564	-0.3218603	0.0	-0.1875	-49.5625	-23.6875	0.5840766	0.06466596	0.273951
1276887933655	-2.4516625	8.580819	0.8036005	-0.84635544	0.0	-0.4375	-49.8125	-23.4375	0.63714045	0.08980527	0.27829966
1276887933695	-1.6480621	9.152874	0.46309182	-0.49506283	0.0	-0.9375	-49.5625	-23.1875	0.4376716	0.04975338	0.1781506
1276887933735	-2.9556155	9.507003	0.6537767	0.17063332	0.0	-1.4375	-49.3125	-23.4375	0.66715574	0.065573506	0.30141583
1276887933765	-1.334794	9.084772	1.0760075	-0.5615139	0.0	-1.4375	-49.8125	-23.4375	0.45816562	0.1166507	0.14588277
1276887933805	-0.6946377	8.580819	0.61291564	-1.1759701	0.0	-1.6875	-49.8125	-23.6875	0.27623764	0.07107574	0.08077624
1276887933845	-2.0294318	9.425281	0.6946377	-0.14036751	0.0	-1.6875	-49.8125	-24.1875	0.53126436	0.07192393	0.21208003
1276887933875	-3.173541	10.079058	1.2258313	0.83108616	0.0	-1.6875	-49.5625	-24.9375	0.7050884	0.11549079	0.3050379
1276887933915	-2.070293	9.112013	2.1111538	-0.22688675	0.0	-1.6875	-49.3125	-25.6875	0.71286523	0.22220035	0.22341199
1276887933955	-1.334794	9.112013	1.879608	-0.40753365	0.0	-1.4375	-48.5625	-25.9375	0.49042773	0.20133455	0.14545278
1276887933995	-2.4925237	7.7363577	2.7921712	-1.2124586	0.0	-0.6875	-48.5625	-25.9375	1.0184653	0.33089593	0.31168202
1276887934035	-3.5957718	10.760075	-1.4982382	1.6368418	0.0	0.5625	-48.3125	-24.9375	0.4480821	-0.13130186	0.32250986
1276887934065	-1.4165162	9.697687	0.14982383	-0.004910469	0.0	0.8125	-48.8125	-23.4375	0.26877767	0.015286027	0.1450417
1276887934095	-1.607201	8.349273	0.313268	-1.2983255	0.0	1.3125	-49.3125	-22.1875	0.37543386	0.036827322	0.1901698
1276887934125	-2.2201166	9.152874	0.61291564	-0.3684473	0.0	0.5625	-49.8125	-20.1875	0.58256227	0.064985596	0.23796368
1276887934156	-1.4573772	9.275456	-0.08172209	-0.4170437	0.0	0.3125	-51.3125	-19.6875	0.3634558	-0.008703573	0.15584773
1276887934195	-1.8387469	9.507003	0.10896278	-0.12285137	0.0	0.0625	-51.0625	-19.1875	0.47746557	0.011252308	0.19105081
1276887934235	-1.9477097	9.234595	-0.23154591	-0.36604977	0.0	0.3125	-51.5625	-18.4375	0.48377123	-0.024529068	0.20786786
1276887934275	-1.3756552	9.275456	-0.7218784	-0.40198994	0.0	0.8125	-51.8125	-19.1875	0.28649226	-0.07683309	0.14723802
1276887934315	-2.6832085	9.615966	-1.0760075	0.23447514	0.0	0.3125	-51.0625	-18.4375	0.51694435	-0.107366204	0.2721153
1276887934375	-2.5333846	9.234595	-1.1849703	-0.15781975	0.0	0.5625	-51.3125	-18.1875	0.4949542	-0.123120554	0.26774904
1276887934415	-2.8330324	10.147159	-0.8036005	0.7591753	0.0	1.0625	-51.5625	-18.1875	0.5296935	-0.076130085	0.27226174
1276887934455	-1.7570249	10.528529	-1.1168685	0.92575264	0.0	2.3125	-51.5625	-17.4375	0.26717207	-0.10425384	0.16535845
1276887934495	-2.0294318	9.915613	0.19068487	0.31631088	0.0	3.8125	-51.8125	-17.4375	0.38408825	0.01883798	0.20188218
1276887934535	-1.920469	8.853226	1.1168685	-0.6789341	0.0	5.625	-51.3125	-17.4375	0.4540521	0.12266753	0.21361355
1276887934575	-0.6537767	8.008764	0.84446156	-1.7269945	0.0	6.625	-51.0625	-17.6875	-0.19782618	0.104708254	0.08145204
1276887934615	-0.6946377	9.425281	-0.42223078	-0.34638023	0.0	7.875	-50.8125	-18.6875	-0.19407551	-0.044646833	0.07356642
1276887934645	-0.6946377	10.337844	-3.214402	1.0416641	0.0	9.375	-50.3125	-19.9375	-0.17361163	-0.30082083	0.06709282
1276887934675	-0.040861044	10.337844	-0.6537767	0.5519266	0.0	10.375	-50.0625	-21.1875	-0.39650482	-0.06315651	0.003952549
1276887934715	0.27240697	9.384419	0.9942854	-0.36577415	0.0	11.375	-49.5625	-22.1875	-0.6490628	0.10551274	-0.029019428
1276887934745	-1.6889231	8.894087	1.607201	-0.6120682	0.0	12.125	-49.0625	-22.4375	-0.20498043	0.17570132	0.18765849
1276887934775	-3.0237172	8.921328	1.6480621	-0.24374962	0.0	12.375	-48.8125	-23.1875	0.2714123	0.17320386	0.32678023
1276887934815	-3.7864566	9.152874	0.27240697	0.1022625	0.0	12.625	-48.8125	-24.1875	0.29755023	0.02749457	0.39225248
1276887934855	-1.7297841	9.084772	0.5720546	-0.5409889	0.0	12.875	-48.0625	-25.1875	-0.16420765	0.0617785	0.18815261
1276887934895	-1.3756552	8.921328	2.4925237	-0.44207954	0.0	12.375	-47.5625	-26.4375	-0.38008827	0.2694126	0.15299349
1276887934935	-1.0760075	8.730643	2.3426998	-0.7033453	0.0	11.375	-47.3125	-27.1875	-0.37866926	0.26027477	0.12262656
1276887934975	-1.607201	8.771504	1.7297841	-0.7228985	0.0	10.625	-46.8125	-27.6875	-0.11113383	0.19159625	0.18121961
1276887935019	-1.920469	8.894087	-0.14982383	-0.70635223	0.0	9.625	-46.5625	-28.4375	0.0143543575	-0.016464362	0.21266156
1276887935055	-2.9147544	8.117727	2.4925237	-0.8285675	0.0	8.875	-45.8125	-29.4375	0.43163347	0.28131914	0.34472355
1276887935085	-1.56634	11.141444	3.0645783	1.8542604	0.0	9.375	-45.3125	-30.4375	-0.17098083	0.26593113	0.13967143
1276887935115	-2.3426998	9.466142	2.2609777	0.20374966	0.0	10.375	-44.5625	-30.9375	0.03201567	0.22782871	0.24260738
1276887935145	-3.1463003	8.730643	1.9885708	-0.31572056	0.0	11.625	-44.0625	-30.4375	0.19511063	0.2110874	0.34588698
1276887935175	-3.445948	9.00305	1.4165162	-0.06314087	0.0	13.875	-44.0625	-29.6875	0.122571625	0.14589754	0.36555076
1276887935215	-2.5333846	9.997335	2.1792557	0.7344084	0.0	15.6875	-43.5625	-28.4375	-0.24147764	0.20824152	0.2481817
1276887935255	-1.8387469	9.697687	1.7978859	0.22622204	0.0	17.1875	-43.5625	-27.9375	-0.4277131	0.18017274	0.18738237
1276887935295	-2.3699405	9.466142	1.1168685	0.015358925	0.0	18.4375	-43.8125	-27.4375	-0.31924987	0.113957286	0.24531719
1276887935335	-3.0645783	9.084772	0.8036005	-0.18529415	0.0	18.9375	-43.5625	-26.4375	-0.17763399	0.08362	0.3253444
1276887935375	-3.0645783	8.894087	1.334794	-0.305171	0.0	19.6875	-44.0625	-25.9375	-0.2213573	0.14094898	0.33182347
1276887935415	-3.636633	8.771504	0.7218784	-0.28375626	0.0	20.6875	-44.5625	-23.9375	-0.10107593	0.0758773	0.39302567
1276887935455	-3.9090397	8.853226	1.1441092	-0.061436653	0.0	21.6875	-44.8125	-22.1875	-0.10698814	0.11767356	0.41579506
1276887935495	-3.486809	8.689782	1.0351465	-0.3863697	0.0	22.9375	-46.0625	-20.9375	-0.26599526	0.110107236	0.38158685
1276887935535	-3.255263	8.539958	1.0351465	-0.6088705	0.0	23.4375	-46.5625	-18.6875	-0.39548916	0.112782024	0.36417788
1276887935575	-3.5957718	8.499097	0.84446156	-0.53964806	0.0	23.6875	-46.8125	-17.9375	-0.2665743	0.09125224	0.40024066
1276887935615	-3.636633	8.580819	1.0760075	-0.425107	0.0	23.9375	-47.5625	-16.4375	-0.32778123	0.11494705	0.4008619
1276887935655	-3.5276701	8.62168	0.27240697	-0.48720646	0.0	23.9375	-47.5625	-14.6875	-0.3056792	0.029234122	0.38838026
1276887935715	-2.8330324	10.760075	-0.7218784	1.343524	0.0	23.6875	-48.3125	-13.1875	-0.5692179	-0.06478676	0.25744835
1276887935755	-2.3018389	9.765789	-1.7570249	0.37942982	0.0	23.1875	-48.5625	-11.125	-0.51849663	-0.17335978	0.23147933
1276887935785	-1.525479	8.853226	-3.0237172	-0.32774925	0.0	22.6875	-48.3125	-9.375	-0.5100467	-0.32466838	0.17063218
1276887935825	-0.6946377	9.302697	-3.9090397	0.30785847	0.0	22.1875	-48.0625	-7.625	-0.61610633	-0.3968103	0.074532256
1276887935865	-0.27240697	11.795221	-4.1814466	2.7107754	0.0	22.4375	-47.8125	-5.375	-0.7882381	-0.3405972	0.023090584
1276887935905	-1.2666923	11.413852	-3.2961242	2.1409426	0.0	22.9375	-47.8125	-3.375	-0.7990378	-0.27950704	0.110526234
1276887935935	-2.070293	10.079058	-2.7921712	0.8549509	0.0	23.9375	-47.5625	-1.125	-0.76182073	-0.26498047	0.20258762
1276887935965	-3.6774938	7.8861814	-1.3756552	-0.99709606	0.0	24.9375	-47.5625	0.875	-0.32120338	-0.1567966	0.43634346
