#timestamp	accel_x	accel_y	accel_z	accel_mag	temperature	mag_x	mag_y	mag_z	azimuth	pitch	roll
1277227115565	5.012288	0.9942854	8.430995	0.05201626	0.0	-7.75	-9.0625	-53.5625	-0.35760415	1.0259099	-1.374969
1277227115602	4.944186	1.0760075	8.539958	0.11976147	0.0	-7.25	-8.8125	-53.5625	-0.34621465	1.0359105	-1.356507
1277227115655	4.9850473	1.0760075	8.580819	0.17528057	0.0	-6.75	-8.3125	-53.8125	-0.31864503	1.0345553	-1.3582107
1277227115707	5.012288	1.0351465	8.158588	-0.17560005	0.0	-6.25	-8.3125	-54.0625	-0.3014031	1.010529	-1.3671378
1277227115745	5.134871	0.95342433	8.240311	-0.050696373	0.0	-6.25	-8.5625	-54.0625	-0.313736	1.0059004	-1.3872106
1277227115775	4.903325	1.2666923	8.008764	-0.33102798	0.0	-6.5	-8.3125	-54.3125	-0.2846363	1.006933	-1.3179901
1277227115816	4.2086873	2.2201166	8.580819	0.0052013397	0.0	-7.0	-8.5625	-53.8125	-0.24553968	1.0644786	-1.0853852
1277227115855	4.5219555	2.070293	9.343558	0.77806854	0.0	-7.5	-9.8125	-53.5625	-0.3571754	1.0816628	-1.141449
1277227115896	5.09401	1.1168685	7.6954966	-0.5105753	0.0	-7.75	-10.3125	-53.5625	-0.3659827	0.97521424	-1.3549602
1277227115935	5.5571017	0.5720546	6.742072	-1.0508432	0.0	-7.75	-11.5	-53.0625	-0.37542027	0.8788592	-1.4682164
1277227115976	5.2165933	2.4925237	10.119919	1.8483171	0.0	-7.75	-13.5	-52.8125	-0.5304233	1.0517493	-1.1250604
1277227116015	5.434519	2.982856	8.008764	0.32112026	0.0	-8.25	-14.25	-52.5625	-0.3849758	0.9120703	-1.0688194
1277227116055	5.8567495	2.6014864	8.62168	0.9359112	0.0	-9.0	-15.0	-52.3125	-0.4715462	0.93159443	-1.1527878
1277227116095	6.2789803	2.4925237	7.8861814	0.5774784	0.0	-9.0	-15.25	-52.5625	-0.4315367	0.8624606	-1.1929107
1277227116135	6.0474343	3.1054392	7.3141265	0.1789217	0.0	-9.0	-14.25	-52.5625	-0.32821223	0.82194227	-1.0963964
1277227116175	4.399372	1.7570249	10.378705	1.6020803	0.0	-8.75	-13.5	-53.0625	-0.7444397	1.1425996	-1.1908238
1277227116215	5.6252036	1.7297841	12.639683	4.13597	0.0	-8.25	-12.5	-53.8125	-0.6614022	1.1350377	-1.2724675
1277227116255	5.47538	1.1849703	6.238119	-1.4222555	0.0	-8.75	-11.0	-54.0625	-0.30747327	0.8390601	-1.3576653
1277227116295	4.1814466	2.2201166	3.5957718	-3.8616533	0.0	-9.75	-10.5625	-54.8125	-0.13340624	0.6495649	-1.0827006
1277227116335	5.366417	1.7978859	6.469665	-1.2108727	0.0	-10.0	-10.5625	-54.5625	-0.25473884	0.852087	-1.2475237
1277227116376	5.9793324	1.7297841	8.580819	0.7940588	0.0	-10.9375	-10.5625	-53.5625	-0.33265907	0.943227	-1.2891904
1277227116416	6.238119	1.4165162	9.302697	1.4832048	0.0	-11.4375	-10.75	-53.3125	-0.39526817	0.9684126	-1.3475084
1277227116455	3.636633	2.070293	9.615966	0.68039036	0.0	-11.4375	-10.0625	-52.5625	-0.40021673	1.1603379	-1.0532651
1277227116495	3.8273177	1.2666923	7.9679036	-0.8769045	0.0	-10.6875	-9.0625	-53.0625	-0.40130496	1.1023877	-1.2511826
1277227116535	5.012288	1.5390993	7.014479	-1.0490942	0.0	-9.25	-8.3125	-54.0625	-0.2205636	0.9289021	-1.2728704
1277227116575	5.09401	1.9885708	7.3958488	-0.6087198	0.0	-7.0	-7.8125	-54.5625	-0.18772206	0.9341222	-1.1986153
1277227116615	4.0588636	2.0294318	8.539958	-0.13587761	0.0	-3.75	-8.3125	-54.8125	-0.2874553	1.0823625	-1.1071488
1277227116655	3.7864566	2.2201166	9.275456	0.45494175	0.0	-1.5625	-9.5625	-54.3125	-0.4000034	1.128802	-1.0404882
1277227116685	3.5957718	2.1792557	9.507003	0.58862877	0.0	0.6875	-10.5625	-53.8125	-0.49733165	1.1543941	-1.0259324
1277227116725	3.1463003	1.8387469	9.193735	0.08298874	0.0	2.6875	-11.25	-53.3125	-0.5901895	1.1934156	-1.0419148
1277227116755	2.2609777	1.879608	8.962189	-0.3744831	0.0	4.125	-10.75	-53.5625	-0.6911201	1.2537899	-0.8772443
1277227116797	3.336985	1.1168685	8.921328	-0.21639729	0.0	5.625	-9.3125	-53.8125	-0.45034885	1.1950921	-1.2478218
1277227116835	2.4108016	1.6889231	8.689782	-0.6318617	0.0	6.875	-7.8125	-54.3125	-0.5095116	1.2441913	-0.9596913
1277227116875	2.3699405	1.6889231	8.281172	-1.0290146	0.0	7.375	-6.5625	-54.5625	-0.44534746	1.2328571	-0.951635
1277227116905	2.5333846	1.4573772	8.662541	-0.6643524	0.0	7.625	-4.8125	-54.8125	-0.35496876	1.2453978	-1.04876
1277227116935	2.7240696	1.4165162	8.962189	-0.33311367	0.0	7.625	-4.3125	-55.0625	-0.31729674	1.2407384	-1.091277
1277227116977	2.7240696	1.1441092	8.730643	-0.5896187	0.0	7.125	-3.5625	-54.5625	-0.2634598	1.2444795	-1.1731683
1277227117015	1.6889231	1.334794	8.689782	-0.85419464	0.0	6.625	-2.875	-54.8125	-0.36818853	1.3279567	-0.90198416
1277227117055	3.1463003	0.6537767	5.9793324	-3.0184956	0.0	6.375	-4.0625	-54.8125	-0.1700484	1.0776505	-1.3659196
1277227117095	3.214402	0.6946377	7.43671	-1.6752567	0.0	7.375	-5.3125	-54.0625	-0.24129184	1.1544378	-1.3579674
1277227117135	0.8036005	3.445948	12.258313	2.9521332	0.0	8.375	-7.8125	-53.5625	-0.8143181	1.2897815	-0.22910696
1277227117198	1.4165162	2.8738933	8.921328	-0.32741642	0.0	10.375	-10.5625	-52.8125	-0.81200314	1.2260003	-0.4579443
1277227117235	2.3018389	2.5333846	9.043911	-0.1366539	0.0	13.5625	-11.25	-51.625	-0.7468203	1.2089784	-0.73754746
1277227117271	4.5219555	2.7649305	6.66035	-1.2947063	0.0	16.0625	-11.75	-51.125	-0.4534895	0.89862436	-1.0220033
1277227117331	1.6889231	2.8738933	9.084772	-0.12962532	0.0	19.5	-11.75	-49.875	-0.9309157	1.2191243	-0.5313097
1277227117375	-0.14982383	3.405087	8.539958	-0.6116543	0.0	22.25	-9.8125	-48.625	-1.2185882	1.1910576	0.04397164
1277227117406	-2.6423476	4.944186	11.604536	3.081027	0.0	24.5	-7.5625	-47.875	-1.3304995	1.120772	0.49081486
1277227117445	-5.053149	6.510526	12.980191	5.5688705	0.0	26.6875	-4.3125	-46.1875	-1.1583757	1.0050924	0.6600285
1277227117475	-6.742072	5.175732	11.454713	4.4570866	0.0	30.1875	-1.375	-44.4375	-1.2072926	0.9324217	0.91607773
1277227117505	-6.851035	3.5276701	8.430995	1.6153822	0.0	35.125	0.125	-41.25	-1.2813948	0.8303009	1.0952916
1277227117536	-6.469665	2.2609777	4.2495484	-1.7427025	0.0	39.5625	0.125	-35.8125	-0.885018	0.5550445	1.2345904
1277227117566	-6.1291566	1.0351465	1.3075534	-3.4546595	0.0	44.3125	-1.375	-31.1875	-0.27342805	0.20733161	1.4034863
1277227117605	-6.2789803	1.2666923	1.1849703	-3.2924914	0.0	46.5	-2.375	-27.1875	-0.35798407	0.18292534	1.3717327
1277227117645	-6.3607025	3.1054392	3.1463003	-2.060587	0.0	47.0	-4.8125	-23.75	-1.3481168	0.4182704	1.1166149
1277227117690	-6.66035	3.6774938	4.372132	-1.0317001	0.0	47.25	-8.8125	-21.8125	-1.8181796	0.52158093	1.066306
1277227117743	-7.3958488	5.597963	4.2904096	0.41310406	0.0	47.0	-12.25	-19.8125	-1.6167088	0.43324184	0.92288995
1277227117775	-6.932757	6.66035	2.2201166	0.060076714	0.0	47.0	-15.75	-18.375	-1.2173746	0.22695374	0.8054356
1277227117815	-7.3141265	7.43671	3.336985	1.1449051	0.0	46.75	-18.1875	-18.625	-1.3882048	0.30962786	0.77708805
1277227117855	-8.049625	9.384419	4.099725	3.2191525	0.0	45.5625	-19.4375	-20.3125	-1.3336333	0.3201814	0.70898473
1277227117885	-8.308413	9.234595	4.4810944	3.398942	0.0	43.8125	-20.4375	-23.25	-1.226793	0.34620783	0.7326521
1277227117925	-8.471856	9.615966	4.140586	3.6612225	0.0	42.0625	-20.9375	-26.5	-0.9818338	0.3125034	0.7222293
1277227117955	-11.3321295	8.894087	4.440233	5.2677526	0.0	40.8125	-20.4375	-28.6875	-0.56962436	0.29898933	0.9053582
1277227117985	-11.223166	7.5456724	4.7943625	4.541958	0.0	40.3125	-17.9375	-31.375	-0.46798474	0.34068662	0.97888315
1277227118015	-10.038197	5.6660647	4.7535014	2.6619282	0.0	40.5625	-13.75	-32.875	-0.5067198	0.39113554	1.0569265
1277227118045	-8.308413	3.445948	4.0588636	0.061411858	0.0	41.3125	-9.0625	-33.625	-0.5038296	0.42389426	1.177636
1277227118075	-7.8861814	3.759216	4.2495484	-0.09159851	0.0	42.3125	-4.8125	-33.875	-0.82331795	0.45272654	1.1259749
1277227118105	-9.656827	4.9850473	3.7864566	1.7017059	0.0	43.3125	-2.875	-32.625	-0.774015	0.33526352	1.0942571
1277227118135	-9.425281	5.6660647	3.486809	1.7301617	0.0	44.0625	-3.125	-31.375	-0.838363	0.30703467	1.0295272
1277227118165	-7.9270425	5.434519	3.718355	0.49859905	0.0	44.8125	-4.5625	-30.4375	-0.9913117	0.36914852	0.96982276
1277227118195	-6.973618	4.903325	3.5276701	-0.58068657	0.0	45.0625	-6.3125	-28.9375	-1.0738847	0.39235264	0.9579761
1277227118236	-8.539958	3.173541	3.6774938	0.018125534	0.0	45.5625	-8.0625	-27.4375	-0.77990496	0.3836506	1.2150003
1277227118268	-7.6273947	1.920469	3.6774938	-1.1239481	0.0	45.8125	-8.8125	-26.0	-0.60410106	0.43735242	1.3241377
1277227118311	-5.597963	2.7649305	2.8738933	-2.9334202	0.0	45.8125	-9.0625	-24.25	-1.3154033	0.4313841	1.1120268
1277227118345	-5.8976107	6.1700177	1.9477097	-1.0519657	0.0	46.3125	-9.8125	-23.0	-1.0959189	0.22435369	0.7628286
1277227118379	-6.742072	7.668256	1.6480621	0.53616333	0.0	46.5	-10.3125	-22.5625	-1.049415	0.16002582	0.72121423
1277227118416	-7.5456724	7.082581	1.2258313	0.6146164	0.0	46.5	-11.75	-21.3125	-0.9614836	0.11790082	0.8170449
1277227118456	-8.390134	4.9850473	1.5390993	0.07332325	0.0	46.5	-13.5	-20.3125	-0.7606427	0.15641674	1.034685
1277227118495	-8.662541	4.5219555	1.8387469	0.13662338	0.0	45.5625	-14.75	-19.3125	-0.6633491	0.18599422	1.0896941
1277227118535	-7.6954966	5.597963	1.7297841	-0.13452435	0.0	45.3125	-15.25	-18.625	-0.953501	0.17980954	0.9418948
1277227118575	-7.205164	7.3958488	2.3426998	0.78113556	0.0	45.0625	-14.25	-19.3125	-1.1641599	0.2231108	0.7723392
1277227118615	-8.539958	6.0882955	1.7570249	0.8275099	0.0	45.3125	-13.25	-19.0625	-0.9357112	0.16598575	0.9514527
1277227118655	-8.158588	6.8237944	2.152015	1.044981	0.0	46.3125	-12.75	-19.5625	-1.0856924	0.19963601	0.87425447
1277227118695	-10.991621	5.5162406	1.607201	2.5960808	0.0	46.5	-13.0	-19.5625	-0.60863745	0.12994988	1.1056628
1277227118735	-5.6660647	2.9147544	1.3756552	-3.2880225	0.0	47.0	-12.75	-18.8125	-0.8836827	0.21263313	1.095677
1277227118775	-0.19068487	-1.525479	2.152015	-7.1619167	0.0	47.0	-12.75	-18.8125	-0.8836827	0.21263313	1.095677
1277227118815	-4.0588636	4.9850473	3.1463003	-2.6495366	0.0	46.0625	-14.25	-19.5625	-1.5734954	0.4551584	0.6833443
1277227118855	-5.434519	10.56939	3.445948	2.5675392	0.0	44.5625	-16.0	-20.3125	-1.2743063	0.28220975	0.4749234
1277227118895	-5.6252036	9.425281	3.8681788	1.8312893	0.0	42.8125	-18.4375	-21.8125	-1.2852837	0.33882234	0.53807855
1277227118965	-7.205164	8.049625	2.3699405	1.2535248	0.0	41.8125	-20.9375	-22.5625	-0.93376565	0.21595152	0.7300975
1277227119005	-7.4639506	6.66035	2.5333846	0.5126934	0.0	42.3125	-20.9375	-22.3125	-0.8761101	0.24803402	0.8422318
1277227119045	-7.4639506	6.2789803	2.070293	0.16442108	0.0	43.0625	-19.9375	-21.5625	-0.8219231	0.20915148	0.8714094
1277227119085	-6.3198414	8.962189	1.4165162	1.250824	0.0	44.0625	-20.1875	-19.8125	-1.0407784	0.12845786	0.61418545
1277227119125	-5.5571017	9.888372	2.5606253	1.821681	0.0	44.3125	-20.1875	-18.8125	-1.245455	0.2220254	0.511997
1277227119165	-6.238119	8.812365	2.7649305	1.3386068	0.0	44.3125	-20.6875	-18.375	-1.279504	0.2506992	0.6159967
1277227119205	-6.5513873	7.8180795	1.6480621	0.52578163	0.0	44.3125	-21.9375	-17.875	-1.0877167	0.160188	0.69747376
1277227119245	-5.597963	8.62168	1.0351465	0.52495575	0.0	44.8125	-22.6875	-17.625	-1.0892465	0.1003606	0.5758753
1277227119285	-5.8158884	7.8861814	1.879608	0.17079163	0.0	44.8125	-23.4375	-17.625	-1.1948333	0.18951823	0.635439
1277227119325	-4.7535014	7.6273947	2.4925237	-0.48004246	0.0	44.3125	-24.1875	-17.625	-1.3628983	0.27053675	0.55731416
1277227119365	-4.0588636	7.205164	2.9556155	-1.0245991	0.0	43.8125	-24.4375	-18.625	-1.4515809	0.34325272	0.5130175
1277227119405	-5.134871	6.4424243	2.2609777	-1.2635975	0.0	42.0625	-24.6875	-21.0625	-1.1297476	0.26784813	0.6729336
1277227119445	-4.903325	5.09401	1.9885708	-2.4618597	0.0	40.5625	-25.125	-23.0	-0.88660884	0.27416763	0.7663269
1277227119485	-3.336985	5.284695	3.9499009	-2.4130588	0.0	38.875	-26.125	-24.75	-1.6743989	0.5636002	0.56321925
1277227119525	-4.099725	4.630918	2.9147544	-2.9693308	0.0	37.375	-26.625	-26.5	-1.1271753	0.44039938	0.7246307
1277227119565	-5.8158884	4.372132	4.5628166	-1.2183218	0.0	36.375	-25.875	-27.1875	-2.0919313	0.56011206	0.926172
1277227119605	-4.399372	5.053149	3.718355	-2.1440816	0.0	35.375	-25.125	-28.4375	-1.1631163	0.5066631	0.7163438
1277227119645	-3.1463003	14.437569	4.8216033	5.7365303	0.0	34.625	-24.1875	-29.1875	-1.0070975	0.31541073	0.21456979
1277227119685	-3.8273177	7.9679036	3.173541	-0.41478062	0.0	33.875	-24.4375	-28.9375	-0.93146336	0.34468794	0.4477978
1277227119725	-3.8681788	9.507003	3.990762	1.2057104	0.0	32.875	-26.375	-28.4375	-1.0002941	0.3708302	0.38642058
1277227119765	-3.336985	9.466142	4.0588636	1.0200615	0.0	31.9375	-28.375	-27.4375	-1.0662699	0.38428187	0.33891624
1277227119805	-2.7513103	9.507003	3.9499009	0.84954643	0.0	30.1875	-30.125	-27.1875	-1.0653024	0.37972713	0.2817023
1277227119845	-1.9885708	11.141444	3.486809	2.0358171	0.0	28.4375	-31.875	-27.0	-0.97776157	0.2988618	0.17662424
1277227119885	-1.7297841	13.021052	2.6832085	3.600048	0.0	26.6875	-33.3125	-27.0	-0.8563053	0.20150019	0.13207188
1277227119925	-1.4982382	11.223166	2.6014864	1.8110914	0.0	24.9375	-34.3125	-27.9375	-0.8187927	0.22583844	0.13271052
1277227119965	-4.5628166	8.62168	1.8387469	0.11976242	0.0	24.25	-35.0625	-28.4375	-0.24529631	0.18631385	0.48675406
1277227120005	-3.255263	5.284695	5.6252036	-1.4300365	0.0	23.75	-34.5625	-29.6875	-2.8122604	0.73628074	0.55208623
1277227120045	-1.879608	5.2165933	2.8738933	-3.5612493	0.0	24.0	-33.8125	-30.6875	-0.8977047	0.47817713	0.3458329
1277227120085	-1.7570249	6.932757	1.56634	-2.485197	0.0	23.5	-34.0625	-30.1875	-0.59726596	0.21560495	0.24821192
1277227120125	-2.070293	10.038197	1.2666923	0.52078915	0.0	22.25	-35.3125	-29.6875	-0.5361305	0.12296271	0.20338975
1277227120165	-5.706926	11.645397	-0.8036005	3.1868114	0.0	20.75	-37.5625	-27.4375	-0.06990915	-0.061886024	0.45566285
1277227120205	-3.214402	9.043911	-0.50395286	-0.19526768	0.0	19.25	-40.0	-24.0	-0.17853051	-0.052456975	0.34149665
1277227120265	-3.0645783	9.00305	-0.42223078	-0.28694344	0.0	17.3125	-43.0	-20.5625	-0.11163172	-0.044367895	0.32809106
1277227120305	-0.19068487	6.6331096	-0.9942854	-3.096724	0.0	15.3125	-45.25	-18.625	-0.50749594	-0.148729	0.028739518
1277227120335	0.92618364	5.243834	0.27240697	-4.4746885	0.0	12.5625	-46.25	-18.8125	-0.8889158	0.0511117	-0.17482036
1277227120365	1.56634	4.372132	2.6014864	-4.4834285	0.0	10.375	-46.0	-21.8125	-1.5875254	0.5106051	-0.3440103
1277227120405	-0.27240697	5.5162406	4.944186	-2.393952	0.0	10.375	-43.25	-26.5	-2.4229949	0.7301598	0.049342636
1277227120436	-1.4573772	9.915613	8.921328	3.611003	0.0	12.5625	-40.0	-29.4375	-2.2681594	0.7273529	0.14593315
1277227120475	-1.3075534	11.114203	9.343558	4.772009	0.0	15.8125	-38.0625	-30.1875	-1.7671366	0.6956787	0.11710875
1277227120515	-2.1111538	11.917805	9.534244	5.6009083	0.0	18.75	-37.5625	-27.6875	-1.830245	0.66721797	0.1753241
1277227120555	-0.27240697	11.114203	6.4015636	3.022214	0.0	20.75	-38.5625	-23.75	-1.5157305	0.5224409	0.0245049
1277227120595	0.3405087	8.730643	2.982856	-0.574234	0.0	21.75	-40.0	-19.3125	-1.3333492	0.3289876	-0.038981803
1277227120635	1.1441092	7.43671	1.56634	-2.1211405	0.0	22.5	-41.5	-15.625	-1.3094809	0.20524222	-0.15264933
1277227120675	1.0351465	7.3549876	1.7978859	-2.1646762	0.0	22.5	-42.25	-14.4375	-1.397635	0.2374908	-0.13982238
1277227120719	1.4165162	7.5865335	0.50395286	-2.0725713	0.0	22.75	-42.0	-14.1875	-1.1986227	0.06520624	-0.18458907
1277227120755	-0.19068487	4.9850473	5.243834	-2.5689125	0.0	22.75	-41.25	-17.125	-2.2943892	0.8103273	0.038232725
1277227120795	0.46309182	6.0474343	4.671779	-2.1508398	0.0	22.0	-39.0625	-22.5625	-1.7637144	0.6563466	-0.07642742
1277227120835	-0.7627395	7.3549876	8.349273	1.3462849	0.0	21.0	-36.3125	-27.1875	-2.126092	0.8459731	0.10333432
1277227120875	-0.29964766	7.9270425	8.580819	1.8791637	0.0	20.25	-34.5625	-31.375	-1.810385	0.8246256	0.0377827
1277227120915	-0.0	8.771504	8.430995	2.3597364	0.0	19.75	-33.5625	-32.625	-1.5574586	0.7656066	0.0
1277227120955	-0.46309182	8.240311	6.238119	0.5389433	0.0	20.0	-33.8125	-31.375	-1.3531117	0.64722323	0.056139294
1277227120995	-0.50395286	8.390134	5.706926	0.35294247	0.0	21.0	-35.0625	-29.6875	-1.3519961	0.5964728	0.05999286
1277227121035	-0.10896278	8.853226	5.175732	0.44906425	0.0	21.5	-35.8125	-27.1875	-1.3257581	0.5289975	0.012307072
1277227121075	-0.10896278	8.117727	4.399372	-0.5728073	0.0	21.75	-36.8125	-25.25	-1.3610933	0.49660116	0.013422012
1277227121115	-0.29964766	8.499097	4.903325	0.01002121	0.0	22.0	-37.5625	-24.0	-1.4909164	0.52300954	0.035241816
1277227121155	-0.7627395	8.580819	5.7477865	0.5494728	0.0	22.75	-37.5625	-23.5	-1.6910056	0.588379	0.088655874
1277227121195	-1.1168685	7.9270425	5.284695	-0.21428871	0.0	24.0	-37.3125	-23.75	-1.6983097	0.5834752	0.13997212
1277227121235	-1.3075534	7.8861814	5.243834	-0.24634933	0.0	24.9375	-37.0625	-23.5	-1.712396	0.5805704	0.16430834
1277227121275	-1.8387469	8.158588	4.8216033	-0.15308094	0.0	26.4375	-36.8125	-22.0625	-1.6680334	0.52297914	0.22167192
1277227121315	-1.9477097	8.076866	4.862464	-0.17997456	0.0	27.1875	-37.3125	-20.0625	-1.8053645	0.52950144	0.23662895
1277227121355	-2.4516625	7.6273947	4.2904096	-0.71844864	0.0	27.9375	-37.8125	-18.375	-1.8819101	0.49165517	0.3109983
1277227121395	-2.9147544	7.8180795	4.2086873	-0.4615326	0.0	28.9375	-37.3125	-17.125	-1.9125335	0.4671709	0.35686007
1277227121435	-3.9499009	7.504812	3.9499009	-0.4511366	0.0	29.9375	-36.8125	-16.375	-2.044918	0.4358712	0.48447794
1277227121475	-2.5333846	8.812365	4.2086873	0.28239632	0.0	30.9375	-36.5625	-15.375	-1.7840385	0.4303117	0.279932
1277227121525	-3.173541	8.499097	4.0588636	0.13218212	0.0	31.6875	-36.5625	-12.6875	-1.9602187	0.42068338	0.35736495
1277227121565	-3.7864566	9.084772	2.7649305	0.41661644	0.0	31.9375	-37.3125	-9.75	-1.7825224	0.2738653	0.39489755
1277227121605	-2.8738933	9.466142	2.9556155	0.51821136	0.0	32.125	-38.0625	-7.25	-1.8736892	0.2903233	0.2947536
1277227121645	-2.9556155	9.384419	3.214402	0.543972	0.0	32.375	-37.8125	-5.3125	-2.0099926	0.31577325	0.30511463
1277227121685	-3.636633	9.956474	3.405087	1.3266821	0.0	32.625	-37.8125	-4.3125	-2.0934393	0.31082708	0.35019815
1277227121725	-3.1054392	9.80665	3.173541	0.9583626	0.0	33.125	-37.0625	-3.5625	-2.0251768	0.29924768	0.3066763
1277227121765	-3.2961242	9.575105	2.152015	0.54604244	0.0	33.875	-36.5625	-3.5625	-1.8601937	0.20939697	0.3315333
1277227121805	-2.8330324	9.656827	1.6480621	0.39121723	0.0	34.375	-36.0625	-2.0625	-1.7914168	0.16232038	0.28536403
1277227121845	-3.445948	9.656827	0.42223078	0.4552765	0.0	34.625	-35.8125	-0.625	-1.6310947	0.041156992	0.34275585
1277227121885	-5.09401	10.269742	-0.040861044	1.6571274	0.0	34.625	-36.0625	2.3125	-1.7127253	-0.0035643685	0.46045953
1277227121925	-4.862464	9.847511	-2.6423476	1.4893246	0.0	34.375	-35.5625	6.0625	-1.2431451	-0.23610698	0.45865595
1277227121965	-4.5219555	8.430995	-4.1814466	0.63433933	0.0	33.875	-35.8125	8.75	-0.86418414	-0.41204473	0.4923022
1277227122005	-3.3642259	6.510526	-4.7943625	-1.0493174	0.0	33.875	-35.3125	10.6875	-0.69224775	-0.5793359	0.47694692
1277227122045	-3.405087	5.5571017	-4.8216033	-1.699625	0.0	33.125	-35.3125	11.4375	-0.47586426	-0.636947	0.5497382
1277227122085	-1.7978859	5.134871	-4.0180025	-3.0432458	0.0	31.6875	-36.3125	11.9375	-0.8120067	-0.63612133	0.33679298
1277227122125	-2.0294318	6.932757	-2.5606253	-2.1425447	0.0	29.4375	-37.5625	11.6875	-1.3597566	-0.3406568	0.28477457
1277227122165	-2.4516625	8.19945	-2.7513103	-0.8171377	0.0	25.9375	-39.75	12.4375	-1.4168329	-0.31104934	0.29054216
1277227122205	-0.14982383	8.281172	-2.5333846	-1.14534	0.0	22.5	-42.0	13.4375	-1.5914056	-0.29683426	0.018090133
1277227122245	2.0294318	8.539958	-2.0294318	-0.7973175	0.0	18.0	-43.75	15.125	-1.7876102	-0.2272087	-0.23331189
1277227122285	2.4925237	9.847511	-2.7921712	0.72816753	0.0	13.8125	-45.0	17.375	-1.8150665	-0.26824766	-0.2479055
1277227122325	5.325556	10.310603	-3.3642259	2.2759037	0.0	9.125	-46.0	18.8125	-1.8334261	-0.282166	-0.47677022
1277227122365	5.6660647	13.865514	0.23154591	5.173683	0.0	4.125	-46.6875	19.3125	-2.3193982	0.015457275	-0.38793617
1277227122405	4.0180025	10.691973	-2.3426998	1.8531466	0.0	0.1875	-47.4375	18.375	-2.0652664	-0.20229815	-0.35946852
1277227122445	5.5571017	7.6954966	-5.284695	1.0575132	0.0	-2.5625	-47.9375	16.625	-1.3766801	-0.50800335	-0.6254204
1277227122485	6.742072	7.9270425	-4.0180025	1.3485231	0.0	-4.0	-47.9375	14.625	-1.5549849	-0.36847353	-0.7047932
1277227122525	6.2108784	6.782933	-3.255263	-0.050629616	0.0	-4.5	-47.6875	12.6875	-1.5434924	-0.34019095	-0.7414014
1277227122565	5.366417	6.973618	-2.9147544	-0.5370455	0.0	-5.0	-47.9375	10.6875	-1.4620428	-0.31986895	-0.6558844
1277227122605	4.9850473	7.014479	-1.4982382	-1.0717583	0.0	-5.5	-48.1875	9.25	-1.6487052	-0.17237575	-0.6178576
1277227122645	5.053149	6.701211	-1.4165162	-1.2950659	0.0	-6.0	-48.6875	7.75	-1.594086	-0.16720009	-0.64609766
1277227122685	4.944186	7.504812	-1.0351465	-0.7601757	0.0	-6.25	-48.9375	6.0625	-1.614683	-0.11467659	-0.5825382
1277227122725	4.862464	7.3958488	-1.4573772	-0.8363619	0.0	-6.5	-49.1875	5.0625	-1.4663923	-0.16319051	-0.5816006
1277227122765	4.671779	9.084772	-1.4165162	0.50669575	0.0	-7.0	-49.4375	2.8125	-1.3491315	-0.13778342	-0.47497687
1277227122805	4.440233	7.3958488	-0.53119355	-1.1639414	0.0	-7.25	-49.4375	1.125	-1.4820305	-0.061500225	-0.5406903
1277227122845	3.8273177	8.076866	0.53119355	-0.8530874	0.0	-8.5	-49.6875	-1.625	-1.6630402	0.059362475	-0.44251922
1277227122885	4.5628166	9.343558	-0.19068487	0.59324074	0.0	-10.5	-48.4375	-5.0625	-1.1048322	-0.018336304	-0.45427474
1277227122925	5.6660647	9.152874	-0.14982383	0.9591217	0.0	-13.1875	-47.4375	-8.0	-1.0090874	-0.013917131	-0.5543075
1277227122965	6.2789803	9.615966	-0.38136974	1.6841221	0.0	-16.9375	-45.75	-11.4375	-0.6942771	-0.03319531	-0.5784634
1277227123005	6.4015636	9.275456	-0.50395286	1.4746656	0.0	-20.375	-43.75	-13.6875	-0.4728218	-0.044686332	-0.6040924
1277227123045	7.7363577	8.689782	0.040861044	1.8280048	0.0	-24.125	-42.0	-15.125	-0.58506465	0.0035120188	-0.7274201
1277227123085	5.6660647	7.8861814	-0.6537767	-0.07404709	0.0	-27.8125	-40.0	-15.625	-0.03987909	-0.067224495	-0.62302136
1277227123125	5.09401	7.5865335	-1.1849703	-0.59206486	0.0	-30.8125	-38.3125	-15.875	0.18931915	-0.12895435	-0.5913097
1277227123165	6.932757	7.7363577	-2.4108016	0.857604	0.0	-33.0	-36.8125	-15.125	3.258062E-4	-0.22803496	-0.73067105
1277227123205	5.366417	7.5865335	-3.2961242	0.053286552	0.0	-34.25	-36.0625	-13.9375	0.23664504	-0.34085676	-0.6156491
1277227123245	3.8273177	6.510526	-3.7864566	-1.3584213	0.0	-34.75	-35.3125	-12.4375	0.35380825	-0.4647455	-0.53144974
1277227123285	4.2495484	5.706926	-4.2904096	-1.4979029	0.0	-34.75	-35.3125	-10.6875	0.19412556	-0.54260975	-0.6400555
1277227123325	5.9793324	6.4424243	-4.440233	0.04083252	0.0	-35.0	-35.3125	-9.25	0.053156026	-0.4677738	-0.7481347
1277227123366	7.668256	7.205164	-4.2086873	1.5260277	0.0	-35.75	-35.3125	-7.75	-0.04849123	-0.38049084	-0.8165237
1277227123406	8.730643	7.668256	-3.5276701	2.337103	0.0	-36.75	-34.5625	-6.25	-0.08301848	-0.29474157	-0.8500919
1277227123435	10.228881	8.281172	-2.2201166	3.5401373	0.0	-38.0	-33.8125	-4.3125	-0.18436447	-0.16711769	-0.8902368
1277227123476	10.760075	8.049625	-0.7218784	3.6505709	0.0	-39.6875	-32.8125	-2.5625	-0.4394619	-0.05366822	-0.9285115
1277227123515	7.668256	7.1234417	-1.4165162	0.7551718	0.0	-40.4375	-31.125	-1.125	0.5367309	-0.134522	-0.82221395
1277227123555	7.43671	6.5922484	-0.88532263	0.17063332	0.0	-41.1875	-30.125	-0.125	0.8008909	-0.08885069	-0.8455198
1277227123595	7.3141265	6.0474343	-0.7218784	-0.28882408	0.0	-42.4375	-29.125	0.125	0.8846097	-0.07591779	-0.8799169
1277227123635	4.440233	6.782933	0.19068487	-1.6973829	0.0	-43.1875	-27.625	0.125	1.6290379	0.023516608	-0.57961506
1277227123675	4.440233	9.425281	-1.3075534	0.69388676	0.0	-43.6875	-27.375	-0.375	1.3663944	-0.1248466	-0.44026005
1277227123715	4.2495484	10.501288	-2.3699405	1.767128	0.0	-43.9375	-27.625	-1.375	1.2537261	-0.20622677	-0.3845251
1277227123755	6.701211	8.281172	-1.6889231	0.97928905	0.0	-43.4375	-28.125	-2.0625	1.0260725	-0.15723269	-0.6803319
1277227123795	7.014479	9.997335	-3.5957718	2.9243832	0.0	-42.6875	-28.375	-2.5625	0.86338484	-0.28633827	-0.6118223
1277227123835	5.407278	8.390134	-2.4516625	0.47165966	0.0	-42.9375	-28.125	-2.3125	0.998583	-0.2408496	-0.57248527
1277227123875	7.3549876	7.3958488	-4.7126403	1.6390219	0.0	-43.6875	-26.875	-0.875	0.5134438	-0.42436254	-0.78262806
1277227123915	5.7886477	6.5922484	-3.486809	-0.3660984	0.0	-44.1875	-25.125	0.625	0.76955384	-0.37830278	-0.72058254
1277227123955	5.284695	5.5162406	-5.202973	-0.56393147	0.0	-44.0	-26.9375	2.25	0.46440512	-0.59792256	-0.76396394
1277227123995	4.399372	6.782933	-6.2108784	0.38833237	0.0	-43.0	-27.6875	4.5	0.7020987	-0.6550632	-0.5753864
1277227124035	2.8330324	8.117727	-5.7886477	0.55829144	0.0	-41.1875	-29.5625	6.8125	1.0296546	-0.5925564	-0.3357777
1277227124075	3.636633	6.5513873	-5.053149	-0.76894665	0.0	-39.4375	-31.3125	9.3125	0.81190675	-0.59332246	-0.5067454
1277227124115	3.9499009	7.3958488	-4.7535014	-0.16838932	0.0	-38.5	-31.8125	11.75	0.985937	-0.5157538	-0.4905307
1277227124155	4.440233	7.3958488	-4.5219555	-0.066921234	0.0	-37.75	-32.25	13.75	1.0201204	-0.48282084	-0.5406903
1277227124195	4.6036777	7.082581	-3.9499009	-0.4814949	0.0	-37.25	-32.5	15.4375	1.1434678	-0.437388	-0.57637525
1277227124235	4.7535014	8.076866	-4.0180025	0.39020634	0.0	-37.0	-32.5	16.4375	1.3582423	-0.40502664	-0.53194517
1277227124275	4.8216033	7.4639506	-4.2904096	0.060772896	0.0	-36.25	-33.25	17.1875	1.172652	-0.44982222	-0.57354784
1277227124315	3.759216	6.5513873	-3.336985	-1.549057	0.0	-35.0	-34.25	17.1875	1.32619	-0.41600686	-0.5209354
1277227124345	2.8330324	9.343558	-2.7240696	0.32985306	0.0	-32.5	-36.0	16.1875	1.7526993	-0.2720832	-0.2943964
1277227124385	2.3426998	9.888372	-1.7297841	0.5016136	0.0	-30.3125	-38.75	14.9375	1.9087156	-0.16860326	-0.23262557
1277227124425	1.607201	10.337844	-0.9942854	0.7025223	0.0	-27.3125	-40.9375	13.5	1.9896489	-0.094752915	-0.15423301
1277227124465	1.7978859	8.812365	-1.3075534	-0.71820354	0.0	-24.875	-42.6875	12.5	1.9127028	-0.14437084	-0.20125654
1277227124505	2.6423476	9.343558	-2.9147544	0.33139133	0.0	-23.125	-43.6875	12.25	1.3650509	-0.29162255	-0.2756022
1277227124545	1.4165162	10.800936	-3.2961242	1.5745258	0.0	-21.125	-44.4375	12.25	1.4506636	-0.29382136	-0.13040331
1277227124575	-0.84446156	7.4639506	-2.7921712	-1.7929182	0.0	-20.125	-44.9375	12.25	1.4403077	-0.35588852	0.112659626
1277227124605	-1.334794	5.407278	-0.46309182	-4.217841	0.0	-19.625	-45.1875	10.5	1.8078165	-0.08295567	0.24201307
1277227124645	-3.0237172	13.525005	1.4982382	4.1329823	0.0	-19.875	-45.6875	7.5625	1.9542098	0.10768849	0.21994811
1277227124685	-0.6537767	13.715691	1.879608	4.052662	0.0	-20.375	-45.9375	4.625	2.0130727	0.13603981	0.047630284
1277227124725	2.2201166	9.656827	2.1111538	0.32450008	0.0	-20.625	-46.1875	1.4375	2.4488015	0.20992081	-0.22597459
1277227124765	0.84446156	10.651112	1.1168685	0.9361	0.0	-21.125	-46.375	-0.8125	1.8061947	0.10415306	-0.079118386
1277227124805	-0.19068487	8.049625	1.2258313	-1.6619892	0.0	-21.625	-45.9375	-2.75	1.7501265	0.15108143	0.023684233
1277227124845	0.23154591	6.3198414	1.2258313	-3.364859	0.0	-22.125	-45.1875	-4.75	1.7678596	0.19146115	-0.036621552
1277227124885	0.7627395	5.434519	1.0351465	-4.2220917	0.0	-23.375	-44.1875	-6.0	1.7349603	0.18643686	-0.13944006
1277227124925	0.84446156	6.5922484	1.6480621	-2.9592443	0.0	-24.375	-43.6875	-6.9375	1.8048776	0.24307066	-0.12740532
1277227124965	1.334794	6.851035	2.982856	-2.2161436	0.0	-25.0625	-43.4375	-6.9375	2.2158227	0.40386134	-0.19242047
1277227125005	2.3018389	7.7363577	3.5276701	-0.9978962	0.0	-26.8125	-42.6875	-6.6875	2.3485281	0.41203323	-0.289194
1277227125045	2.4108016	12.912089	1.920469	3.4682217	0.0	-28.8125	-41.9375	-6.6875	1.5762216	0.14517896	-0.18458357
1277227125085	3.405087	9.152874	4.2904096	0.85999584	0.0	-30.5625	-40.6875	-6.6875	2.3220325	0.4139476	-0.35615885
1277227125125	4.7943625	12.340035	7.3549876	5.337928	0.0	-32.5	-39.1875	-7.4375	2.3819604	0.5071084	-0.37057167
1277227125165	3.8273177	11.727119	0.5720546	2.5424767	0.0	-33.25	-38.25	-8.9375	1.2406355	0.046340074	-0.31546572
1277227125205	-1.0351465	7.43671	0.3405087	-2.2905254	0.0	-33.25	-37.25	-10.375	1.3411149	0.04531927	0.1383055
1277227125245	-3.0645783	11.958665	1.1849703	2.5951834	0.0	-32.75	-37.25	-11.375	1.3626845	0.095693976	0.25086567
1277227125285	-0.7218784	11.876944	-0.29964766	2.0959826	0.0	-31.0625	-38.5	-11.125	1.224213	-0.025177566	0.060705137
1277227125326	1.7978859	11.141444	-1.6480621	1.5986242	0.0	-28.5625	-40.1875	-9.4375	0.9456829	-0.14500764	-0.15999
1277227125365	0.42223078	10.460427	0.10896278	0.6628618	0.0	-25.5625	-42.6875	-7.4375	1.2856508	0.010407816	-0.04034268
1277227125405	0.50395286	9.615966	1.4573772	-0.06782532	0.0	-22.375	-44.6875	-4.75	1.678195	0.15021034	-0.052360024
1277227125445	-0.10896278	9.275456	-0.08172209	-0.5301933	0.0	-20.125	-46.1875	-2.25	1.4430398	-0.008809736	0.011746891
1277227125485	-0.5720546	9.084772	-0.38136974	-0.69589996	0.0	-18.875	-46.625	0.1875	1.4923624	-0.041871548	0.06288549
1277227125525	0.313268	9.724928	1.607201	0.05516815	0.0	-18.375	-46.625	2.875	2.1288586	0.16370226	-0.032201752
1277227125565	1.0760075	9.915613	0.84446156	0.20285988	0.0	-18.125	-46.875	4.625	2.1621876	0.08446633	-0.108093515
1277227125605	2.2609777	9.384419	0.46309182	-0.14260292	0.0	-17.6875	-46.625	6.3125	2.5154443	0.047937393	-0.23642309
1277227125645	2.9147544	8.853226	0.19068487	-0.4840021	0.0	-16.1875	-47.125	7.3125	3.06506	0.020455364	-0.31805372
1277227125685	1.8387469	9.275456	-0.50395286	-0.3372755	0.0	-14.9375	-47.625	8.0625	2.3579352	-0.05324439	-0.19570065
1277227125728	1.1849703	10.119919	-0.3405087	0.38809586	0.0	-14.4375	-47.125	8.3125	2.2174857	-0.033406623	-0.116562076
1277227125765	0.42223078	11.413852	0.27240697	1.6182566	0.0	-14.1875	-47.625	8.5625	2.234318	0.023845514	-0.03697598
1277227125805	1.1441092	12.639683	1.0351465	2.9268532	0.0	-14.6875	-47.625	8.3125	2.4407508	0.08138295	-0.090271235
1277227125845	2.1111538	12.026767	0.10896278	2.4044905	0.0	-15.4375	-47.125	7.0625	2.3866053	0.008923345	-0.17376757
1277227125885	-1.1849703	9.915613	0.8036005	0.21179867	0.0	-16.9375	-46.875	5.875	1.9695102	0.080298334	0.11894141
1277227125925	-1.7570249	11.536434	0.53119355	1.8748999	0.0	-18.625	-46.1875	3.875	1.7963184	0.04548855	0.15114078
1277227125965	-0.27240697	12.571581	2.4516625	3.004654	0.0	-21.125	-45.1875	1.4375	1.9945605	0.19255483	0.021665083
1277227126005	1.334794	11.686258	2.8738933	2.3015938	0.0	-23.375	-44.9375	-1.0625	2.0831645	0.23963712	-0.11372626
1277227126045	2.1792557	8.771504	1.1168685	-0.6997385	0.0	-24.875	-44.1875	-3.5	1.7556055	0.12294918	-0.24351667
1277227126085	0.92618364	6.0201936	-0.0	-3.7156286	0.0	-25.8125	-43.4375	-6.6875	1.2308307	-0.0	-0.15264933
1277227126125	-1.1849703	4.903325	0.61291564	-4.725074	0.0	-26.5625	-42.4375	-8.9375	1.4416031	0.12090964	0.23712029
1277227126165	-0.7627395	6.0882955	0.7627395	-3.6235375	0.0	-27.0625	-41.4375	-10.875	1.3813996	0.12367352	0.124630325
1277227126205	0.14982383	6.891896	0.7218784	-2.8754325	0.0	-27.3125	-40.9375	-12.125	1.2859596	0.10433807	-0.021735707
1277227126245	0.61291564	7.9270425	4.0588636	-0.8798342	0.0	-27.3125	-40.4375	-11.875	1.9175007	0.4720153	-0.07716606
1277227126285	1.0351465	10.501288	5.6252036	2.1512556	0.0	-26.8125	-40.4375	-11.125	1.9983448	0.4897634	-0.09825586
1277227126327	0.7627395	13.375181	4.8216033	4.431507	0.0	-26.3125	-40.6875	-10.375	1.7565517	0.34547064	-0.056964785
1277227126365	2.7240696	11.75436	5.6252036	3.5060673	0.0	-26.3125	-40.6875	-9.9375	2.1281767	0.4362499	-0.22772956
1277227126395	3.5276701	10.269742	7.246025	3.247733	0.0	-26.8125	-40.4375	-9.6875	2.5452511	0.5884405	-0.33087367
1277227126425	4.0180025	15.28203	3.214402	6.3183975	0.0	-27.3125	-40.6875	-10.1875	1.5238788	0.20068657	-0.25710434
1277227126465	1.2666923	13.293459	-3.759216	4.066066	0.0	-28.0625	-39.6875	-9.9375	0.8556545	-0.27441	-0.09500005
1277227126505	-5.6252036	5.5571017	2.3699405	-1.551899	0.0	-28.3125	-39.1875	-9.6875	1.4221302	0.2911982	0.79148823
1277227126545	-1.56634	6.2789803	-0.5720546	-3.3100152	0.0	-28.3125	-39.0	-10.1875	1.2351373	-0.088168174	0.2444682
1277227126585	2.8738933	10.95076	-2.9556155	1.8943777	0.0	-27.8125	-39.0	-10.375	0.67249143	-0.2553608	-0.25665012
1277227126645	-1.2666923	10.528529	1.7978859	0.949131	0.0	-26.5625	-39.9375	-9.6875	1.4603522	0.16794367	0.11973497
1277227126685	0.92618364	8.499097	1.2666923	-1.163909	0.0	-25.0625	-41.1875	-7.6875	1.5119202	0.14709124	-0.108546026
1277227126729	1.1849703	6.742072	-1.2258313	-2.8523455	0.0	-24.125	-42.4375	-4.25	0.9282289	-0.17719524	-0.17398062
1277227126765	0.313268	9.697687	0.08172209	-0.10356045	0.0	-23.625	-42.9375	-0.5625	1.5620406	0.008422375	-0.032292143
1277227126805	1.5390993	9.152874	1.2258313	-0.4446745	0.0	-22.375	-43.4375	2.375	2.0877373	0.13131431	-0.1665962
1277227126835	2.5606253	8.662541	1.7297841	-0.6094456	0.0	-20.875	-43.9375	4.625	2.6334162	0.189204	-0.28741288
1277227126875	2.6423476	9.997335	0.7218784	0.5591507	0.0	-19.125	-43.9375	6.3125	2.4937117	0.06969681	-0.2583964
1277227126915	2.0294318	9.112013	0.14982383	-0.47017288	0.0	-17.4375	-44.1875	8.3125	2.4559915	0.016047837	-0.2191437
1277227126955	2.8738933	10.378705	-0.040861044	0.9626789	0.0	-15.9375	-43.9375	9.3125	2.7629685	-0.0037942142	-0.27013445
1277227126995	1.7570249	11.141444	0.313268	1.4768362	0.0	-15.1875	-43.6875	9.8125	2.5043502	0.027766973	-0.15641354
1277227127035	1.3756552	11.686258	0.7218784	1.982419	0.0	-13.9375	-43.6875	10.0625	2.5427947	0.061271187	-0.11717638
1277227127075	2.6014864	13.525005	0.313268	3.9698381	0.0	-13.4375	-43.4375	9.3125	2.691808	0.022741282	-0.19002564
1277227127115	-0.08172209	11.34575	0.3405087	1.5445032	0.0	-13.6875	-43.1875	9.3125	2.218953	0.030002218	0.007202756
1277227127155	-2.6832085	10.378705	0.7627395	0.94039154	0.0	-14.4375	-43.4375	8.5625	1.9965407	0.07103176	0.2529908
1277227127195	-3.0645783	11.073342	-0.95342433	1.7224245	0.0	-16.1875	-43.1875	6.5625	1.6975081	-0.08279193	0.26999503
1277227127235	-0.040861044	11.795221	2.3699405	2.2243738	0.0	-17.1875	-43.1875	4.625	2.2152996	0.1982825	0.0034641894
1277227127275	2.5333846	11.304889	2.8738933	2.129756	0.0	-18.125	-43.6875	1.6875	2.5775287	0.24315608	-0.2204542
1277227127315	1.8387469	8.771504	0.61291564	-0.82355785	0.0	-18.625	-43.1875	-1.3125	1.7642533	0.06828296	-0.20663524
1277227127345	-0.50395286	6.851035	0.10896278	-2.9362411	0.0	-18.625	-42.9375	-4.25	1.4069376	0.015860388	0.0734264
1277227127375	-1.2258313	5.706926	0.88532263	-3.9027987	0.0	-18.875	-42.6875	-7.1875	1.5182492	0.15052457	0.21158224
1277227127415	-1.0351465	4.7943625	1.2666923	-4.7408876	0.0	-19.125	-41.9375	-9.9375	1.5569719	0.25273156	0.21264493
1277227127455	-0.9125633	5.325556	1.2258313	-4.266165	0.0	-19.125	-41.6875	-11.875	1.4476534	0.22309583	0.16970728
1277227127495	-1.1168685	6.3198414	3.759216	-2.3689423	0.0	-19.125	-41.9375	-11.625	1.9079425	0.52987635	0.17491809
1277227127535	-0.53119355	10.651112	7.8861814	3.4568405	0.0	-19.125	-42.1875	-11.125	2.2033212	0.63674086	0.04983084
1277227127575	1.3075534	16.126492	6.2789803	7.548435	0.0	-18.875	-42.9375	-10.1875	1.9736264	0.37019244	-0.0809041
1277227127615	1.920469	10.228881	7.4639506	3.000721	0.0	-18.875	-43.4375	-9.1875	2.645032	0.6221523	-0.18558915
1277227127655	2.5606253	14.47843	3.990762	5.428438	0.0	-18.375	-43.6875	-9.6875	1.8279823	0.2650375	-0.17504783
1277227127695	-1.1441092	10.228881	0.53119355	0.49971485	0.0	-18.875	-44.1875	-9.6875	1.2631989	0.05156319	0.1113879
1277227127728	-3.718355	5.7477865	1.56634	-2.78407	0.0	-19.625	-44.1875	-9.1875	1.4953811	0.2249354	0.5742066
1277227127765	-2.3018389	8.349273	0.61291564	-1.1242266	0.0	-20.125	-44.4375	-7.9375	1.4034914	0.07065146	0.26901066
1277227127805	0.61291564	10.528529	-0.7627395	0.76725006	0.0	-20.875	-44.6875	-6.0	1.0997821	-0.07219687	-0.058149114
1277227127845	0.42223078	9.343558	-0.42223078	-0.44403172	0.0	-20.625	-44.9375	-3.75	1.2675248	-0.04511281	-0.04515878
1277227127875	0.61291564	9.302697	0.92618364	-0.43789005	0.0	-20.125	-45.1875	-1.0625	1.7743028	0.09902046	-0.065790705
1277227127925	2.4516625	7.5865335	0.19068487	-1.8315325	0.0	-19.125	-45.6875	1.6875	2.175438	0.023912253	-0.31256658
1277227127965	1.3075534	8.117727	0.46309182	-1.5712605	0.0	-18.375	-45.9375	3.875	2.1167524	0.056261603	-0.1597021
1277227128005	0.9942854	9.043911	0.27240697	-0.7041702	0.0	-16.9375	-46.375	5.875	2.12647	0.029931145	-0.109500006
1277227128045	1.2258313	8.894087	1.3756552	-0.72370625	0.0	-15.4375	-46.625	7.3125	2.591057	0.15203984	-0.13696253
1277227128085	2.2201166	9.575105	1.0351465	0.07682514	0.0	-14.1875	-47.375	8.0625	2.9092605	0.1049275	-0.22783747
1277227128125	3.0237172	9.697687	-0.3405087	0.35720444	0.0	-12.6875	-48.125	9.0625	-2.850732	-0.033508193	-0.302245
1277227128165	1.4165162	9.724928	-0.040861044	0.02098465	0.0	-11.4375	-48.375	9.8125	2.7167938	-0.004157782	-0.14464109
1277227128205	0.53119355	11.032481	-0.08172209	1.2389135	0.0	-10.25	-49.125	9.8125	2.4465852	-0.0073987017	-0.04811099
1277227128245	0.7218784	12.258313	-0.10896278	2.473383	0.0	-9.5	-49.125	10.0625	2.540681	-0.008873283	-0.05882095
1277227128285	1.7570249	13.6748295	0.8036005	4.003993	0.0	-9.25	-49.375	9.8125	2.918658	0.058219925	-0.12778594
1277227128325	1.7297841	11.876944	0.50395286	2.206172	0.0	-9.75	-49.375	9.5625	2.9277923	0.041963562	-0.14462534
1277227128366	-0.61291564	9.112013	0.42223078	-0.6642914	0.0	-10.5	-49.625	8.5625	2.2349415	0.04620044	0.0671634
1277227128405	-3.173541	10.651112	0.040861044	1.3072691	0.0	-12.1875	-50.125	6.8125	1.8330057	0.003676573	0.28957865
1277227128435	-1.6889231	12.639683	0.5720546	2.9581957	0.0	-13.6875	-50.125	4.375	1.8827472	0.044829864	0.13283387
1277227128476	1.1849703	12.108489	4.0180025	3.0060005	0.0	-15.4375	-50.375	1.1875	2.598425	0.31897825	-0.097552136
1277227128515	1.4982382	9.847511	1.8387469	0.32247543	0.0	-16.6875	-50.375	-2.25	2.255513	0.18254276	-0.15098594
1277227128555	1.5390993	6.469665	-0.08172209	-3.1559305	0.0	-17.4375	-49.375	-6.0	0.69510406	-0.012288016	-0.23355344
1277227128595	-0.61291564	6.2789803	1.4573772	-3.3316827	0.0	-18.125	-48.625	-9.9375	1.606533	0.2270238	0.0973056
1277227128635	-1.0351465	5.6252036	1.4165162	-3.9142003	0.0	-18.875	-47.375	-12.875	1.4929073	0.24277288	0.18198343
1277227128675	-0.9942854	4.8216033	0.7627395	-4.82486	0.0	-19.875	-46.1875	-15.3125	1.2735319	0.15371007	0.20336403
1277227128715	-0.3405087	4.440233	2.3699405	-4.762026	0.0	-20.625	-45.4375	-16.3125	1.8209733	0.48905882	0.07653732
1277227128755	-0.61291564	7.246025	6.66035	0.05442524	0.0	-21.125	-45.4375	-15.3125	2.1993642	0.74153167	0.08438559
1277227128795	1.9477097	17.393185	7.1234417	9.089378	0.0	-20.875	-46.1875	-14.8125	1.849161	0.3865345	-0.11151662
1277227128835	2.7649305	13.565866	6.932757	5.6769123	0.0	-21.125	-46.625	-14.125	2.2770708	0.4642468	-0.20106137
1277227128875	2.7240696	7.082581	7.5865335	0.9236345	0.0	-21.375	-47.125	-14.125	3.0277646	0.7852764	-0.36717385
1277227128915	1.3075534	14.369467	1.9477097	4.75305	0.0	-21.875	-47.125	-14.8125	1.1359247	0.13417625	-0.09074536
1277227128955	-3.445948	6.973618	0.313268	-2.0217905	0.0	-23.125	-46.625	-14.5625	1.2602828	0.04025154	0.4589491
1277227128995	-3.5957718	6.3607025	0.50395286	-2.4825745	0.0	-24.375	-46.875	-13.375	1.3196831	0.06886212	0.5145219
1277227129035	-0.53119355	11.454713	0.9942854	1.7033987	0.0	-24.625	-46.625	-11.375	1.3007241	0.08649191	0.046340164
1277227129075	1.2258313	10.038197	-1.525479	0.4205265	0.0	-24.375	-47.125	-9.1875	0.84193844	-0.14971805	-0.121515036
1277227129115	-1.1168685	9.084772	0.23154591	-0.65055466	0.0	-23.375	-47.875	-7.1875	1.3652275	0.025291415	0.12232472
1277227129155	0.7218784	8.539958	1.3075534	-1.1370659	0.0	-21.625	-48.625	-4.25	1.7621477	0.1513985	-0.08432903
1277227129195	0.53119355	7.3141265	0.08172209	-2.4728045	0.0	-20.375	-49.875	-1.8125	1.4966222	0.011143373	-0.07249842
1277227129235	0.040861044	9.00305	0.313268	-0.7980585	0.0	-19.625	-50.375	1.6875	1.7463915	0.03478137	-0.004538547
1277227129275	1.3756552	9.615966	0.9942854	-0.04202938	0.0	-18.375	-50.625	4.875	2.3184109	0.102002084	-0.14209536
1277227129315	2.3018389	9.384419	1.3756552	-0.04661846	0.0	-17.1875	-50.875	7.0625	2.8367355	0.14141873	-0.24053426
1277227129345	2.982856	9.466142	0.6946377	0.14261055	0.0	-15.4375	-51.125	9.5625	-3.0932937	0.06987487	-0.305259
1277227129375	2.8330324	9.152874	0.7218784	-0.19820213	0.0	-13.9375	-51.875	10.3125	-3.0011234	0.07520041	-0.30017117
1277227129415	1.8387469	9.575105	0.19068487	-0.054728508	0.0	-12.6875	-52.125	11.5	2.9349737	0.019554814	-0.18972446
1277227129455	1.6480621	10.460427	-0.0	0.78280926	0.0	-11.9375	-51.875	11.75	2.8350878	-0.0	-0.15626754
1277227129495	1.9885708	12.217452	0.313268	2.5755415	0.0	-11.9375	-52.125	11.75	2.8869762	0.025302583	-0.16134985
1277227129535	2.2609777	13.865514	1.0351465	4.2800817	0.0	-11.4375	-51.625	12.0	2.9557197	0.07355009	-0.16164216
1277227129575	0.84446156	11.645397	0.313268	1.8735266	0.0	-12.6875	-51.625	11.0	2.51803	0.026823701	-0.07238792
1277227129615	-3.0645783	10.501288	1.4982382	1.2347908	0.0	-13.6875	-52.125	9.5625	2.0869749	0.13611215	0.2839435
1277227129655	-3.568531	13.443283	-0.29964766	4.1054335	0.0	-15.4375	-52.375	7.3125	1.7895972	-0.021540327	0.25946698
1277227129695	0.6946377	12.980191	2.8738933	3.5060186	0.0	-17.4375	-52.375	4.375	2.3940225	0.21758947	-0.053464215
1277227129735	1.334794	11.073342	3.486809	1.8791714	0.0	-18.625	-52.375	0.9375	2.5203116	0.3029943	-0.11996242
1277227129775	0.46309182	6.6331096	-0.10896278	-3.1565022	0.0	-19.875	-51.875	-2.5	1.3658524	-0.01638575	-0.06970209
1277227129815	-0.6537767	5.407278	0.84446156	-4.2949176	0.0	-20.375	-50.625	-6.6875	1.598048	0.15381747	0.120322764
1277227129845	-1.2258313	5.053149	1.6889231	-4.3395267	0.0	-21.125	-49.625	-10.1875	1.6841978	0.31406102	0.2379902
1277227129875	-0.9125633	4.372132	0.95342433	-5.239668	0.0	-21.375	-49.125	-13.125	1.4515909	0.21031158	0.20576857
1277227129915	-0.29964766	4.099725	1.0760075	-5.5574946	0.0	-21.875	-48.375	-14.5625	1.4812952	0.25601614	0.07295997
1277227129955	0.88532263	4.671779	3.5276701	-3.8860273	0.0	-22.125	-48.125	-14.5625	2.5478933	0.63829565	-0.18728355
1277227129995	1.7297841	10.528529	8.662541	3.9367743	0.0	-22.125	-48.625	-12.875	2.586793	0.6819453	-0.16284017
1277227130035	2.070293	19.231932	7.668256	11.000931	0.0	-21.875	-49.125	-11.125	2.0477076	0.3774292	-0.107235774
1277227130075	-0.23154591	9.343558	7.3549876	2.08669	0.0	-22.375	-49.375	-10.1875	2.325281	0.6667207	0.024776272
1277227130115	2.3426998	8.62168	5.8567495	0.87619305	0.0	-22.625	-49.875	-10.375	2.7459435	0.58025694	-0.2653161
1277227130155	-2.9147544	13.252599	0.53119355	3.7730894	0.0	-23.125	-49.625	-11.875	1.2740794	0.03912661	0.21649149
1277227130195	-3.1463003	6.4015636	-1.3075534	-2.5548282	0.0	-24.125	-49.125	-11.875	1.1826912	-0.18129842	0.45681593
1277227130225	-1.1441092	9.656827	0.46309182	-0.07126331	0.0	-23.875	-49.625	-10.625	1.2937421	0.04758585	0.11792701
1277227130255	0.3405087	11.264028	1.2666923	1.5334892	0.0	-23.125	-49.875	-7.9375	1.4674382	0.11193348	-0.030220544
1277227130295	-0.61291564	8.853226	-0.95342433	-0.88116455	0.0	-22.625	-50.625	-5.0	1.1978401	-0.10702465	0.06912048
1277227130335	-0.9942854	9.507003	-0.9942854	-0.19622326	0.0	-21.125	-51.875	-2.5	1.2906625	-0.10364449	0.1042057
1277227130375	0.84446156	8.730643	0.7627395	-1.002162	0.0	-19.875	-52.375	0.4375	1.9049745	0.08673949	-0.09642392
1277227130415	0.50395286	6.701211	-0.08172209	-3.0860195	0.0	-19.375	-53.125	3.875	1.7773014	-0.012160184	-0.07506196
1277227130445	0.19068487	9.847511	0.5720546	0.059306145	0.0	-17.875	-53.125	7.0625	2.1131585	0.058015227	-0.019361343
1277227130485	1.879608	10.56939	0.61291564	0.94605255	0.0	-16.4375	-53.375	10.0625	2.6637833	0.05703199	-0.17599514
1277227130525	3.445948	9.00305	1.2258313	-0.089030266	0.0	-14.6875	-53.5625	11.75	-2.8579845	0.12648219	-0.3655508
1277227130565	3.2961242	9.656827	0.53119355	0.411026	0.0	-12.4375	-53.5625	13.5	-2.814919	0.052011155	-0.32892647
1277227130605	1.7297841	10.038197	0.50395286	0.3919525	0.0	-10.6875	-54.3125	14.5	3.0657043	0.049434043	-0.17064433
1277227130645	1.3075534	11.032481	0.42223078	1.3110657	0.0	-9.5	-54.3125	15.4375	2.9696674	0.03798733	-0.11796823
1277227130685	1.7978859	12.340035	0.88532263	2.695056	0.0	-8.5	-54.5625	15.4375	3.1133883	0.070875466	-0.14467739
1277227130725	1.4165162	13.565866	1.1168685	3.8786201	0.0	-8.25	-55.3125	14.5	3.012858	0.08170186	-0.10404064
1277227130765	-0.42223078	9.384419	-0.10896278	-0.41210556	0.0	-9.25	-55.0625	13.75	2.4125285	-0.011598776	0.04496242
1277227130805	-3.6774938	10.732834	1.1168685	1.5935726	0.0	-10.9375	-55.0625	11.5	2.092322	0.09812641	0.33010265
1277227130845	-2.6014864	14.246883	-0.7218784	4.693782	0.0	-13.6875	-55.3125	9.3125	1.8502258	-0.04980382	0.18061057
1277227130885	0.6946377	13.402422	3.6774938	4.1084995	0.0	-16.4375	-54.5625	5.875	2.5514193	0.26745716	-0.051782932
1277227130925	2.070293	9.80665	3.3778462	0.7700386	0.0	-18.625	-54.5625	2.375	2.8150268	0.32506153	-0.20805615
1277227130965	1.3075534	6.1700177	0.313268	-3.4918299	0.0	-20.625	-54.0625	-1.8125	1.684646	0.04962875	-0.2088309
1277227131005	-0.53119355	4.5628166	0.50395286	-5.1854563	0.0	-22.375	-52.625	-5.75	1.560289	0.10926984	0.1158962
1277227131045	-1.4573772	4.5219555	0.38136974	-5.040365	0.0	-23.875	-51.625	-9.4375	1.4148718	0.080099665	0.31177807
1277227131085	-0.95342433	3.9499009	0.3405087	-5.7290673	0.0	-24.875	-50.875	-13.125	1.3152337	0.08360485	0.23684877
1277227131125	-0.3405087	5.012288	3.5957718	-3.62858	0.0	-25.3125	-50.125	-14.125	2.096489	0.6212129	0.067830555
1277227131165	0.23154591	10.841797	7.668256	3.474928	0.0	-25.5625	-49.875	-13.875	2.1986156	0.61549205	-0.02135354
1277227131205	1.920469	19.041246	7.0553403	10.590288	0.0	-25.8125	-50.125	-11.875	1.8978003	0.3531999	-0.10051844
1277227131245	1.4573772	8.812365	8.430995	2.475996	0.0	-26.0625	-49.625	-10.625	2.5926187	0.756548	-0.16389523
1277227131285	4.099725	13.021052	2.3018389	4.037266	0.0	-26.8125	-49.125	-10.1875	1.4863684	0.16704662	-0.3050276
1277227131325	-2.0294318	12.14935	-0.0	2.511032	0.0	-27.8125	-48.375	-9.9375	1.2971387	-0.0	0.16551226
1277227131355	-3.9090397	4.7535014	-0.3405087	-3.6428595	0.0	-28.8125	-47.375	-10.1875	1.3603315	-0.05527153	0.6882209
1277227131385	-1.9885708	8.117727	0.84446156	-1.4063511	0.0	-29.3125	-46.875	-9.1875	1.438691	0.10069765	0.24023563
1277227131425	0.313268	11.917805	-0.08172209	2.115551	0.0	-28.5625	-47.375	-8.1875	1.2684655	-0.006854668	-0.026279662
1277227131455	-0.19068487	9.888372	-0.88532263	0.12310696	0.0	-27.0625	-48.375	-6.6875	1.1986167	-0.08927708	0.019281356
1277227131495	-0.95342433	8.158588	0.88532263	-1.5449686	0.0	-25.5625	-49.125	-5.25	1.5608563	0.10736626	0.11633377
1277227131535	1.1441092	7.9679036	0.6537767	-1.7305193	0.0	-24.375	-49.625	-2.5	1.6738086	0.0810404	-0.14261493
1277227131575	0.61291564	7.164303	-0.46309182	-2.6012802	0.0	-24.125	-49.875	0.9375	1.4505643	-0.0643147	-0.08534352
1277227131615	-0.9125633	9.915613	0.95342433	0.19640827	0.0	-23.375	-49.625	3.875	1.862775	0.09545819	0.09177444
1277227131655	1.7978859	9.534244	1.1849703	-0.03227806	0.0	-22.375	-49.375	7.0625	2.377432	0.121531315	-0.18638277
1277227131695	2.982856	9.343558	0.8036005	0.034350395	0.0	-20.375	-49.375	9.0625	2.8242722	0.08174944	-0.30901518
1277227131737	2.8330324	9.507003	0.84446156	0.14936733	0.0	-18.625	-48.875	10.3125	2.8827956	0.08492125	-0.28961566
1277227131775	1.4165162	9.80665	-0.040861044	0.10186005	0.0	-17.1875	-48.875	10.5	2.3693151	-0.0041238447	-0.14345227
1277227131815	1.9885708	11.114203	0.5720546	1.4985332	0.0	-16.1875	-49.375	11.0	2.6521773	0.05062271	-0.17704816
1277227131855	2.6423476	12.871228	1.2666923	3.393919	0.0	-15.9375	-49.375	10.75	2.793263	0.09610527	-0.20247786
1277227131895	1.5390993	13.184497	0.7218784	3.486991	0.0	-15.9375	-49.125	9.8125	2.4622207	0.054329257	-0.116209574
1277227131935	-2.070293	10.079058	1.0351465	0.5347729	0.0	-17.1875	-49.125	9.3125	2.0456436	0.10026502	0.20258762
1277227131975	-4.399372	13.0619135	-0.0	3.9762402	0.0	-18.625	-47.875	7.0625	1.7820535	-0.0	0.32487553
1277227132015	-0.9125633	14.206022	1.3756552	4.4949675	0.0	-20.125	-47.125	4.875	1.9516772	0.09633773	0.06414964
1277227132055	0.5720546	12.598822	3.759216	3.353488	0.0	-21.625	-46.375	2.375	2.25146	0.2896864	-0.045374244
1277227132095	1.334794	7.8180795	2.070293	-1.6096897	0.0	-22.625	-45.9375	-0.5625	2.2537425	0.25533375	-0.16910124
1277227132135	0.3405087	4.903325	0.46309182	-4.8697486	0.0	-23.125	-45.1875	-4.25	1.5781945	0.09394022	-0.069333136
1277227132175	-0.9125633	4.5628166	0.92618364	-5.062192	0.0	-24.125	-44.6875	-8.6875	1.5433587	0.19647542	0.19739556
1277227132215	-0.95342433	4.4810944	0.46309182	-5.201905	0.0	-24.375	-44.1875	-12.125	1.3267343	0.10073869	0.20963985
1277227132255	-0.46309182	3.990762	1.3756552	-5.560115	0.0	-24.625	-42.9375	-14.5625	1.5408856	0.3298992	0.11552427
1277227132295	-0.3405087	6.4015636	5.47538	-1.3760061	0.0	-24.875	-43.1875	-14.8125	2.100505	0.7068762	0.053141408
1277227132335	0.040861044	13.252599	8.308413	5.8350487	0.0	-24.375	-43.4375	-13.625	2.016064	0.55998176	-0.0030832377
1277227132375	0.9942854	17.583868	6.742072	9.05168	0.0	-24.375	-43.4375	-11.625	1.8014879	0.36560208	-0.05648517
1277227132415	2.2201166	5.2165933	7.5456724	-0.3684864	0.0	-23.875	-43.4375	-10.625	2.992667	0.92643774	-0.4023681
1277227132455	2.4108016	14.7916975	3.0237172	5.4822063	0.0	-24.125	-43.4375	-10.1875	1.5268446	0.19908512	-0.16156287
1277227132495	-2.8738933	9.043911	0.08172209	-0.3167467	0.0	-24.875	-42.6875	-9.9375	1.3131927	0.008611583	0.30767974
1277227132535	-2.7513103	3.445948	-0.46309182	-5.3728347	0.0	-25.3125	-42.4375	-9.9375	1.3231236	-0.104636274	0.6737762
1277227132565	0.9942854	11.795221	0.27240697	2.0335379	0.0	-25.0625	-42.9375	-9.1875	1.2063128	0.02300901	-0.0840968
1277227132605	2.5606253	13.565866	-0.6946377	4.0162315	0.0	-24.375	-43.1875	-7.9375	0.9977252	-0.05027392	-0.18656006
1277227132645	-1.9477097	8.349273	1.1441092	-1.1572046	0.0	-23.625	-44.1875	-6.25	1.5341084	0.13266425	0.22918037
1277227132687	0.313268	8.471856	1.6889231	-1.1624069	0.0	-22.375	-45.4375	-4.5	1.7905769	0.19664618	-0.036960654
1277227132725	1.5390993	7.5865335	-0.0	-2.0655704	0.0	-22.375	-46.1875	-2.0625	1.4103614	-0.0	-0.20015608
1277227132765	0.313268	7.5456724	-0.040861044	-2.2543669	0.0	-21.625	-46.625	1.1875	1.6180654	-0.005410449	-0.04149242
1277227132805	0.23154591	9.193735	1.4982382	-0.48875904	0.0	-20.375	-46.875	4.125	2.1179142	0.1614926	-0.025179861
1277227132845	1.4573772	9.956474	2.070293	0.46668625	0.0	-18.875	-46.875	6.3125	2.5050297	0.20291053	-0.14534268
1277227132885	2.0294318	9.915613	0.27240697	0.31817913	0.0	-16.6875	-47.125	8.5625	2.5325453	0.02690809	-0.2018822
1277227132925	2.4516625	9.724928	1.3756552	0.3164568	0.0	-14.9375	-47.625	9.5625	2.9683888	0.13631435	-0.24695493
1277227132965	2.1792557	10.882658	1.3075534	1.3688183	0.0	-14.1875	-47.875	10.3125	2.8677673	0.117270716	-0.19763623
1277227133005	3.214402	12.598822	0.46309182	3.2040043	0.0	-13.9375	-48.375	10.5	3.0164142	0.035600796	-0.24980587
1277227133045	3.6774938	13.293459	-0.61291564	3.999714	0.0	-14.4375	-48.375	10.3125	3.0161173	-0.0444083	-0.26988965
1277227133085	0.040861044	9.343558	0.84446156	-0.42492008	0.0	-15.4375	-47.875	9.0625	2.2902415	0.09013327	-0.00437315
1277227133125	-5.012288	13.252599	1.9477097	4.4953775	0.0	-16.4375	-47.625	6.5625	1.9211748	0.13660866	0.36158344
1277227133165	-2.4925237	14.410328	0.9942854	4.8514137	0.0	-17.6875	-46.875	4.375	1.850233	0.0678841	0.17127323
1277227133205	2.2609777	11.836082	2.9147544	2.5909567	0.0	-19.375	-46.625	0.6875	2.444896	0.23732784	-0.18875024
1277227133245	2.4516625	9.507003	2.3426998	0.28701115	0.0	-20.375	-46.625	-2.5	2.4219978	0.23423211	-0.25238094
1277227133285	-0.27240697	6.238119	0.23154591	-3.5582943	0.0	-21.125	-45.9375	-6.25	1.3751751	0.03706558	0.0436404
1277227133325	-1.607201	4.2495484	1.1849703	-5.111343	0.0	-22.125	-45.1875	-9.9375	1.5456009	0.25513217	0.3615777
1277227133355	-0.8036005	4.671779	0.9942854	-4.9631085	0.0	-22.375	-43.6875	-13.375	1.4016578	0.20675045	0.17034467
1277227133385	-0.5720546	4.903325	0.53119355	-4.8415713	0.0	-22.875	-41.9375	-16.3125	1.1590116	0.10719108	0.11614163
1277227133415	-0.46309182	5.134871	1.4982382	-4.4376583	0.0	-22.875	-41.4375	-17.3125	1.3596295	0.28280875	0.08994236
1277227133455	-0.6946377	5.7477865	3.8273177	-2.8663383	0.0	-22.875	-41.4375	-17.0625	1.8164115	0.58411574	0.12026981
1277227133495	-0.42223078	10.882658	8.962189	4.2976522	0.0	-22.375	-42.4375	-15.3125	2.1163588	0.68855536	0.038779046
1277227133535	2.4925237	17.815414	6.4424243	9.301109	0.0	-22.125	-43.4375	-13.375	1.7540814	0.34390154	-0.13900597
1277227133575	2.5333846	8.499097	6.973618	1.4753723	0.0	-22.625	-43.6875	-12.375	2.7130985	0.66634595	-0.28969157
1277227133615	2.7240696	10.841797	5.366417	2.5934925	0.0	-22.375	-43.6875	-12.125	2.2943616	0.4475638	-0.24616069
1277227133655	-1.879608	14.628253	-0.14982383	4.942626	0.0	-22.875	-43.6875	-11.625	1.1681443	-0.010158222	0.1277914
1277227133695	-2.982856	5.407278	-0.040861044	-3.6310725	0.0	-23.625	-43.6875	-11.125	1.3066485	-0.0066166027	0.50409937
1277227133739	-2.3699405	8.240311	1.9885708	-1.0047331	0.0	-23.625	-44.1875	-9.6875	1.5330641	0.22789222	0.28004524
1277227133775	-0.08172209	10.119919	-0.5720546	0.32975388	0.0	-23.875	-44.6875	-7.9375	1.164184	-0.056465656	0.008075194
1277227133815	0.38136974	10.038197	-1.56634	0.36017132	0.0	-23.125	-44.9375	-6.9375	0.99452984	-0.15467995	-0.037973598
1277227133855	0.040861044	9.80665	1.334794	0.09050751	0.0	-21.625	-45.9375	-5.0	1.6291995	0.13527863	-0.0041666427
1277227133895	1.879608	8.689782	0.84446156	-0.87589645	0.0	-20.625	-45.9375	-2.75	1.7525641	0.09469806	-0.2130193
1277227133935	-0.19068487	7.4639506	0.27240697	-2.3352962	0.0	-19.875	-46.625	-0.0625	1.647497	0.03646827	0.02554189
1277227133975	-0.10896278	9.575105	0.313268	-0.22580242	0.0	-19.125	-46.875	2.625	1.7788147	0.032703146	0.011379309
1277227134015	1.4165162	8.662541	1.5390993	-0.89514256	0.0	-18.125	-46.875	4.875	2.4814382	0.17357954	-0.16208747
1277227134045	1.0351465	9.275456	1.4982382	-0.3541193	0.0	-16.4375	-47.625	7.0625	2.4989278	0.15917255	-0.111140706
1277227134075	1.56634	10.079058	0.7218784	0.41890335	0.0	-14.9375	-47.875	8.3125	2.580699	0.0706543	-0.15417215
1277227134115	1.4165162	9.193735	0.46309182	-0.49291134	0.0	-13.4375	-48.375	9.8125	2.6927297	0.04974188	-0.15287197
1277227134155	2.6014864	8.853226	0.23154591	-0.57621384	0.0	-12.4375	-48.625	10.5	-2.9916666	0.025087677	-0.28580156
1277227134195	3.759216	10.18802	0.3405087	1.0581274	0.0	-11.9375	-49.375	10.75	-2.6956394	0.031345736	-0.35348597
1277227134240	1.879608	10.732834	0.95342433	1.1311588	0.0	-11.4375	-49.375	11.25	2.9673824	0.08727853	-0.17336881
1277227134275	3.1054392	10.760075	1.56634	1.5015936	0.0	-11.1875	-49.375	11.0	-2.9786208	0.13895988	-0.28097257
1277227134325	1.2258313	12.340035	-0.8036005	2.6201315	0.0	-11.9375	-49.875	10.3125	2.3602304	-0.06471198	-0.09901291
1277227134365	-6.782933	12.14935	2.070293	4.261079	0.0	-13.6875	-49.375	8.3125	1.9314423	0.14770256	0.50919014
1277227134405	-5.134871	16.821129	1.7570249	7.8683167	0.0	-15.4375	-49.125	5.625	1.8961662	0.09957199	0.29627836
1277227134445	1.0760075	12.340035	4.2495484	3.2888803	0.0	-18.125	-48.875	2.375	2.5018024	0.330487	-0.086976476
1277227134485	2.7240696	9.193735	2.0294318	-0.0054302216	0.0	-20.125	-47.625	-1.3125	2.589209	0.20856795	-0.28805545
1277227134525	1.0351465	6.469665	1.6480621	-3.0506005	0.0	-21.125	-47.125	-4.75	2.0839384	0.2464252	-0.15865527
1277227134565	-1.0760075	6.2108784	1.4165162	-3.3460526	0.0	-21.875	-46.375	-8.6875	1.5953537	0.22105049	0.17154291
1277227134605	-1.8387469	5.706926	1.1849703	-3.6948462	0.0	-22.375	-45.1875	-12.875	1.4122124	0.19511797	0.31169343
1277227134645	-0.29964766	3.486809	1.4982382	-5.999769	0.0	-22.375	-44.9375	-15.5625	1.6684219	0.40450153	0.08572688
1277227134685	1.3756552	3.2961242	2.7240696	-5.314722	0.0	-22.625	-44.6875	-16.3125	2.932948	0.6515714	-0.3953778
1277227134725	1.6480621	6.66035	5.012288	-1.3096266	0.0	-22.875	-45.1875	-15.0625	2.5515962	0.6309195	-0.24257135
1277227134765	1.334794	17.733692	7.4639506	9.480032	0.0	-22.875	-46.1875	-12.625	1.9110136	0.3973761	-0.075127155
1277227134805	-0.19068487	10.923519	9.043911	4.376155	0.0	-23.125	-45.9375	-11.625	2.2689805	0.6914662	0.017454587
1277227134845	0.6537767	6.4015636	5.829509	-1.1238728	0.0	-22.875	-45.4375	-11.375	2.483766	0.73607945	-0.1017748
1277227134885	-0.27240697	15.826844	1.7570249	6.119754	0.0	-22.625	-44.9375	-12.125	1.2746948	0.11054653	0.017210005
1277227134925	-2.4108016	5.706926	0.46309182	-3.5941286	0.0	-22.125	-44.6875	-12.625	1.3079473	0.07461088	0.39969555
1277227134965	-0.6946377	9.275456	1.7978859	-0.33305454	0.0	-22.125	-45.1875	-12.125	1.4276446	0.19093665	0.074750334
1277227135005	2.1792557	11.372991	-0.14982383	1.7742186	0.0	-22.125	-46.375	-11.375	0.82474995	-0.012937546	-0.18932192
1277227135045	-1.4982382	7.8180795	-1.1168685	-1.7683372	0.0	-21.875	-46.875	-9.6875	1.1001837	-0.13939413	0.18934205
1277227135085	-1.9477097	9.275456	1.5390993	-0.2047491	0.0	-20.875	-48.125	-7.6875	1.5468438	0.16098556	0.20697814
1277227135125	1.4573772	9.656827	1.334794	0.050323486	0.0	-19.625	-49.125	-4.75	1.7564802	0.13583353	-0.14978644
1277227135165	0.040861044	7.246025	0.313268	-2.5537415	0.0	-18.375	-49.125	-1.5625	1.6020172	0.043205492	-0.005639038
1277227135205	0.23154591	9.152874	0.040861044	-0.65075684	0.0	-17.4375	-49.875	1.4375	1.6732136	0.0044628284	-0.025292223
1277227135245	2.1111538	9.193735	1.3756552	-0.27385616	0.0	-16.6875	-49.375	4.125	2.7180567	0.14481327	-0.22571659
1277227135285	2.070293	8.771504	1.879608	-0.60022163	0.0	-15.4375	-49.625	5.875	2.9232175	0.20560817	-0.23178296
1277227135325	2.3018389	9.466142	0.42223078	-0.05551815	0.0	-13.9375	-50.125	7.0625	2.9610064	0.043314237	-0.2385359
1277227135365	1.3075534	9.193735	0.53119355	-0.5052185	0.0	-11.9375	-50.375	8.0625	2.7356262	0.05713988	-0.14127478
1277227135405	1.1441092	9.80665	0.61291564	0.08551979	0.0	-10.9375	-50.875	8.3125	2.7339702	0.061999384	-0.11614163
1277227135445	2.3699405	10.882658	-0.23154591	1.3334789	0.0	-10.0	-50.875	8.8125	-3.0060744	-0.020786347	-0.21442437
1277227135475	2.1792557	13.184497	0.50395286	3.5662365	0.0	-9.75	-50.875	8.8125	3.0192292	0.037693597	-0.1638082
1277227135515	1.7978859	13.293459	0.313268	3.611493	0.0	-10.5	-51.125	8.3125	2.784573	0.02334872	-0.13443021
1277227135555	-0.7218784	10.501288	0.27240697	0.7229452	0.0	-11.6875	-51.125	7.5625	2.099453	0.02587349	0.068633914
1277227135595	-3.5957718	10.882658	0.8036005	1.6828051	0.0	-13.1875	-51.125	6.125	1.8829212	0.06999959	0.31911996
1277227135625	-2.9147544	12.789507	0.6537767	3.327074	0.0	-14.9375	-51.125	3.375	1.7867415	0.049799055	0.2240749
1277227135665	0.50395286	12.14935	2.7921712	2.6696033	0.0	-16.6875	-50.375	0.1875	2.2427456	0.22571045	-0.04145606
1277227135705	2.0294318	10.460427	2.8738933	1.2295809	0.0	-17.6875	-49.875	-3.5	2.48703	0.263442	-0.19162975
1277227135745	1.9885708	7.8861814	0.7218784	-1.6416407	0.0	-19.125	-48.875	-7.6875	1.1370772	0.0885268	-0.24700955
1277227135785	-0.0	6.238119	0.46309182	-3.5513654	0.0	-20.125	-47.375	-11.125	1.21027	0.07409988	0.0
1277227135825	-1.1168685	6.2108784	1.1849703	-3.385859	0.0	-20.625	-46.1875	-15.0625	1.3268251	0.18561608	0.17792301
1277227135865	-0.6946377	5.175732	0.92618364	-4.5030155	0.0	-21.625	-44.9375	-18.0625	1.2046697	0.17553188	0.1334133
1277227135905	-0.8036005	4.7535014	0.6537767	-4.9415736	0.0	-22.125	-44.1875	-20.0	1.110753	0.13478936	0.167471
1277227135945	-1.1441092	6.238119	3.336985	-2.6401596	0.0	-22.375	-43.9375	-19.5	1.603749	0.48435462	0.1813902
1277227135985	-0.29964766	14.628253	6.6331096	6.2580223	0.0	-22.375	-44.9375	-17.3125	1.681706	0.4256363	0.020481307
1277227136025	2.5333846	16.04477	7.3549876	8.02446	0.0	-21.625	-45.4375	-15.8125	1.9385389	0.42517546	-0.15660188
1277227136065	3.486809	5.243834	7.1234417	-0.2988081	0.0	-21.875	-45.6875	-15.0625	-2.89045	0.84687984	-0.58680284
1277227136105	3.718355	16.780268	-1.6889231	7.46344	0.0	-22.125	-46.1875	-16.3125	0.50273025	-0.09795125	-0.21806726
1277227136145	-3.486809	10.119919	2.7649305	1.2484589	0.0	-23.375	-45.1875	-16.8125	1.369918	0.25278798	0.33181056
1277227136185	-1.8387469	6.510526	2.2609777	-2.6736312	0.0	-24.875	-44.9375	-16.3125	1.4631553	0.32253668	0.27525762
1277227136225	-0.9125633	10.337844	0.42223078	0.57997894	0.0	-24.625	-45.1875	-15.3125	1.1268015	0.040662583	0.08804583
1277227136265	-0.46309182	11.223166	-2.9556155	1.8084078	0.0	-24.125	-45.1875	-14.125	0.8064646	-0.25729355	0.041238744
1277227136305	-0.7218784	9.507003	1.6889231	-0.12384701	0.0	-22.875	-46.375	-12.875	1.3862236	0.1753218	0.0757858
1277227136345	1.4573772	7.7363577	0.8036005	-1.8933101	0.0	-21.125	-47.375	-11.125	1.1106397	0.10172546	-0.18619819
1277227136375	-0.10896278	6.851035	-0.19068487	-2.9520955	0.0	-20.125	-48.125	-7.9375	1.1533446	-0.0278223	0.01590323
1277227136415	-1.7978859	9.193735	0.84446156	-0.4007864	0.0	-19.625	-49.125	-5.0	1.5363189	0.08990138	0.19311842
1277227136455	1.7297841	8.471856	1.3075534	-1.061698	0.0	-18.875	-49.125	-2.25	2.1393285	0.15008374	-0.2014116
1277227136495	3.336985	8.730643	1.334794	-0.36518478	0.0	-17.875	-49.875	-0.3125	-2.9882376	0.14185098	-0.36508134
1277227136535	3.2961242	9.656827	0.5720546	0.41323185	0.0	-16.4375	-50.625	0.1875	-2.8950045	0.05600395	-0.32892644
1277227136575	1.5390993	9.343558	0.53119355	-0.32229042	0.0	-15.1875	-50.875	1.4375	2.1491706	0.05603664	-0.16325699
1277227136615	1.9477097	11.114203	0.3405087	1.4820623	0.0	-14.1875	-51.875	1.1875	2.0798874	0.030168219	-0.17348348
1277227136655	3.0237172	12.9529505	0.38136974	3.5000114	0.0	-13.6875	-51.875	0.9375	2.5858324	0.028663985	-0.22933166
1277227136695	-0.3405087	13.184497	0.88532263	3.4119244	0.0	-14.4375	-51.625	-0.0625	1.7813324	0.067025825	0.025820706
1277227136735	-5.053149	11.958665	0.50395286	3.1855764	0.0	-15.4375	-51.375	-1.8125	1.5647005	0.038798533	0.39979476
1277227136775	-4.7126403	13.375181	-0.46309182	4.382039	0.0	-17.4375	-50.375	-4.0	1.4106864	-0.032643892	0.33875987
1277227136815	2.3018389	13.211738	3.0237172	3.9407625	0.0	-20.125	-49.375	-6.6875	1.9808749	0.22176126	-0.17249535
1277227136855	2.8738933	11.454713	3.636633	2.5503235	0.0	-21.875	-48.625	-9.4375	2.171292	0.29872093	-0.24581781
1277227136905	0.7218784	6.851035	3.214402	-2.2046657	0.0	-23.375	-47.625	-12.375	2.0655067	0.43657392	-0.10498042
1277227136945	-0.0	4.4810944	-0.23154591	-5.3195777	0.0	-23.625	-45.9375	-15.8125	0.9153969	-0.051625818	0.0
1277227136975	-0.61291564	4.399372	0.27240697	-5.356443	0.0	-22.875	-44.4375	-20.0	1.0255673	0.06125049	0.13842787
1277227137016	-0.95342433	4.0180025	-0.0	-5.6770787	0.0	-22.125	-43.1875	-22.75	0.9452851	-0.0	0.23297924
1277227137055	-0.9942854	4.099725	1.3756552	-5.3694468	0.0	-20.875	-41.9375	-24.1875	1.195527	0.31522197	0.23793101
1277227137095	-0.9942854	7.8861814	5.5162406	-0.13145638	0.0	-20.125	-42.6875	-23.4375	1.7065423	0.6066795	0.1254177
1277227137135	-0.38136974	17.774553	7.3141265	9.4177265	0.0	-20.125	-43.9375	-20.75	1.4460552	0.39029476	0.021452649
1277227137175	2.4516625	13.184497	7.3549876	5.488364	0.0	-20.375	-44.4375	-18.75	2.0613663	0.50165224	-0.18385056
1277227137215	4.372132	7.8180795	5.597963	0.7562609	0.0	-21.375	-45.1875	-17.8125	-2.84995	0.55855817	-0.5099046
1277227137255	-0.42223078	17.011814	-0.23154591	7.211979	0.0	-22.375	-44.9375	-17.5625	0.91241497	-0.013605858	0.024814762
1277227137295	-2.982856	6.0882955	0.313268	-3.0196843	0.0	-23.875	-43.9375	-18.0625	1.1818937	0.046173707	0.45556152
1277227137335	-0.42223078	7.3141265	0.61291564	-2.4547534	0.0	-25.0625	-43.6875	-18.3125	1.0795454	0.08346524	0.057664126
1277227137365	-0.19068487	12.108489	-0.46309182	2.312191	0.0	-24.625	-43.9375	-17.8125	0.915317	-0.038221855	0.01574673
1277227137405	-1.6889231	11.645397	-1.3756552	2.04072	0.0	-23.375	-44.4375	-17.5625	0.9267029	-0.11637734	0.14402506
1277227137445	-1.1168685	9.043911	0.6537767	-0.67061424	0.0	-21.625	-45.6875	-16.0625	1.123977	0.07162143	0.12287187
1277227137475	0.95342433	7.7772183	0.38136974	-1.9619331	0.0	-20.125	-46.875	-13.625	0.904199	0.04863402	-0.12198328
1277227137515	0.46309182	7.0553403	-0.53119355	-2.7162023	0.0	-19.875	-47.875	-10.875	0.85498345	-0.07498704	-0.06554305
1277227137555	-0.29964766	9.00305	0.88532263	-0.75521374	0.0	-20.125	-48.875	-7.4375	1.4477082	0.09796682	0.033270624
1277227137595	2.5333846	8.730643	1.4573772	-0.59979916	0.0	-19.875	-49.625	-4.5	2.2183995	0.15896131	-0.2824157
1277227137635	4.2904096	8.730643	1.3075534	0.008717537	0.0	-19.375	-50.125	-2.75	-2.321934	0.13361211	-0.4567598
1277227137665	4.4810944	8.662541	1.0351465	0.0010690689	0.0	-18.375	-50.875	-1.5625	-2.097964	0.105740994	-0.47738814
1277227137695	4.0588636	8.539958	1.0760075	-0.29018784	0.0	-17.6875	-51.625	-1.0625	-2.257857	0.11331033	-0.44367602
1277227137725	4.3312707	8.853226	1.2666923	0.13035202	0.0	-17.1875	-51.625	-1.0625	-2.2473638	0.12782004	-0.45499521
1277227137765	4.099725	10.310603	0.38136974	1.29568	0.0	-16.6875	-51.625	-1.5625	-1.6541426	0.03435718	-0.3784549
1277227137805	0.50395286	12.980191	1.1168685	3.231246	0.0	-16.6875	-51.125	-2.75	1.6854465	0.08576836	-0.038805276
1277227137835	-1.4982382	12.067628	0.23154591	2.355832	0.0	-16.6875	-50.875	-4.0	1.4368055	0.019038867	0.123521425
1277227137875	-3.2961242	11.304889	1.0351465	2.014368	0.0	-17.875	-50.375	-6.25	1.4932446	0.08768061	0.28370157
1277227137915	-2.9147544	16.08563	1.6480621	6.6237907	0.0	-19.625	-49.375	-7.9375	1.4513133	0.10047437	0.17925732
1277227137955	2.3018389	13.797412	3.759216	4.677781	0.0	-21.625	-48.125	-9.6875	1.852965	0.2625406	-0.16530876
1277227137995	3.2961242	9.425281	2.4516625	0.47493553	0.0	-23.875	-46.375	-11.875	1.6790024	0.24077135	-0.33641732
1277227138035	1.6889231	6.6331096	1.56634	-2.7849674	0.0	-24.875	-45.1875	-14.5625	1.339009	0.22496462	-0.24932225
1277227138075	0.10896278	5.407278	1.5390993	-4.1835413	0.0	-25.3125	-43.6875	-17.8125	1.3674248	0.2772479	-0.020148406
1277227138115	-0.61291564	4.7535014	1.334794	-4.8314	0.0	-24.875	-42.9375	-21.25	1.2536625	0.2716142	0.12823232
1277227138165	-0.5720546	3.3778462	0.42223078	-6.354785	0.0	-23.875	-41.9375	-23.4375	1.0216138	0.122626714	0.16776305
1277227138205	-0.38136974	4.862464	2.6832085	-4.239909	0.0	-22.625	-41.9375	-23.4375	1.5230061	0.50294405	0.07827114
1277227138245	-0.0	14.601013	5.8976107	5.9404573	0.0	-21.125	-43.1875	-22.75	1.3419925	0.38387933	0.0
1277227138285	-0.14982383	16.88923	8.008764	8.885832	0.0	-20.875	-43.9375	-21.25	1.5493592	0.44277492	0.008870736
1277227138325	2.0294318	10.460427	6.4424243	2.6450148	0.0	-21.375	-44.6875	-20.75	2.0851088	0.5438036	-0.19162975
1277227138355	4.399372	16.821129	-3.636633	7.9565125	0.0	-22.375	-44.1875	-21.0	0.33090314	-0.20618676	-0.25580856
1277227138385	-1.2666923	5.7886477	-0.29964766	-3.8734603	0.0	-23.875	-43.1875	-21.25	0.95376426	-0.05052513	0.21542786
1277227138425	-4.0180025	0.61291564	0.27240697	-5.7330503	0.0	-25.3125	-42.6875	-21.25	1.1169829	0.06692125	1.4194208
1277227138465	-1.0760075	11.372991	2.6014864	1.9095964	0.0	-24.875	-43.1875	-20.75	1.2001171	0.22390716	0.09432999
1277227138505	4.3312707	16.04477	-0.9125633	6.837488	0.0	-23.375	-44.4375	-19.75	0.45585665	-0.054855417	-0.26366436
1277227138545	-0.9942854	6.782933	1.6889231	-2.7462502	0.0	-21.875	-45.6875	-18.3125	1.3040048	0.24155284	0.14554976
1277227138585	-0.040861044	7.164303	0.14982383	-2.6406646	0.0	-19.625	-47.125	-16.3125	0.91436327	0.020909162	0.0057033603
1277227138625	0.7218784	7.9679036	-0.10896278	-1.8053713	0.0	-18.875	-48.125	-13.625	0.7908274	-0.013618591	-0.09035162
1277227138665	-1.1849703	7.8589406	0.7627395	-1.822361	0.0	-18.625	-48.875	-10.875	1.3240705	0.09567594	0.1496526
1277227138705	0.8036005	7.8861814	0.53119355	-1.8618531	0.0	-18.125	-49.625	-8.4375	1.203987	0.066910475	-0.10154931
1277227138745	2.5606253	8.812365	1.1168685	-0.5620861	0.0	-16.9375	-50.375	-6.25	1.6660497	0.12110939	-0.28278485
1277227138785	3.486809	9.425281	1.2258313	0.31740093	0.0	-15.4375	-50.625	-4.75	-2.0698793	0.12137892	-0.35432905
1277227138825	4.4810944	9.656827	0.19068487	0.8409262	0.0	-13.9375	-51.375	-3.75	-1.2676289	0.017909715	-0.43446296
1277227138856	4.399372	9.956474	1.1441092	1.1384325	0.0	-12.4375	-51.875	-3.25	-1.8015766	0.10472312	-0.41606447
1277227138885	3.2961242	11.223166	1.7297841	2.0177336	0.0	-12.1875	-52.125	-3.5	-2.539374	0.14681646	-0.28565717
1277227138925	-0.27240697	12.408136	1.3075534	2.6731634	0.0	-12.4375	-52.125	-4.75	1.6228566	0.10496611	0.021950372
1277227138965	-6.1700177	13.443283	0.50395286	4.993517	0.0	-14.1875	-51.375	-6.9375	1.4106299	0.034057066	0.43028548
1277227139005	-3.8681788	15.704261	1.4982382	6.4362354	0.0	-16.1875	-50.375	-9.9375	1.3669202	0.09237096	0.24150647
1277227139045	1.3075534	14.859799	3.718355	5.567013	0.0	-18.875	-48.375	-12.375	1.5740769	0.24428773	-0.08776661
1277227139085	3.2961242	10.56939	2.2201166	1.485177	0.0	-21.375	-47.125	-14.8125	0.9638905	0.19790198	-0.30229774
1277227139125	1.56634	7.5456724	2.2609777	-1.7752981	0.0	-22.875	-45.4375	-17.8125	1.328101	0.2853767	-0.20467447
1277227139165	-0.38136974	6.0474343	1.4982382	-3.5647259	0.0	-24.375	-43.9375	-20.5	1.2255521	0.24239495	0.06297966
1277227139205	-0.6946377	3.5276701	1.2258313	-6.0080132	0.0	-24.375	-42.9375	-23.9375	1.2533985	0.3285838	0.1944238
1277227139245	0.08172209	1.6480621	0.14982383	-8.1497755	0.0	-23.375	-41.6875	-26.4375	0.75847787	0.09054924	-0.049546193
1277227139285	0.46309182	2.2201166	1.1441092	-7.266501	0.0	-21.875	-41.6875	-27.125	1.2825762	0.46722478	-0.20564036
1277227139325	-0.08172209	10.651112	6.1291566	2.4823456	0.0	-20.125	-42.4375	-26.4375	1.4817206	0.5221579	0.007672484
1277227139365	0.313268	18.891422	8.894087	11.076088	0.0	-19.125	-43.4375	-25.4375	1.3370149	0.43996322	-0.016581032
1277227139395	1.56634	4.2495484	7.3549876	-1.1690626	0.0	-18.875	-43.9375	-25.4375	3.049822	1.0188574	-0.3531389
1277227139425	0.9942854	4.0588636	5.434519	-2.9512167	0.0	-19.125	-43.4375	-25.4375	2.7763033	0.9152773	-0.24023563
1277227139455	-2.1792557	17.815414	-0.10896278	8.141888	0.0	-19.625	-42.1875	-26.6875	0.7403164	-0.0060708816	0.12171947
1277227139485	-3.9771416	12.639683	-1.9885708	3.5923662	0.0	-19.625	-41.1875	-28.125	0.7589726	-0.14896199	0.3048471
1277227139525	-2.2201166	4.7126403	-2.9556155	-3.817196	0.0	-19.875	-40.9375	-27.625	0.74875623	-0.5160748	0.44026005
1277227139565	-0.08172209	11.604536	-0.61291564	1.8143482	0.0	-19.375	-41.4375	-27.375	0.58775765	-0.052766565	0.0070421374
1277227139605	-3.718355	11.836082	0.42223078	2.6069431	0.0	-19.375	-42.6875	-24.9375	0.9216585	0.034020144	0.30439118
1277227139645	-0.6946377	9.534244	0.3405087	-0.24107265	0.0	-19.125	-43.9375	-20.75	0.8585497	0.035604816	0.07272864
1277227139685	3.1054392	5.284695	-0.9942854	-3.5969515	0.0	-19.625	-45.6875	-17.0625	-0.24655421	-0.16081034	-0.53127337
1277227139725	2.9556155	7.9270425	-0.38136974	-1.3379374	0.0	-19.875	-47.125	-12.875	0.14144373	-0.04504802	-0.35688636
1277227139765	2.1792557	8.921328	2.1792557	-0.36798573	0.0	-19.625	-48.375	-9.6875	1.8891224	0.2329882	-0.23958303
1277227139805	2.7240696	8.308413	2.7921712	-0.6280613	0.0	-18.875	-49.625	-7.4375	2.874615	0.3091036	-0.3168245
1277227139845	3.8681788	8.158588	0.08172209	-0.7771406	0.0	-17.1875	-50.125	-5.75	-0.8451048	0.00905068	-0.442733
1277227139885	2.2609777	8.962189	1.1441092	-0.49312115	0.0	-15.1875	-50.875	-4.0	2.4110694	0.123154886	-0.24712305
1277227139925	3.2961242	10.378705	0.38136974	1.0895596	0.0	-13.1875	-51.375	-3.5	-1.066813	0.03500737	-0.307511
1277227139965	2.1792557	12.14935	0.50395286	2.5468855	0.0	-12.4375	-51.875	-3.25	1.2353982	0.040805545	-0.17748478
1277227140005	1.56634	13.906375	1.3075534	4.2486115	0.0	-11.4375	-51.875	-3.25	1.8640574	0.093164176	-0.11216195
1277227140045	0.61291564	11.372991	-0.7627395	1.6083555	0.0	-12.1875	-51.875	-4.5	0.8648503	-0.06686884	-0.05384013
1277227140075	-4.0588636	10.269742	1.56634	1.3466177	0.0	-13.9375	-51.875	-6.25	1.566667	0.14090353	0.37638363
1277227140121	-5.325556	14.1787815	0.6946377	5.3552074	0.0	-15.9375	-50.625	-8.4375	1.3742814	0.045830853	0.35929692
1277227140185	1.56634	13.988097	4.630918	5.011099	0.0	-18.875	-49.625	-11.375	1.9493322	0.3178501	-0.11151211
1277227140215	3.173541	9.152874	2.0294318	0.09107971	0.0	-20.875	-47.625	-15.8125	0.7045541	0.2065047	-0.3337553
1277227140255	1.4573772	5.434519	-0.040861044	-4.1799626	0.0	-21.375	-44.9375	-20.25	0.41205397	-0.007262071	-0.2620058
1277227140296	-1.0760075	4.630918	0.27240697	-5.044571	0.0	-21.125	-42.9375	-24.9375	0.92609733	0.05723461	0.22830197
1277227140335	-1.3075534	4.3312707	0.7218784	-5.225088	0.0	-20.125	-40.6875	-29.125	0.92171663	0.15822096	0.29318687
1277227140375	-0.95342433	3.405087	0.10896278	-6.2689238	0.0	-18.125	-39.1875	-31.3125	0.74655294	0.030805102	0.2730087
1277227140415	-0.84446156	2.8330324	1.7570249	-6.3677077	0.0	-17.1875	-39.1875	-31.8125	1.2027601	0.5362548	0.28969157
1277227140455	-0.84446156	6.0201936	6.742072	-0.72857857	0.0	-16.6875	-39.9375	-30.875	1.8769006	0.83705866	0.1393622
1277227140485	-0.53119355	16.126492	9.152874	8.743847	0.0	-15.9375	-40.9375	-28.875	1.279145	0.515998	0.032927282
1277227140525	-2.6014864	17.924377	7.8861814	9.947916	0.0	-16.4375	-42.4375	-27.375	1.1776009	0.4106529	0.14413038
1277227140565	0.19068487	17.011814	5.325556	8.020288	0.0	-16.4375	-42.6875	-27.625	0.8665693	0.30336833	-0.011208498
1277227140605	-1.334794	9.765789	0.38136974	0.05731201	0.0	-16.6875	-41.4375	-28.625	0.6850574	0.038672574	0.1358389
1277227140645	-3.8273177	0.6946377	-1.3075534	-5.702923	0.0	-17.875	-40.6875	-29.875	1.0459344	-0.32427937	1.391256
1277227140685	0.19068487	10.038197	-2.7513103	0.60351086	0.0	-18.875	-39.9375	-30.125	0.4280212	-0.26746854	-0.018993644
1277227140735	1.920469	13.6748295	1.2258313	4.056676	0.0	-18.875	-40.4375	-28.125	0.49440393	0.08853822	-0.13952574
1277227140775	-2.3426998	7.6954966	2.7921712	-1.2916555	0.0	-18.375	-42.1875	-25.1875	1.179668	0.3340928	0.29551128
1277227140815	0.61291564	7.205164	0.7627395	-2.535349	0.0	-17.4375	-44.4375	-22.25	0.6657434	0.105090566	-0.08486187
1277227140855	1.1441092	6.238119	-1.1168685	-3.36689	0.0	-16.9375	-46.375	-18.5625	0.30094168	-0.17431468	-0.1813902
1277227140895	0.7218784	8.853226	0.7627395	-0.89135456	0.0	-17.6875	-48.125	-15.0625	0.90472573	0.08565874	-0.08135847
1277227140935	1.5390993	9.507003	1.9477097	0.019106865	0.0	-17.6875	-49.875	-12.625	1.357561	0.19954655	-0.16049863
1277227140975	2.070293	9.507003	1.334794	0.01429081	0.0	-16.9375	-50.875	-9.6875	1.181028	0.13633502	-0.21441753
1277227141015	3.214402	8.921328	0.7218784	-0.29646683	0.0	-15.9375	-51.375	-8.1875	-0.5349718	0.07597892	-0.34582585
1277227141055	1.6889231	8.049625	0.53119355	-1.5646181	0.0	-14.1875	-51.875	-7.4375	0.68439764	0.06449404	-0.20681393
1277227141095	3.486809	9.575105	0.6537767	0.40451527	0.0	-13.4375	-51.875	-6.9375	-0.9704449	0.064069495	-0.34922776
1277227141135	2.3018389	11.604536	0.46309182	2.0330353	0.0	-12.6875	-52.125	-7.4375	0.4075275	0.039123505	-0.19581509
1277227141175	2.8738933	14.015338	0.95342433	4.5320377	0.0	-12.1875	-52.625	-7.4375	0.34304827	0.06654224	-0.20224987
1277227141215	1.2666923	12.217452	-0.88532263	2.5081549	0.0	-12.6875	-52.625	-8.1875	0.53911966	-0.07195299	-0.10330981
1277227141255	-4.671779	11.75436	1.4982382	2.9305086	0.0	-13.6875	-51.875	-9.4375	1.4368405	0.117900304	0.3783068
1277227141295	-4.140586	15.472715	0.3405087	6.2141266	0.0	-15.4375	-50.625	-11.625	1.2067804	0.021255793	0.26147884
1277227141335	1.1849703	13.947236	3.214402	4.555172	0.0	-17.4375	-49.125	-15.0625	1.3193855	0.2257278	-0.084757395
1277227141365	3.0645783	11.032481	2.9147544	2.0087242	0.0	-18.875	-47.625	-18.5625	0.78699607	0.24926491	-0.27094686
1277227141395	2.7649305	8.240311	0.92618364	-1.0656328	0.0	-18.875	-45.9375	-22.0	0.1948726	0.106157616	-0.3237327
1277227141425	0.6537767	5.7886477	-0.3405087	-3.9712567	0.0	-19.375	-44.1875	-25.4375	0.47079888	-0.058385476	-0.11246461
1277227141465	-1.1849703	5.5162406	0.6537767	-4.126818	0.0	-18.375	-42.1875	-28.125	0.8485512	0.11536064	0.21159916
1277227141505	-1.3756552	4.7535014	0.61291564	-4.820282	0.0	-16.9375	-40.1875	-31.125	0.7986717	0.12322989	0.2817023
1277227141545	-1.9885708	3.9090397	0.5720546	-5.3837266	0.0	-16.1875	-39.1875	-33.0625	0.83387625	0.12970193	0.47059196
1277227141585	-1.334794	3.718355	1.607201	-5.5415673	0.0	-14.4375	-39.0	-33.8125	0.9454194	0.38636905	0.34464732
1277227141625	-0.61291564	6.973618	4.140586	-1.673295	0.0	-13.6875	-39.4375	-33.3125	1.0731649	0.5341237	0.087665364
1277227141665	1.2258313	18.0061	8.008764	9.938288	0.0	-13.4375	-40.4375	-31.3125	0.73103386	0.41764718	-0.067973785
1277227141705	3.568531	11.75436	8.390134	5.069295	0.0	-13.1875	-41.4375	-31.125	0.4582577	0.59922993	-0.29474905
1277227141745	4.6036777	4.9850473	4.140586	-1.8574991	0.0	-13.4375	-41.4375	-30.375	-1.2868468	0.54788625	-0.7456464
1277227141785	-1.0760075	18.38747	-0.9942854	8.639093	0.0	-14.1875	-40.9375	-30.625	0.46816853	-0.05392938	0.05845186
1277227141825	-5.134871	5.597963	1.1849703	-2.1184616	0.0	-15.4375	-40.6875	-31.3125	0.94792837	0.15474552	0.7422777
1277227141865	-2.4108016	7.1234417	1.2258313	-2.1870666	0.0	-16.4375	-41.1875	-30.125	0.86941105	0.16158123	0.32633245
1277227141895	-0.14982383	12.53072	-0.88532263	2.756199	0.0	-16.6875	-42.4375	-29.375	0.48944023	-0.07052994	0.011955952
1277227141935	-0.95342433	10.95076	-1.3075534	1.263032	0.0	-15.6875	-43.9375	-27.625	0.5398442	-0.11839665	0.08684567
1277227142005	2.2609777	8.19945	0.8036005	-1.2633038	0.0	-14.6875	-44.9375	-25.4375	0.105602	0.09420082	-0.26906103
1277227142045	1.1441092	6.4424243	-0.6946377	-3.226655	0.0	-14.1875	-45.9375	-22.25	0.21517526	-0.10576519	-0.17575747
1277227142085	-0.8036005	8.730643	0.7627395	-1.0059872	0.0	-14.6875	-47.125	-18.75	0.9099478	0.086777285	0.09178505
1277227142125	1.607201	8.580819	1.334794	-0.97515965	0.0	-15.1875	-48.125	-15.3125	0.6760556	0.15172172	-0.18515627
1277227142165	2.2201166	8.390134	1.607201	-0.9801922	0.0	-14.6875	-49.625	-12.375	0.5008232	0.18311055	-0.25868165
1277227142205	2.6832085	9.302697	0.6537767	-0.10267162	0.0	-13.4375	-50.875	-10.625	-0.16680314	0.0674231	-0.28081173
1277227142245	3.1054392	9.302697	0.7218784	0.02722168	0.0	-11.4375	-51.625	-9.1875	-0.803506	0.07347343	-0.32218975
1277227142285	3.1463003	10.760075	0.8036005	1.4327536	0.0	-10.0	-52.375	-8.6875	-0.80853397	0.071559556	-0.2844745
1277227142325	2.2609777	12.367276	0.19068487	2.7670488	0.0	-9.0	-52.625	-8.6875	-0.07738176	0.015165957	-0.18082249
1277227142355	1.1168685	14.015338	-0.08172209	4.253356	0.0	-9.25	-52.625	-9.1875	0.4879526	-0.005812412	-0.07952097
1277227142385	-0.46309182	11.604536	-0.5720546	1.8212013	0.0	-10.25	-52.125	-9.9375	0.7794513	-0.0492168	0.03988494
1277227142425	-5.134871	11.917805	1.5390993	3.261241	0.0	-11.4375	-51.875	-11.375	1.3730378	0.11805118	0.4068212
1277227142465	-6.2789803	15.091345	-0.53119355	6.5474453	0.0	-13.6875	-50.625	-13.375	1.1407781	-0.03248648	0.39427835
1277227142505	-0.6946377	14.246883	2.7921712	4.7278757	0.0	-15.6875	-48.875	-15.5625	1.2477999	0.19330779	0.04871859
1277227142545	3.0237172	11.645397	3.718355	2.786376	0.0	-17.1875	-47.375	-18.3125	1.0551075	0.29973912	-0.25403938
1277227142585	2.7240696	7.7363577	0.8036005	-1.5654392	0.0	-18.625	-45.4375	-22.0	0.14373639	0.09766519	-0.33855566
1277227142625	0.23154591	4.5628166	0.42223078	-5.218493	0.0	-18.375	-43.4375	-25.6875	0.64423054	0.09215662	-0.050702773
1277227142665	-0.8036005	4.8216033	0.84446156	-4.8461313	0.0	-17.1875	-40.9375	-29.375	0.8098484	0.17106971	0.16514866
1277227142706	-0.8036005	3.6774938	0.10896278	-6.0408025	0.0	-15.6875	-39.1875	-32.8125	0.6404884	0.028938502	0.21513678
1277227142745	-0.42223078	2.3426998	0.08172209	-7.4248023	0.0	-13.9375	-38.0	-34.5625	0.55029315	0.03431711	0.17831819
1277227142785	0.23154591	3.0237172	3.5276701	-5.1546683	0.0	-12.6875	-38.25	-34.8125	2.191841	0.86072516	-0.07642742
1277227142825	-0.46309182	13.443283	8.894087	6.3191395	0.0	-12.1875	-39.6875	-33.5625	1.132398	0.5842144	0.034434203
1277227142865	-1.6480621	18.768839	7.7363577	10.560888	0.0	-12.4375	-40.9375	-32.3125	0.822954	0.38962078	0.08758378
1277227142895	1.3075534	4.440233	7.9270425	-0.62714195	0.0	-12.6875	-41.6875	-31.125	3.1236007	1.0422847	-0.28638357
1277227142935	2.3426998	12.762266	4.5219555	3.934229	0.0	-13.6875	-41.9375	-31.125	0.37413192	0.3353374	-0.18154347
1277227142975	-4.2086873	13.375181	-1.2666923	4.2721643	0.0	-14.6875	-41.1875	-32.3125	0.6413806	-0.09009335	0.30485508
1277227143015	-3.3642259	-0.10896278	-1.9885708	-5.8971357	0.0	-15.4375	-39.9375	-32.5625	1.1107824	-0.533615	1.6031736
1277227143055	2.1111538	10.882658	-0.9125633	1.3163881	0.0	-16.6875	-40.1875	-32.5625	0.23819052	-0.082134955	-0.19161248
1277227143095	2.1111538	16.208214	0.95342433	6.5662613	0.0	-16.6875	-40.6875	-31.125	0.37608522	0.058264773	-0.1295229
1277227143135	-2.8330324	7.8180795	1.6480621	-1.3293543	0.0	-15.9375	-42.4375	-28.625	0.9427705	0.19565485	0.3476515
1277227143175	1.7297841	8.076866	1.3075534	-1.443779	0.0	-15.1875	-44.6875	-26.1875	0.28806874	0.15699635	-0.21097817
1277227143215	1.7570249	6.238119	-0.19068487	-3.323007	0.0	-14.9375	-45.9375	-22.9375	0.07885636	-0.029414384	-0.2745468
1277227143275	1.2666923	9.112013	1.9885708	-0.3945465	0.0	-15.1875	-46.875	-20.0	0.74579465	0.21288233	-0.13812822
1277227143315	2.3699405	8.894087	2.0294318	-0.3811531	0.0	-14.9375	-48.125	-17.3125	0.32483357	0.2170123	-0.26041177
1277227143345	2.5606253	9.193735	0.88532263	-0.22200775	0.0	-14.4375	-48.875	-14.8125	0.07896648	0.092500724	-0.2716344
1277227143375	2.2201166	9.425281	0.46309182	-0.11235905	0.0	-12.6875	-49.875	-13.375	0.08368622	0.047787726	-0.23133229
1277227143415	1.4573772	9.00305	0.50395286	-0.672493	0.0	-10.6875	-50.625	-12.375	0.25331077	0.055200372	-0.16048384
1277227143455	3.0645783	9.00305	0.14982383	-0.29513073	0.0	-9.75	-50.875	-11.875	-0.5745522	0.015752481	-0.32809106
1277227143485	3.255263	10.882658	-0.29964766	1.5563936	0.0	-8.5	-51.625	-11.875	-0.46554336	-0.026373425	-0.29065284
1277227143515	1.4982382	12.912089	-0.23154591	3.1941338	0.0	-7.5	-51.625	-11.625	0.11891605	-0.017811092	-0.11551717
1277227143555	0.7218784	13.633968	-1.1168685	3.8920202	0.0	-7.5	-51.375	-11.875	0.28905317	-0.08162176	-0.052897654
1277227143595	-1.4165162	11.75436	0.23154591	2.035018	0.0	-8.5	-50.875	-12.625	0.894623	0.019554734	0.119931504
1277227143635	-5.202973	12.912089	1.1441092	4.1612406	0.0	-10.5	-49.875	-13.875	1.2207603	0.08200183	0.38304996
1277227143675	-3.3642259	14.09706	1.2258313	4.7380323	0.0	-13.1875	-49.125	-16.3125	1.0950084	0.08438048	0.23426558
1277227143715	2.1792557	12.571581	3.8681788	3.5258894	0.0	-15.1875	-48.375	-19.25	1.0504221	0.29436338	-0.1716421
1277227143755	2.9556155	9.997335	1.9885708	0.8063984	0.0	-16.1875	-46.875	-22.5	0.17252347	0.1884844	-0.28745234
1277227143795	1.1441092	6.6331096	-0.3405087	-3.0669856	0.0	-16.1875	-45.1875	-25.6875	0.28681034	-0.05054461	-0.17080398
1277227143835	-0.38136974	5.5571017	0.27240697	-4.2298207	0.0	-14.6875	-42.9375	-29.375	0.57250226	0.048865654	0.06852002
1277227143875	-1.0351465	5.829509	1.2666923	-3.751965	0.0	-13.4375	-40.9375	-32.3125	0.7113233	0.2107656	0.1757383
1277227143915	-1.0351465	4.7126403	0.6537767	-4.937571	0.0	-11.9375	-39.6875	-34.8125	0.5976689	0.13467789	0.21621948
1277227143955	-0.9942854	4.140586	1.0351465	-5.424347	0.0	-10.9375	-39.0	-36.25	0.6336404	0.23846424	0.23566939
1277227143995	-0.8036005	5.2165933	4.0588636	-3.1483479	0.0	-10.9375	-39.6875	-35.75	1.258371	0.65554875	0.15284552
1277227144035	0.14982383	14.09706	7.1234417	5.988697	0.0	-10.9375	-41.1875	-34.0625	0.72815573	0.467867	-0.010627619
1277227144065	2.4108016	18.115063	7.668256	10.011765	0.0	-11.1875	-42.4375	-32.3125	0.40111706	0.39729536	-0.13230528
1277227144105	2.1792557	8.921328	9.043911	3.082553	0.0	-10.9375	-42.9375	-31.5625	3.090923	0.7777326	-0.23958305
1277227144145	3.990762	16.739407	1.6889231	7.4845715	0.0	-11.6875	-42.4375	-31.5625	0.056270484	0.09783115	-0.2340365
1277227144185	-3.718355	10.882658	-0.08172209	1.694006	0.0	-12.9375	-41.1875	-32.0625	0.66928977	-0.007105923	0.32924104
1277227144225	-4.2904096	1.9477097	-1.2258313	-4.93799	0.0	-13.9375	-40.4375	-32.0625	0.92570096	-0.25451908	1.1446474
1277227144265	-2.1383946	10.337844	0.10896278	0.7506046	0.0	-14.4375	-40.9375	-30.625	0.63820565	0.010321312	0.20397441
1277227144305	0.53119355	15.826844	-1.3756552	6.088745	0.0	-13.4375	-42.1875	-28.875	0.35455778	-0.08665266	-0.03355023
1277227144345	-0.9125633	8.962189	1.334794	-0.69977	0.0	-12.4375	-43.9375	-26.4375	0.70110536	0.14709978	0.10147398
1277227144375	1.4573772	7.668256	0.08172209	-2.0007052	0.0	-12.1875	-45.1875	-24.1875	0.14812766	0.010469402	-0.18781336
1277227144415	1.2666923	6.3198414	-1.4165162	-3.2072997	0.0	-12.6875	-46.625	-22.0	0.1025825	-0.21632811	-0.19780996
1277227144455	-0.10896278	8.430995	0.7218784	-1.3441057	0.0	-13.9375	-47.625	-18.75	0.7825536	0.08540656	0.012923352
1277227144495	0.8036005	8.689782	1.2666923	-0.9883394	0.0	-13.6875	-48.625	-16.5625	0.7798065	0.14414205	-0.09221421
1277227144565	2.9147544	9.384419	0.7218784	0.04648304	0.0	-12.9375	-50.125	-14.125	-0.23930173	0.07332954	-0.30114847
1277227144605	3.445948	9.043911	1.2258313	-0.051161766	0.0	-11.6875	-51.125	-12.625	-0.8816911	0.12598859	-0.36404157
1277227144645	3.1054392	9.80665	0.14982383	0.48104095	0.0	-9.75	-51.625	-11.875	-0.515009	0.014563921	-0.3066763
1277227144685	2.2609777	11.645397	0.5720546	2.0699883	0.0	-8.75	-51.875	-11.625	-0.14195143	0.04818502	-0.19176626
1277227144725	1.920469	14.2877445	0.61291564	4.622609	0.0	-7.5	-51.875	-11.625	0.055606976	0.04249006	-0.1336129
1277227144765	-1.334794	12.721405	-0.19068487	2.9860115	0.0	-7.75	-51.375	-11.875	0.8027384	-0.014906353	0.10454252
1277227144805	-5.5162406	11.917805	1.2666923	3.386814	0.0	-9.0	-51.375	-13.375	1.2708573	0.096157186	0.43349433
1277227144845	-5.053149	14.056199	-0.53119355	5.139694	0.0	-10.9375	-50.125	-15.5625	1.0104467	-0.035547517	0.34510943
1277227144885	0.14982383	13.402422	2.6014864	3.8467407	0.0	-13.4375	-48.625	-18.5625	0.9650689	0.19170992	-0.011178397
1277227144925	1.920469	11.182305	3.5276701	2.0751257	0.0	-15.4375	-46.875	-22.0	0.8407589	0.30144206	-0.17008252
1277227144965	1.4573772	7.3141265	1.1441092	-2.2614942	0.0	-16.4375	-44.6875	-25.1875	0.39414522	0.15222214	-0.19667923
1277227145005	-0.14982383	5.243834	0.84446156	-4.493143	0.0	-16.4375	-42.6875	-29.125	0.67506015	0.1596041	0.02856366
1277227145045	-0.8036005	4.440233	0.84446156	-5.2159467	0.0	-15.6875	-40.4375	-32.3125	0.7367482	0.18500389	0.17904356
1277227145075	-0.6537767	3.173541	0.27240697	-6.5550365	0.0	-14.4375	-39.0	-34.5625	0.61008966	0.083874226	0.2031663
1277227145115	0.14982383	2.8330324	1.0760075	-6.77246	0.0	-13.1875	-37.75	-36.0	0.50860286	0.3625157	-0.052835397
1277227145155	0.8036005	4.099725	4.7126403	-3.5088334	0.0	-12.1875	-38.0	-35.5	2.4909387	0.8454918	-0.19355926
1277227145195	0.5720546	13.021052	8.662541	5.8430996	0.0	-11.6875	-39.4375	-33.8125	1.0229892	0.5865919	-0.043904822
1277227145235	-0.7627395	18.155924	7.082581	9.696741	0.0	-11.4375	-40.4375	-32.8125	0.68470144	0.37164232	0.04198581
1277227145275	2.070293	1.879608	7.43671	-1.861608	0.0	-11.9375	-41.4375	-31.8125	-2.366953	1.2111431	-0.8336366
1277227145315	2.0294318	8.076866	4.7943625	-0.19726562	0.0	-12.4375	-41.6875	-31.5625	0.32396054	0.52235794	-0.24616866
1277227145356	-4.0588636	18.768839	-0.9125633	9.417721	0.0	-12.9375	-41.4375	-32.3125	0.56093466	-0.047486927	0.21297583
1277227145395	-3.173541	5.7477865	-1.879608	-2.9772038	0.0	-13.1875	-41.1875	-31.5625	0.68483055	-0.2788197	0.5044791
1277227145435	-0.19068487	8.390134	0.19068487	-1.4121838	0.0	-13.4375	-42.1875	-31.125	0.445173	0.022717498	0.022723362
1277227145475	-0.38136974	10.760075	-0.6946377	0.9825649	0.0	-13.6875	-42.9375	-29.875	0.43693894	-0.06442716	0.035428207
1277227145515	-2.1792557	10.651112	-2.070293	1.2604828	0.0	-14.1875	-43.6875	-28.125	0.57315856	-0.18817537	0.20181815
1277227145605	2.1111538	8.62168	1.3756552	-0.8242912	0.0	-14.1875	-45.1875	-25.6875	0.16561684	0.15375587	-0.24014059
1277227145646	-0.0	8.281172	0.10896278	-1.5247622	0.0	-14.4375	-46.375	-21.75	0.5992337	0.013157136	0.0
1277227145685	1.4573772	9.00305	0.9942854	-0.6323681	0.0	-14.1875	-47.875	-17.8125	0.47556746	0.10859075	-0.16048384
1277227145725	3.1463003	8.962189	2.070293	-0.0852232	0.0	-12.6875	-49.375	-14.125	-0.97307295	0.21460535	-0.33762223
1277227145765	3.0645783	9.575105	0.8036005	0.27898598	0.0	-11.6875	-50.125	-11.125	-0.5348223	0.07976227	-0.30975455
1277227145805	3.568531	10.18802	0.53119355	1.0013247	0.0	-10.25	-50.625	-10.625	-0.7171787	0.049168106	-0.336913
1277227145845	3.255263	10.800936	0.61291564	1.4908104	0.0	-8.75	-51.625	-10.1875	-0.725325	0.054279163	-0.2927289
1277227145875	2.0294318	11.536434	0.3405087	1.9118757	0.0	-8.5	-52.125	-10.375	-0.07449232	0.029061388	-0.17413335
1277227145915	1.7297841	13.525005	0.7627395	3.8498392	0.0	-8.0	-52.125	-11.625	0.15152209	0.055880874	-0.1272047
1277227145955	-0.9125633	10.732834	-0.46309182	0.97485924	0.0	-8.25	-51.875	-11.875	0.7314937	-0.04296563	0.08482138
1277227145995	-4.8216033	10.61025	1.3756552	1.928668	0.0	-10.0	-50.625	-13.375	1.2992862	0.11749365	0.4265308
1277227146035	-4.2904096	16.017529	-0.08172209	6.775736	0.0	-11.9375	-49.125	-15.5625	0.99372464	-0.0049282666	0.26171353
1277227146065	-0.7627395	14.628253	3.718355	5.3060503	0.0	-14.1875	-48.125	-18.3125	1.2197337	0.2485943	0.05209435
1277227146095	1.1441092	12.217452	3.5957718	2.9802456	0.0	-15.9375	-46.875	-21.25	1.033458	0.2850522	-0.09337318
1277227146135	2.5606253	8.894087	1.4982382	-0.4308138	0.0	-16.9375	-44.9375	-24.1875	0.23258486	0.16048583	-0.2803211
1277227146175	0.7627395	6.1700177	0.38136974	-3.57798	0.0	-16.9375	-42.9375	-26.9375	0.44581592	0.061266437	-0.12299629
1277227146215	-0.9125633	5.325556	0.9942854	-4.312752	0.0	-16.4375	-40.4375	-29.875	0.7932784	0.18198276	0.1697073
1277227146255	-0.7218784	4.099725	0.14982383	-5.641161	0.0	-15.1875	-38.0	-33.0625	0.59566975	0.035975643	0.17429312
1277227146295	-0.61291564	2.8738933	-0.040861044	-6.8678412	0.0	-13.9375	-36.75	-35.3125	0.53702486	-0.0139043955	0.21012214
1277227146335	0.50395286	3.336985	2.8330324	-5.4003468	0.0	-11.9375	-37.0	-36.0	1.1375527	0.69834363	-0.14988776
1277227146375	0.8036005	7.6954966	6.8237944	0.5098715	0.0	-10.9375	-38.25	-35.3125	1.4885229	0.7227416	-0.10404768
1277227146415	0.53119355	18.537292	7.6273947	10.245544	0.0	-10.6875	-39.6875	-33.8125	0.5361831	0.39020395	-0.028647562
1277227146455	-1.4982382	8.921328	7.164303	1.7329359	0.0	-10.0	-40.6875	-32.8125	1.4604529	0.6698211	0.1663863
1277227146495	3.1463003	1.3075534	6.238119	-2.6986947	0.0	-10.6875	-40.9375	-32.3125	-1.7744601	1.0708848	-1.1769277
1277227146545	-3.718355	18.768839	-0.50395286	9.333607	0.0	-11.4375	-40.9375	-32.3125	0.5224554	-0.026332516	0.19558068
1277227146585	-4.2086873	6.238119	-0.7218784	-2.2470016	0.0	-11.6875	-40.4375	-32.3125	0.7490679	-0.095636725	0.59352463
1277227146626	0.6537767	9.697687	0.53119355	-0.07244682	0.0	-12.1875	-40.4375	-32.0625	0.30708268	0.054596923	-0.06731388
1277227146665	1.2666923	11.182305	-0.6946377	1.4685869	0.0	-12.6875	-41.1875	-30.875	0.23409587	-0.06164641	-0.11279568
1277227146705	-2.6832085	9.575105	-1.9885708	0.33419037	0.0	-12.4375	-42.4375	-29.125	0.57799315	-0.19737427	0.27321973
1277227146745	0.42223078	10.56939	1.607201	0.89257336	0.0	-12.4375	-44.4375	-26.6875	0.4970274	0.15078735	-0.03992722
1277227146785	0.8036005	6.8237944	-0.27240697	-2.9303026	0.0	-12.9375	-46.1875	-23.4375	0.28629637	-0.039625432	-0.117224544
1277227146825	0.040861044	7.5456724	-0.46309182	-2.2466702	0.0	-13.4375	-47.625	-20.5	0.51324505	-0.061294064	-0.00541511
1277227146865	0.88532263	8.580819	-0.040861044	-1.1801834	0.0	-13.6875	-48.625	-17.3125	0.45682344	-0.004736725	-0.10281083
1277227146906	3.445948	8.281172	2.2609777	-0.5565481	0.0	-13.1875	-49.625	-14.8125	-1.2982069	0.24692908	-0.39432386
1277227146946	3.255263	8.812365	1.334794	-0.3179102	0.0	-12.4375	-50.375	-12.625	-0.83453715	0.14113949	-0.35384962
1277227146985	2.8330324	9.656827	0.9942854	0.30616283	0.0	-10.9375	-51.125	-11.625	-0.5439799	0.09847847	-0.28536406
1277227147025	3.9090397	10.419566	0.42223078	1.3300562	0.0	-9.75	-52.125	-10.875	-0.8016443	0.037922524	-0.35891393
1277227147065	3.9499009	12.639683	0.10896278	3.4362783	0.0	-8.75	-52.375	-10.375	-0.63142383	0.008228091	-0.30288488
1277227147105	0.7218784	15.4046135	-0.0	5.614868	0.0	-7.5	-52.625	-10.625	0.4420296	-0.0	-0.046826925
1277227147145	-2.3699405	11.727119	-0.040861044	2.1576138	0.0	-7.75	-52.125	-11.125	1.0084684	-0.0034152647	0.19940494
1277227147185	-4.862464	12.367276	1.6480621	3.5839882	0.0	-9.75	-50.875	-12.625	1.3184042	0.12338855	0.37460616
1277227147225	-5.175732	15.976667	0.53119355	6.9958572	0.0	-12.1875	-49.375	-15.3125	1.0913683	0.031619214	0.31328705
1277227147265	0.23154591	14.246883	3.990762	4.990427	0.0	-15.4375	-47.875	-18.0625	1.2782049	0.27308083	-0.01625096
1277227147305	2.8738933	9.302697	2.070293	0.14752197	0.0	-17.4375	-46.1875	-21.75	0.26798573	0.20951183	-0.29963028
1277227147345	1.7297841	6.469665	0.14982383	-3.1080556	0.0	-17.6875	-43.6875	-25.9375	0.22910006	0.022368323	-0.26125744
1277227147375	-0.3405087	4.7943625	1.1441092	-4.8659167	0.0	-17.4375	-41.4375	-29.625	0.80533606	0.23368783	0.07090367
1277227147405	-0.6946377	4.7535014	1.2666923	-4.838471	0.0	-15.9375	-39.0	-33.3125	0.7504585	0.25780743	0.14510474
1277227147435	-1.1441092	3.5957718	0.50395286	-5.9997444	0.0	-14.6875	-36.5	-35.5	0.67717826	0.13276832	0.3080528
1277227147475	-0.8036005	2.4108016	0.95342433	-7.092473	0.0	-13.6875	-35.5	-37.25	0.7781194	0.35893327	0.32175052
1277227147515	-0.08172209	3.568531	3.9499009	-4.4828534	0.0	-12.9375	-35.75	-37.5	1.6545565	0.8359489	0.022896761
1277227147545	1.4573772	11.645397	8.730643	4.820836	0.0	-12.6875	-36.75	-37.0	0.8548899	0.63958883	-0.12449895
1277227147586	1.879608	18.959524	8.076866	10.887123	0.0	-12.4375	-37.75	-37.0	0.42884308	0.40096197	-0.098815046
1277227147625	-2.8330324	15.704261	9.234595	8.630476	0.0	-12.1875	-38.5	-36.5	0.9418478	0.5246032	0.17847936
1277227147665	-0.6946377	9.80665	5.053149	1.2471828	0.0	-11.9375	-37.5	-37.0	0.73224586	0.47477686	0.07071522
1277227147695	-0.8036005	5.325556	3.336985	-3.4708166	0.0	-12.1875	-36.75	-38.0	0.89281046	0.5546955	0.14976527
1277227147725	-1.525479	3.214402	1.1441092	-6.069211	0.0	-12.9375	-36.0	-38.0	0.7709592	0.31111592	0.4431026
1277227147765	0.88532263	6.3607025	-1.0760075	-3.2951126	0.0	-14.1875	-35.75	-37.75	0.20718	-0.16600773	-0.13829778
1277227147805	2.7649305	15.472715	0.313268	5.9142876	0.0	-15.1875	-37.0	-36.5	0.23211847	0.01992812	-0.1768307
1277227147845	-0.6537767	9.384419	3.405087	0.1978178	0.0	-15.4375	-38.75	-34.5625	0.7427259	0.34729618	0.06955381
1277227147885	-1.334794	7.5865335	2.2609777	-1.7786245	0.0	-15.1875	-40.6875	-31.5625	0.839664	0.28549826	0.17416006
1277227147925	0.42223078	8.921328	0.08172209	-0.8749628	0.0	-14.4375	-42.4375	-29.125	0.40789878	0.009149808	-0.047292955
1277227147965	0.84446156	7.3958488	-0.10896278	-2.36195	0.0	-14.9375	-43.9375	-25.6875	0.3579709	-0.014636812	-0.113688126
1277227148005	0.7627395	7.6954966	0.8036005	-2.031805	0.0	-15.1875	-44.6875	-22.9375	0.5350187	0.10354396	-0.09879238
1277227148045	1.2666923	8.580819	0.6946377	-1.1050711	0.0	-15.4375	-45.6875	-20.5	0.47685647	0.07991396	-0.14656056
1277227148085	1.0760075	9.425281	1.9477097	-0.12226677	0.0	-15.6875	-46.875	-17.5625	0.9413323	0.20249972	-0.11366974
1277227148125	1.8387469	9.888372	0.95342433	0.2963152	0.0	-14.4375	-48.125	-15.3125	0.4735599	0.094511375	-0.18385057
1277227148165	1.1849703	8.689782	0.27240697	-1.032217	0.0	-12.9375	-49.125	-13.875	0.4655946	0.031050526	-0.13552772
1277227148205	1.607201	9.724928	0.38136974	0.05756569	0.0	-11.6875	-49.625	-13.375	0.2930653	0.03867158	-0.16378567
1277227148245	3.0645783	11.536434	1.1441092	2.1845942	0.0	-10.0	-50.375	-13.125	-0.380346	0.09555742	-0.25964686
1277227148285	2.6014864	12.108489	1.4165162	2.6588926	0.0	-9.5	-50.875	-13.375	-0.18654957	0.11388053	-0.211631
1277227148325	1.920469	13.143636	0.7627395	3.4984293	0.0	-9.0	-51.375	-13.125	0.14506982	0.057358384	-0.1450873
1277227148355	0.5720546	10.228881	-0.61291564	0.45653248	0.0	-9.0	-51.875	-13.625	0.34919143	-0.059755392	-0.05586724
1277227148385	-2.5606253	9.915613	1.0760075	0.49063015	0.0	-9.75	-51.125	-14.5625	1.1643634	0.10468545	0.25272045
1277227148415	-4.5219555	12.871228	0.7627395	3.857111	0.0	-10.5	-50.125	-16.3125	1.089778	0.055851106	0.33785275
1277227148445	-3.1463003	14.519291	0.5720546	5.0606375	0.0	-11.9375	-49.125	-18.5625	0.9202055	0.0384869	0.21339852
1277227148485	-0.50395286	12.680544	3.0237172	3.2391548	0.0	-13.1875	-48.125	-20.5	1.0369934	0.23390402	0.03972131
1277227148525	1.2666923	9.724928	2.3699405	0.2827177	0.0	-14.1875	-46.875	-22.9375	0.6319502	0.23711039	-0.12952292
1277227148565	1.3756552	6.782933	0.92618364	-2.823927	0.0	-14.6875	-44.6875	-26.1875	0.27204144	0.13303135	-0.20009722
1277227148605	-0.29964766	5.5162406	0.313268	-4.2734017	0.0	-14.4375	-42.9375	-29.125	0.56023216	0.05664586	0.054267656
1277227148645	-1.2258313	5.6660647	0.8036005	-3.9540672	0.0	-13.6875	-40.4375	-32.0625	0.68705344	0.13774213	0.21306247
1277227148685	-1.1849703	5.407278	0.46309182	-4.2517185	0.0	-12.1875	-39.1875	-34.5625	0.572772	0.08346275	0.21573327
1277227148725	-1.0351465	5.175732	1.2666923	-4.378553	0.0	-10.0	-39.0	-35.5	0.59027064	0.23553005	0.19739556
1277227148765	-0.8036005	6.0474343	4.630918	-2.1474962	0.0	-9.0	-39.1875	-35.5	1.1981376	0.64929533	0.13210893
1277227148805	0.14982383	14.410328	7.5456724	6.4604073	0.0	-8.25	-40.6875	-34.0625	0.6072442	0.48234978	-0.010396601
1277227148845	2.3018389	16.86199	7.082581	8.626692	0.0	-8.25	-41.6875	-32.3125	0.18522196	0.39437	-0.13567191
1277227148885	1.2258313	6.973618	8.240311	1.0578203	0.0	-9.0	-42.1875	-31.5625	3.0136273	0.8609531	-0.17400359
1277227148925	1.7297841	15.431854	1.4982382	5.7939587	0.0	-9.75	-41.9375	-31.8125	0.18010148	0.09618541	-0.111625835
1277227148965	-3.2961242	8.894087	-0.50395286	-0.3080616	0.0	-10.5	-40.9375	-33.0625	0.6043482	-0.053080473	0.35490516
1277227149005	-3.255263	5.47538	-0.46309182	-3.4198685	0.0	-11.9375	-40.4375	-33.3125	0.71940714	-0.07257154	0.5363858
1277227149045	-1.9885708	10.56939	0.7218784	0.97238255	0.0	-12.6875	-40.9375	-32.8125	0.5857915	0.067020774	0.1859703
1277227149085	-0.27240697	10.923519	-1.56634	1.2319593	0.0	-12.1875	-41.6875	-30.875	0.34815592	-0.14237702	0.024932487
1277227149125	-0.9125633	9.384419	0.3405087	-0.37181854	0.0	-11.6875	-43.1875	-28.625	0.528258	0.036098436	0.0969376
1277227149165	1.2666923	8.158588	0.92618364	-1.4985285	0.0	-10.6875	-44.6875	-26.6875	0.17130831	0.11171151	-0.15402897
1277227149205	1.1168685	6.973618	-0.5720546	-2.7210317	0.0	-10.9375	-46.1875	-23.6875	0.12675035	-0.080822565	-0.1588076
1277227149245	-0.040861044	9.765789	0.61291564	-0.021560669	0.0	-11.4375	-47.875	-21.25	0.5686001	0.06267875	0.004184076
1277227149285	1.0760075	10.310603	1.3756552	0.6508236	0.0	-11.4375	-49.375	-18.5625	0.48767605	0.13192995	-0.10398292
1277227149325	2.6832085	9.384419	1.4165162	0.056079865	0.0	-11.1875	-50.375	-16.3125	-0.33983007	0.14412154	-0.27849135
1277227149365	2.9147544	9.384419	0.7627395	0.049560547	0.0	-10.25	-50.875	-14.5625	-0.46667194	0.07746413	-0.3011485
1277227149395	1.9885708	9.507003	0.6946377	-0.0690918	0.0	-9.5	-51.125	-13.625	-0.11769975	0.07139656	-0.20619622
1277227149425	1.6889231	9.888372	-0.08172209	0.2252512	0.0	-9.0	-51.375	-13.125	0.016382381	-0.008146312	-0.1691665
1277227149465	1.607201	10.923519	0.42223078	1.2425413	0.0	-8.5	-51.375	-13.125	0.08349025	0.038223032	-0.14608404
1277227149505	1.4165162	12.408136	0.92618364	2.7163763	0.0	-8.0	-51.875	-13.125	0.22051358	0.07402604	-0.11366817
1277227149535	1.2666923	12.489859	0.9942854	2.7865887	0.0	-7.75	-51.625	-13.125	0.27204618	0.07903617	-0.10107208
1277227149565	1.0760075	10.651112	-0.08172209	0.89898586	0.0	-8.5	-51.125	-14.375	0.22100477	-0.0076336316	-0.10068145
1277227149595	-1.56634	9.615966	0.7218784	-0.037241936	0.0	-9.25	-51.125	-15.3125	0.9793736	0.07395913	0.16147137
1277227149625	-3.718355	12.408136	0.5720546	3.159276	0.0	-11.1875	-49.625	-17.3125	1.0197563	0.04413417	0.29115468
1277227149675	-0.61291564	14.669114	1.9885708	5.0093203	0.0	-13.1875	-48.625	-19.75	0.8587348	0.13462435	0.04175844
1277227149715	0.9942854	11.795221	3.486809	2.5332718	0.0	-14.1875	-47.375	-22.5	0.909349	0.28646526	-0.0840968
1277227149755	1.7570249	7.9270425	1.7978859	-1.4905491	0.0	-14.9375	-45.1875	-25.4375	0.31796393	0.21791394	-0.2181231
1277227149795	-0.040861044	5.5571017	0.42223078	-4.2333813	0.0	-14.4375	-43.4375	-29.125	0.5202369	0.07583264	0.0073528094
1277227149835	-1.2258313	5.284695	1.0760075	-4.2759666	0.0	-13.1875	-40.6875	-32.5625	0.7263673	0.19580106	0.22792792
1277227149875	-1.4165162	4.9850473	0.88532263	-4.549178	0.0	-11.6875	-38.25	-35.3125	0.63985956	0.16919939	0.27685562
1277227149905	-0.7218784	4.2904096	0.84446156	-5.3747387	0.0	-10.6875	-37.0	-37.25	0.50806326	0.19171338	0.16669267
1277227149945	-0.23154591	4.140586	2.5333846	-4.94701	0.0	-10.0	-36.5	-37.75	0.7272905	0.5483867	0.055862866
1277227149985	0.08172209	6.469665	6.469665	-0.65679646	0.0	-10.5	-37.75	-36.0	1.7024347	0.7853582	-0.012630908
1277227150025	1.6889231	16.43976	6.5922484	7.9859295	0.0	-10.9375	-39.4375	-33.8125	0.39442578	0.37955317	-0.10237489
1277227150065	1.2258313	12.762266	8.008764	5.310175	0.0	-11.4375	-40.4375	-32.3125	0.93920034	0.5583546	-0.09575747
1277227150105	3.1054392	5.7477865	7.0553403	-0.1911087	0.0	-11.6875	-40.6875	-31.5625	-2.3472762	0.82381535	-0.49535343
1277227150145	0.50395286	17.924377	0.7218784	8.139336	0.0	-11.4375	-40.4375	-32.3125	0.3241183	0.040235918	-0.028108098
1277227150185	-4.372132	5.134871	1.1168685	-2.970728	0.0	-11.6875	-39.6875	-32.8125	0.8792036	0.16411804	0.70534045
1277227150225	-2.2609777	5.434519	-0.38136974	-3.9082217	0.0	-12.1875	-39.9375	-33.0625	0.64872354	-0.0647013	0.39425713
1277227150265	1.920469	14.2877445	-1.0760075	4.649686	0.0	-12.6875	-40.9375	-31.5625	0.2028546	-0.07450044	-0.1336129
1277227150305	-0.19068487	10.147159	-0.0	0.34230042	0.0	-13.1875	-42.1875	-29.375	0.44413397	-0.0	0.018789737
1277227150345	-1.3075534	8.240311	1.7297841	-1.285819	0.0	-12.9375	-44.1875	-27.625	0.81412584	0.20442739	0.15736568
1277227150385	2.2201166	9.084772	0.14982383	-0.45333862	0.0	-12.6875	-45.1875	-24.6875	0.0666569	0.016018951	-0.23968022
1277227150425	0.6537767	7.205164	-0.29964766	-2.5656834	0.0	-13.1875	-46.875	-22.25	0.35216776	-0.041394096	-0.09048944
1277227150465	-0.42223078	9.084772	1.4165162	-0.6024189	0.0	-12.9375	-47.625	-20.25	0.8695618	0.15451245	0.04644334
1277227150505	1.607201	9.043911	1.6889231	-0.46706295	0.0	-13.1875	-48.375	-17.5625	0.50157624	0.18183526	-0.17587474
1277227150545	1.334794	8.921328	0.5720546	-0.7678995	0.0	-12.6875	-49.625	-15.8125	0.3929684	0.063331455	-0.14851665
1277227150575	3.0237172	9.425281	1.0351465	0.14575195	0.0	-11.1875	-49.875	-14.5625	-0.4626491	0.10419816	-0.31043684
1277227150615	3.486809	8.894087	1.0351465	-0.19758415	0.0	-10.0	-51.125	-13.625	-0.8615126	0.10793547	-0.37362272
1277227150655	2.1111538	9.997335	-0.19068487	0.41294098	0.0	-9.0	-51.625	-12.875	-0.13354771	-0.01865984	-0.2081141
1277227150695	1.5390993	11.34575	0.27240697	1.6462564	0.0	-7.75	-52.125	-12.125	0.061831523	0.023787206	-0.13483122
1277227150735	1.6480621	13.375181	0.3405087	3.6739855	0.0	-6.75	-52.375	-12.375	0.026652262	0.025261784	-0.12259995
1277227150775	-0.14982383	13.443283	0.61291564	3.651432	0.0	-7.0	-51.625	-12.625	0.6357585	0.045558326	0.011144422
1277227150815	-1.6480621	10.419566	0.10896278	0.7430105	0.0	-7.75	-51.125	-13.875	0.8637278	0.010328742	0.15687038
1277227150855	-3.5957718	10.95076	0.6946377	1.7402649	0.0	-9.25	-49.875	-16.3125	1.0612116	0.060194205	0.31726626
1277227150885	-3.2961242	13.143636	0.10896278	3.744419	0.0	-11.4375	-48.375	-19.0	0.88663983	0.008040986	0.24571002
1277227150915	-0.3405087	13.184497	2.3018389	3.581605	0.0	-13.1875	-46.875	-22.25	0.8020887	0.17278822	0.025820708
1277227150955	0.95342433	11.75436	3.2961242	2.4382849	0.0	-13.6875	-45.6875	-24.6875	0.7254137	0.27254426	-0.08093521
1277227150995	1.6889231	8.430995	1.4982382	-1.0785999	0.0	-13.9375	-43.9375	-27.125	0.26095805	0.17251225	-0.19770624
1277227151035	0.14982383	5.7886477	1.0760075	-3.9169407	0.0	-14.1875	-42.4375	-29.375	0.5558731	0.18372466	-0.025876578
1277227151065	-0.46309182	5.2165933	1.3075534	-4.4087806	0.0	-13.6875	-40.9375	-32.0625	0.6757398	0.24466889	0.08854075
1277227151095	-0.42223078	4.440233	0.6537767	-5.298727	0.0	-12.9375	-39.0	-34.8125	0.51927197	0.14554164	0.09480695
1277227151135	-0.46309182	3.636633	0.61291564	-6.0897675	0.0	-12.4375	-37.75	-36.25	0.520569	0.16565706	0.12665913
1277227151175	0.10896278	3.5276701	2.0294318	-5.735419	0.0	-11.4375	-37.25	-37.0	0.6566692	0.52184576	-0.030878212
1277227151215	0.46309182	5.134871	5.284695	-2.423605	0.0	-10.6875	-37.75	-36.0	1.8977019	0.7977518	-0.08994235
1277227151255	1.3075534	14.601013	6.469665	6.2169533	0.0	-10.6875	-39.1875	-34.5625	0.43277118	0.4156213	-0.089314
1277227151295	1.0351465	16.630445	6.782933	8.183664	0.0	-10.6875	-40.6875	-33.5625	0.48288602	0.38659027	-0.062163863
1277227151335	2.3699405	3.0237172	8.008764	-0.92409515	0.0	-10.5	-41.4375	-32.0625	-2.4613004	1.1235199	-0.6647745
1277227151375	1.7297841	15.241169	1.4982382	5.605362	0.0	-10.5	-41.6875	-32.3125	0.20179757	0.09736613	-0.11301062
1277227151405	-4.7535014	12.53072	-0.42223078	3.6020412	0.0	-11.1875	-41.6875	-32.0625	0.65087986	-0.031494543	0.362577
1277227151436	-3.3642259	3.759216	-1.525479	-4.536279	0.0	-11.9375	-41.1875	-31.5625	0.77954125	-0.29364628	0.7300055
1277227151475	-1.2258313	7.6273947	0.9942854	-2.0176568	0.0	-12.9375	-41.6875	-30.875	0.647626	0.12800187	0.15935165
1277227151515	-0.7627395	12.067628	0.08172209	2.2853346	0.0	-13.1875	-42.9375	-29.125	0.5030435	0.00675842	0.06312145
1277227151555	-0.5720546	10.56939	-0.88532263	0.81516933	0.0	-12.4375	-43.6875	-27.875	0.4404611	-0.08344624	0.054070957
1277227151585	1.920469	8.471856	1.1441092	-1.0448275	0.0	-11.4375	-45.6875	-25.6875	0.05450036	0.13095286	-0.22292064
1277227151625	2.4925237	6.8237944	0.19068487	-2.5393806	0.0	-10.6875	-47.125	-23.6875	-0.26686215	0.026241872	-0.3502126
1277227151665	0.10896278	7.504812	0.6946377	-2.268972	0.0	-11.1875	-48.375	-21.25	0.56094986	0.09228633	-0.014518036
1277227151705	-0.27240697	10.760075	1.9885708	1.1390257	0.0	-11.4375	-49.375	-18.75	0.9267614	0.18269095	0.02531105
1277227151745	2.070293	8.962189	1.1441092	-0.5375662	0.0	-11.4375	-49.875	-16.3125	-0.008268581	0.12374843	-0.22702083
1277227151785	1.6889231	9.084772	1.1168685	-0.49896812	0.0	-10.9375	-50.375	-14.5625	0.18470259	0.12028411	-0.18380865
1277227151825	1.9885708	9.234595	0.84446156	-0.32270145	0.0	-9.5	-50.625	-13.625	-0.15130787	0.08915921	-0.21210042
1277227151855	1.6889231	8.962189	-0.14982383	-0.6854811	0.0	-8.5	-50.875	-13.375	-0.07500372	-0.016426686	-0.1862654
1277227151885	2.5333846	10.038197	-0.46309182	0.55664444	0.0	-7.5	-51.375	-13.875	-0.3167257	-0.044700656	-0.2472122
1277227151915	2.4108016	10.800936	0.46309182	1.2697496	0.0	-7.0	-51.625	-14.375	-0.34737462	0.041821066	-0.2196034
1277227151955	2.3426998	12.721405	0.50395286	3.1384783	0.0	-6.75	-51.625	-14.5625	-0.21314815	0.038939763	-0.18211381
1277227151995	0.3405087	13.593107	0.42223078	3.7972755	0.0	-7.0	-51.625	-14.5625	0.41500974	0.031042406	-0.025044864
1277227152035	-2.7240696	10.95076	0.50395286	1.4890862	0.0	-8.25	-51.125	-15.3125	0.99626356	0.044629246	0.24380772
1277227152075	-4.140586	13.443283	0.3405087	4.2639675	0.0	-10.25	-50.125	-16.8125	1.0012248	0.024202343	0.2987837
1277227152115	-2.6832085	14.519291	1.4982382	5.0343113	0.0	-12.4375	-48.375	-19.5	0.9565259	0.101125166	0.18274128
1277227152155	-0.10896278	12.108489	3.2961242	2.7429247	0.0	-14.1875	-46.875	-22.75	0.9859032	0.26576582	0.008998632
1277227152195	1.3075534	8.349273	1.6480621	-1.196414	0.0	-14.9375	-44.6875	-26.1875	0.43656182	0.19259576	-0.15534508
1277227152235	0.313268	5.284695	0.38136974	-4.498959	0.0	-14.4375	-42.4375	-29.375	0.42646015	0.071914256	-0.05920906
1277227152275	-0.61291564	4.9850473	1.0351465	-4.6785035	0.0	-13.1875	-40.6875	-32.5625	0.6436351	0.20325242	0.12233683
1277227152315	-0.7218784	4.399372	0.3405087	-5.335461	0.0	-12.1875	-39.0	-35.5	0.5122716	0.07622999	0.16263738
1277227152355	-0.6537767	3.5276701	0.27240697	-6.208583	0.0	-10.6875	-37.75	-37.0	0.4699846	0.07578177	0.18324907
1277227152385	-0.29964766	3.9090397	2.6832085	-5.055862	0.0	-10.0	-37.5	-37.25	0.9063841	0.6001815	0.076505445
1277227152415	-0.27240697	6.5513873	6.1700177	-0.80309486	0.0	-9.75	-38.5	-36.0	1.5589241	0.75499743	0.041556105
1277227152455	0.88532263	15.5135765	7.6954966	7.533348	0.0	-9.0	-39.6875	-33.8125	0.49393514	0.45983505	-0.05700577
1277227152495	0.9942854	16.507862	6.6331096	8.011776	0.0	-9.5	-41.4375	-32.3125	0.4525484	0.3814442	-0.060158346
1277227152535	1.334794	7.0553403	7.8861814	0.858778	0.0	-9.75	-42.4375	-31.5625	2.9879718	0.83220154	-0.18697926
1277227152565	2.9556155	14.560152	2.8738933	5.325863	0.0	-10.5	-42.1875	-31.5625	0.083252884	0.19107573	-0.2002722
1277227152595	-1.9477097	12.53072	-0.88532263	2.905404	0.0	-11.6875	-41.4375	-32.3125	0.4735043	-0.06970076	0.15420084
1277227152635	-2.5333846	7.3549876	-0.61291564	-2.0034747	0.0	-12.9375	-40.9375	-32.3125	0.6319061	-0.078627944	0.331717
1277227152665	-2.5606253	7.4639506	1.4573772	-1.7822304	0.0	-14.1875	-40.9375	-31.5625	0.8215237	0.18263133	0.33048394
1277227152695	-1.9477097	9.112013	1.3075534	-0.3975029	0.0	-14.9375	-41.4375	-30.375	0.7518965	0.13941741	0.21058287
1277227152725	-0.95342433	10.147159	-1.9477097	0.5696411	0.0	-14.9375	-42.9375	-29.125	0.4790134	-0.18882783	0.09368468
1277227152765	-0.38136974	11.727119	-1.4165162	2.0118647	0.0	-13.9375	-44.1875	-27.125	0.44563583	-0.12014452	0.03250887
1277227152805	1.7570249	8.662541	1.56634	-0.83000374	0.0	-13.1875	-45.1875	-25.6875	0.22644995	0.17538837	-0.20011541
1277227152845	1.6480621	7.3549876	0.313268	-2.2627726	0.0	-12.9375	-46.375	-23.1875	0.1168184	0.041538067	-0.22043297
1277227152875	-0.14982383	8.539958	0.7218784	-1.2349272	0.0	-13.4375	-47.125	-20.5	0.71340793	0.08431612	0.01754206
1277227152915	0.313268	9.956474	1.1168685	0.2171669	0.0	-14.4375	-47.875	-18.75	0.77293617	0.11165331	-0.03145337
1277227152955	2.2201166	9.084772	1.56634	-0.32427597	0.0	-14.1875	-48.875	-16.5625	0.26801363	0.16594493	-0.23968022
1277227152995	2.5333846	9.234595	1.3756552	-0.13255024	0.0	-13.4375	-49.875	-15.3125	-0.030238612	0.14268346	-0.26774904
1277227153035	3.0645783	9.084772	0.8036005	-0.18529415	0.0	-12.1875	-50.125	-13.875	-0.4387149	0.08362	-0.3253444
1277227153075	1.9885708	8.921328	-0.0	-0.66638184	0.0	-10.5	-50.875	-12.875	-0.063599855	-0.0	-0.21931548
1277227153115	2.1792557	9.888372	-0.29964766	0.32344627	0.0	-10.0	-50.625	-12.375	-0.081135534	-0.029584257	-0.21691816
1277227153155	1.4165162	12.258313	0.08172209	2.5335054	0.0	-9.5	-50.375	-12.375	0.2947873	0.0066225003	-0.115045294
1277227153195	0.10896278	13.484144	0.6537767	3.6937733	0.0	-9.25	-50.875	-12.625	0.716789	0.048445333	-0.008080632
1277227153235	0.46309182	11.958665	0.27240697	2.1640768	0.0	-10.25	-50.875	-13.125	0.60535544	0.022758057	-0.038705036
1277227153275	-3.173541	10.841797	0.84446156	1.5215902	0.0	-11.1875	-51.125	-15.0625	1.1379632	0.074614026	0.28475866
1277227153315	-4.7535014	13.484144	0.7627395	4.51116	0.0	-13.1875	-49.875	-17.5625	1.0865341	0.053297304	0.3389227
1277227153345	-0.9942854	12.830367	2.5606253	3.3144674	0.0	-15.4375	-48.375	-20.75	1.0422173	0.19641343	0.077340126
1277227153375	1.334794	11.182305	3.1463003	1.8862896	0.0	-16.1875	-46.375	-24.1875	0.7943696	0.27243447	-0.11880449
1277227153405	2.1111538	8.921328	1.9885708	-0.42574024	0.0	-16.4375	-44.9375	-26.4375	0.34399763	0.21360116	-0.23236673
1277227153435	1.334794	6.851035	0.8036005	-2.7806888	0.0	-15.9375	-42.9375	-28.875	0.3061079	0.11462673	-0.19242047
1277227153475	-0.29964766	5.706926	1.7297841	-3.8358088	0.0	-14.6875	-40.6875	-31.5625	0.732989	0.2939189	0.0524578
1277227153525	-1.0760075	5.434519	1.6480621	-4.026694	0.0	-14.4375	-38.75	-33.3125	0.7807661	0.28914624	0.19546694
1277227153565	-0.53119355	4.440233	0.7218784	-5.2768655	0.0	-13.6875	-36.75	-35.75	0.5432255	0.160045	0.11906604
1277227153595	-0.040861044	4.2086873	1.4982382	-5.3390517	0.0	-12.9375	-36.75	-36.75	0.5367761	0.34198362	0.009708433
1277227153635	0.23154591	5.134871	5.053149	-2.59868	0.0	-12.6875	-37.5	-36.0	1.660795	0.7768692	-0.04506231
1277227153675	0.7627395	11.75436	8.771504	4.8796034	0.0	-12.1875	-38.75	-34.8125	1.1469955	0.6400799	-0.06479907
1277227153715	0.6946377	18.8097	6.742072	10.18692	0.0	-12.4375	-40.6875	-32.8125	0.57062656	0.34395388	-0.036912985
1277227153755	1.7570249	5.5571017	7.5456724	-0.2722025	0.0	-13.1875	-41.4375	-31.5625	3.136174	0.9131148	-0.30623075
1277227153795	1.9885708	15.363752	2.6832085	5.9159107	0.0	-14.1875	-41.9375	-30.875	0.36093724	0.17149922	-0.12871704
1277227153825	-4.0180025	12.9529505	-0.10896278	3.755619	0.0	-14.9375	-41.9375	-31.3125	0.701431	-0.008034345	0.30078793
1277227153855	-3.405087	5.7886477	-0.9125633	-3.0290527	0.0	-15.9375	-41.4375	-31.125	0.7880552	-0.13505426	0.5317241
1277227153885	-1.334794	5.8567495	-0.61291564	-3.7685337	0.0	-16.4375	-41.6875	-30.125	0.6434357	-0.10168289	0.22407961
1277227153925	-0.27240697	10.882658	0.08172209	1.0797234	0.0	-16.4375	-41.9375	-29.375	0.54153836	0.0075068944	0.025026064
1277227153965	-0.95342433	10.923519	-0.9942854	1.2033863	0.0	-16.6875	-42.9375	-27.625	0.5774811	-0.09043039	0.08706116
1277227154005	0.7627395	9.615966	1.0760075	-0.10065365	0.0	-16.4375	-44.4375	-25.6875	0.5612619	0.111088425	-0.07915438
1277227154045	2.8330324	7.8589406	0.313268	-1.4467964	0.0	-16.4375	-46.1875	-22.9375	-0.009477197	0.03748168	-0.3459851
1277227154075	1.1849703	7.0553403	0.6537767	-2.6226811	0.0	-16.9375	-47.875	-20.0	0.5188429	0.09113103	-0.16640063
1277227154105	0.08172209	9.234595	1.2666923	-0.48522663	0.0	-16.9375	-48.875	-17.0625	1.0153723	0.13631219	-0.0088493265
1277227154145	1.4573772	9.507003	1.6480621	-0.04841423	0.0	-16.6875	-49.625	-14.8125	0.99017924	0.16970272	-0.152111
1277227154185	1.9477097	8.580819	1.56634	-0.8692312	0.0	-15.6875	-49.875	-13.375	0.8122811	0.17616619	-0.22320215
1277227154225	2.2609777	9.384419	0.53119355	-0.13910007	0.0	-13.9375	-50.375	-12.125	0.18731254	0.05497372	-0.23642309
1277227154265	2.1792557	8.771504	0.7218784	-0.7397013	0.0	-12.4375	-50.875	-11.375	-0.027372157	0.07970082	-0.24351667
1277227154305	2.4925237	9.384419	-0.23154591	-0.09410095	0.0	-11.1875	-51.375	-11.125	-0.18966392	-0.02384213	-0.25960845
1277227154335	2.6832085	10.651112	0.313268	1.1817036	0.0	-10.25	-51.375	-10.875	-0.27148858	0.028512957	-0.24678318
1277227154365	2.1111538	11.413852	0.10896278	1.8013153	0.0	-9.75	-51.375	-11.125	0.022879738	0.009387035	-0.18289714
1277227154405	1.8387469	12.980191	0.9942854	3.3407822	0.0	-9.25	-51.375	-11.125	0.26668578	0.0756981	-0.14072162
1277227154445	1.1441092	11.372991	-0.46309182	1.6331205	0.0	-10.0	-51.125	-10.625	0.3631755	-0.04049193	-0.100261495
1277227154485	-3.9771416	11.563675	0.9942854	2.4622068	0.0	-10.9375	-51.125	-11.875	1.2754295	0.08113038	0.33126068
1277227154525	-5.175732	15.322891	0.08172209	6.3669662	0.0	-12.6875	-50.125	-14.125	1.1107227	0.0050528236	0.3257452
1277227154565	-2.1383946	14.09706	2.3699405	4.647293	0.0	-15.4375	-49.125	-16.5625	1.2016886	0.16470869	0.15054314
1277227154595	0.92618364	11.413852	2.7649305	1.9737854	0.0	-15.9375	-47.375	-20.5	0.9542719	0.23691536	-0.08096818
1277227154635	2.070293	8.771504	1.2666923	-0.7055559	0.0	-16.4375	-45.6875	-24.1875	0.30900916	0.13963354	-0.23178294
1277227154675	-0.46309182	5.8976107	0.95342433	-3.8145485	0.0	-16.4375	-43.6875	-27.625	0.7670405	0.15979266	0.07836115
1277227154715	-1.4982382	5.366417	1.3756552	-4.0676975	0.0	-14.6875	-41.9375	-31.5625	0.8595695	0.24206188	0.27225542
1277227154755	-1.2258313	4.1814466	0.95342433	-5.346137	0.0	-13.9375	-39.9375	-34.5625	0.7501291	0.2154097	0.28516945
1277227154805	0.19068487	4.0588636	1.607201	-5.437001	0.0	-12.6875	-38.5	-36.0	0.51699173	0.37665293	-0.04694535
1277227154845	0.46309182	4.9850473	3.9090397	-3.4548206	0.0	-11.6875	-38.5	-36.0	1.0992856	0.6629181	-0.09263033
1277227154875	-0.040861044	10.460427	8.390134	3.6029196	0.0	-11.4375	-39.0	-34.5625	1.3511034	0.6760062	0.0039062302
1277227154915	-0.38136974	18.46919	7.7363577	10.221022	0.0	-11.1875	-40.4375	-32.3125	0.699791	0.39659885	0.020646036
1277227154955	0.08172209	7.164303	7.3141265	0.43201923	0.0	-11.6875	-41.6875	-31.125	2.196034	0.79571337	-0.011406349
1277227154995	1.1441092	13.402422	2.3426998	3.8469992	0.0	-11.6875	-42.1875	-30.125	0.3467659	0.17243372	-0.0851594
1277227155035	-4.0180025	9.697687	1.0351465	0.74138355	0.0	-12.6875	-41.9375	-30.625	0.7967249	0.098294646	0.39279494
1277227155075	-1.4573772	7.205164	-1.1168685	-2.371213	0.0	-14.4375	-41.1875	-30.875	0.5529577	-0.15077953	0.19957578
1277227155115	1.4982382	11.958665	-0.19068487	2.2470112	0.0	-15.1875	-41.6875	-29.875	0.31295443	-0.015820323	-0.124635346
1277227155155	-0.23154591	10.228881	-0.61291564	0.44319248	0.0	-15.6875	-42.9375	-28.875	0.48809537	-0.059833262	0.02263262
1277227155195	-3.2961242	8.62168	0.95342433	-0.52727413	0.0	-15.9375	-44.1875	-26.4375	0.93480754	0.10292824	0.3651609
1277227155235	1.2666923	8.049625	0.10896278	-1.6572418	0.0	-15.1875	-46.1875	-23.6875	0.32728207	0.013371036	-0.1560805
1277227155275	1.5390993	6.66035	-0.61291564	-2.9433599	0.0	-15.6875	-47.375	-20.75	0.1819241	-0.08942259	-0.22709756
1277227155315	-0.53119355	9.425281	0.6946377	-0.34089088	0.0	-15.9375	-47.875	-17.5625	0.9232263	0.07345028	0.056298826
1277227155345	0.9942854	9.80665	1.1441092	0.11645317	0.0	-15.1875	-48.875	-15.0625	0.8370564	0.11555452	-0.101043604
1277227155375	2.8738933	9.234595	1.7297841	0.01827526	0.0	-14.4375	-50.125	-12.875	-0.3075994	0.17698328	-0.3017087
1277227155405	3.336985	9.152874	0.6946377	-0.039711952	0.0	-12.9375	-51.125	-11.625	-0.59797627	0.07118143	-0.3496071
1277227155435	3.214402	9.234595	1.0351465	0.026032448	0.0	-11.4375	-52.125	-10.625	-0.9037333	0.10547154	-0.33496562
1277227155475	1.9885708	9.915613	0.6537767	0.32751083	0.0	-10.6875	-52.875	-9.9375	0.012710426	0.064557	-0.19792382
1277227155515	1.4573772	11.114203	0.46309182	1.4122591	0.0	-10.0	-52.875	-9.6875	0.38695857	0.041289523	-0.13038357
1277227155545	0.9942854	11.917805	1.334794	2.226818	0.0	-9.5	-52.875	-9.4375	0.9738177	0.1111522	-0.08323581
1277227155575	0.8036005	11.536434	1.334794	1.8345165	0.0	-9.25	-52.875	-9.9375	0.97684366	0.11491428	-0.06954528
1277227155605	1.607201	11.304889	0.6946377	1.6330233	0.0	-8.75	-52.625	-10.1875	0.17925322	0.06075919	-0.1412223
1277227155645	-0.9942854	9.888372	-0.61291564	0.15046692	0.0	-9.0	-52.625	-11.375	0.77491456	-0.06159447	0.10021413
1277227155685	-4.630918	13.293459	0.38136974	4.2754984	0.0	-10.25	-51.625	-13.875	1.1280762	0.0270851	0.33521363
1277227155725	-2.5333846	17.393185	1.1168685	7.8055134	0.0	-12.1875	-50.125	-16.8125	0.9515895	0.06345719	0.14463677
1277227155765	0.6537767	12.108489	3.568531	2.8336563	0.0	-14.6875	-48.625	-20.25	1.1427665	0.286205	-0.053940877
1277227155805	1.920469	8.499097	2.2609777	-0.80471325	0.0	-16.4375	-46.1875	-23.6875	0.5004581	0.25388435	-0.22222947
1277227155845	1.1441092	6.5513873	1.56634	-2.9741478	0.0	-17.4375	-44.1875	-26.9375	0.5518625	0.2313054	-0.17289265
1277227155875	-0.8036005	6.2108784	1.2666923	-3.417183	0.0	-17.1875	-41.9375	-30.125	0.80142623	0.19956902	0.12867112
