#timestamp	accel_x	accel_y	accel_z	accel_mag	temperature	mag_x	mag_y	mag_z	azimuth	pitch	roll
1276888244450	2.6832085	2.6014864	9.275456	0.19342136	0.0	-26.5	-6.625	-36.0625	2.1236455	1.1877732	-0.8008608
1276888244480	2.7921712	2.4925237	9.043911	-0.018839836	0.0	-26.0	-5.375	-36.5625	2.0696046	1.1784052	-0.8420386
1276888244510	2.7240696	2.4925237	8.921328	-0.15142727	0.0	-26.75	-4.125	-36.5625	1.9974924	1.1783854	-0.8297555
1276888244540	2.7649305	2.4516625	9.084772	9.2697144E-4	0.0	-27.5	-3.625	-36.3125	2.0261288	1.1844751	-0.84537834
1276888244570	2.9556155	2.5606253	9.466142	0.4354353	0.0	-28.0	-3.875	-36.3125	2.0517893	1.1790394	-0.85688114
1276888244610	3.1054392	2.4108016	9.152874	0.15481663	0.0	-29.0	-3.875	-35.8125	2.1243036	1.1651002	-0.9106647
1276888244650	3.255263	2.2609777	8.812365	-0.14401436	0.0	-29.0	-3.4375	-35.5625	2.1474702	1.148144	-0.9637302
1276888244682	3.173541	2.3018389	8.894087	-0.0868454	0.0	-29.25	-2.9375	-35.5625	2.1123435	1.1556268	-0.9432772
1276888244720	2.9147544	2.152015	9.343558	0.2147789	0.0	-29.5	-2.6875	-35.375	2.1847508	1.2008809	-0.93481386
1276888244762	2.7240696	2.1792557	9.466142	0.28183556	0.0	-29.25	-2.6875	-35.8125	2.1519437	1.2177144	-0.89605534
1276888244800	2.3699405	1.8387469	8.689782	-0.6137228	0.0	-29.5	-2.4375	-36.0625	2.1966023	1.2384158	-0.9109479
1276888244840	2.152015	2.7649305	9.193735	0.03208828	0.0	-29.0	-2.9375	-36.3125	1.8427691	1.2066902	-0.66138417
1276888244870	1.5390993	3.3778462	9.765789	0.6408043	0.0	-28.5	-3.625	-36.5625	1.6173773	1.207563	-0.4275385
1276888244911	1.5390993	2.982856	9.724928	0.48123074	0.0	-28.25	-4.875	-36.5625	1.7613429	1.2384518	-0.47635108
1276888244950	2.7921712	2.7649305	9.112013	0.11654663	0.0	-27.0	-6.125	-37.0625	2.0109587	1.163648	-0.79030013
1276888244980	1.6889231	2.4925237	8.008764	-1.2506323	0.0	-26.0	-6.875	-37.5625	1.8860078	1.2111995	-0.5955307
1276888245020	-0.0	3.2961242	9.80665	0.53911304	0.0	-25.5	-7.375	-37.5625	1.3780586	1.2465479	0.0
1276888245060	0.19068487	4.099725	9.956474	0.9625406	0.0	-23.8125	-8.375	-38.0625	1.3298929	1.1798089	-0.04647813
1276888245100	0.6946377	3.1463003	8.771504	-0.4620781	0.0	-22.3125	-10.375	-38.5625	1.6080368	1.2187636	-0.21729341
1276888245141	-0.5720546	3.8681788	8.076866	-0.8330326	0.0	-20.8125	-12.3125	-39.3125	1.1921345	1.1199255	0.14682312
1276888245180	-0.6537767	3.445948	9.724928	0.53144455	0.0	-19.8125	-13.5625	-40.0	1.3685232	1.2246543	0.1874949
1276888245210	-0.08172209	2.982856	9.575105	0.22264385	0.0	-19.3125	-14.0625	-39.5	1.629812	1.2686962	0.027390411
1276888245250	0.46309182	2.6423476	8.894087	-0.51680374	0.0	-19.5625	-14.5625	-39.5	1.8911816	1.2778552	-0.17349572
1276888245292	0.46309182	3.1054392	8.921328	-0.34893894	0.0	-20.0625	-14.8125	-38.8125	1.7787424	1.2323936	-0.14803195
1276888245330	0.10896278	3.8681788	9.724928	0.65991116	0.0	-20.0625	-16.0625	-38.0625	1.6406132	1.1920869	-0.028161567
1276888245360	-0.14982383	4.2904096	9.112013	0.26602745	0.0	-19.8125	-17.0625	-38.5625	1.4907928	1.1305029	0.03490645
1276888245403	0.040861044	4.1814466	8.499097	-0.33454323	0.0	-19.3125	-18.0	-38.0625	1.5455137	1.1135607	-0.009771677
1276888245452	-0.040861044	3.9090397	9.384419	0.35945034	0.0	-19.0625	-19.0	-38.0625	1.7109765	1.1760888	0.010452581
1276888245490	-0.0	3.7864566	9.275456	0.21190071	0.0	-19.0625	-19.5	-38.5625	1.7513227	1.1832209	0.0
1276888245520	-0.040861044	3.8681788	9.084772	0.067435265	0.0	-19.3125	-19.75	-37.8125	1.7317197	1.1682392	0.010562988
1276888245561	0.040861044	3.9499009	8.853226	-0.11216736	0.0	-19.5625	-19.75	-37.8125	1.7151029	1.1511256	-0.01034446
1276888245601	-0.23154591	3.9499009	8.853226	-0.10948849	0.0	-19.5625	-20.0	-37.3125	1.6651334	1.1505067	0.05855368
1276888245641	-0.38136974	4.140586	9.043911	0.14735508	0.0	-19.5625	-19.75	-36.8125	1.611198	1.1398481	0.09184612
1276888245680	0.10896278	3.7864566	8.430995	-0.5637722	0.0	-19.8125	-19.75	-36.5625	1.7529444	1.1485269	-0.028769039
1276888245720	0.7627395	3.990762	7.273266	-1.475483	0.0	-20.5625	-19.75	-36.0625	1.7341837	1.0613585	-0.18884875
1276888245760	0.50395286	3.718355	8.349273	-0.652936	0.0	-21.0625	-19.75	-36.5625	1.8611252	1.1484228	-0.13471033
1276888245790	-0.14982383	4.2904096	9.152874	0.30300713	0.0	-21.5625	-19.75	-36.5625	1.6454166	1.1322255	0.03490645
1276888245820	-0.29964766	5.09401	9.193735	0.7082672	0.0	-21.8125	-19.75	-37.0625	1.4895502	1.0640981	0.058755826
1276888245860	-0.6946377	5.325556	8.894087	0.5831928	0.0	-21.0625	-19.0	-37.5625	1.3345127	1.027553	0.12970254
1276888245904	-0.14982383	3.5957718	9.152874	0.028345108	0.0	-21.0625	-17.8125	-37.0625	1.6707346	1.1961673	0.04164258
1276888245957	0.3405087	3.0645783	9.302697	-0.006254196	0.0	-20.8125	-17.8125	-37.3125	1.940177	1.250736	-0.11065722
1276888246000	-0.42223078	3.5276701	8.281172	-0.795516	0.0	-20.5625	-17.5625	-37.3125	1.5294213	1.1655195	0.11912441
1276888246041	-0.5720546	3.486809	8.240311	-0.8407259	0.0	-21.0625	-17.3125	-37.3125	1.4804364	1.1657137	0.16261384
1276888246105	-0.95342433	3.445948	8.390134	-0.6864567	0.0	-20.3125	-17.3125	-37.8125	1.3886267	1.1679564	0.26992726
1276888246182	-1.2666923	3.3778462	7.668256	-1.3321886	0.0	-19.8125	-16.5625	-38.0625	1.236428	1.1310657	0.35877067
1276888246220	-1.2666923	3.5957718	7.5865335	-1.3160925	0.0	-18.5625	-15.8125	-38.8125	1.1712277	1.1051375	0.33869806
1276888246260	0.5720546	4.7535014	7.504812	-0.90467167	0.0	-17.625	-15.8125	-39.3125	1.1964185	1.002929	-0.11976788
1276888246300	0.5720546	3.1463003	8.240311	-0.96757984	0.0	-17.625	-16.0625	-39.5	1.8004062	1.2006099	-0.17985353
1276888246330	-0.46309182	3.759216	9.697687	0.6044636	0.0	-17.375	-15.5625	-39.75	1.4639956	1.1984451	0.12257087
1276888246361	-0.29964766	4.671779	9.765789	1.0232134	0.0	-17.375	-15.0625	-39.75	1.3229986	1.1237924	0.0640522
1276888246401	-0.27240697	4.372132	9.888372	1.0086002	0.0	-16.875	-14.0625	-39.3125	1.3460547	1.1537739	0.06222486
1276888246440	-0.14982383	4.372132	10.269742	1.3560371	0.0	-16.125	-12.0625	-40.0	1.2718879	1.1680965	0.03425451
1276888246529	-0.10896278	2.2201166	9.765789	0.20890903	0.0	-13.875	-9.375	-40.25	1.5382742	1.3469992	0.049040403
1276888246580	-1.7297841	1.879608	11.727119	2.1954498	0.0	-10.6875	-6.125	-40.5	0.81647664	1.3563247	0.7439125
1276888246640	-0.9125633	1.920469	9.384419	-0.18436813	0.0	-7.1875	-3.1875	-41.25	0.70083463	1.3479849	0.44359297
1276888246680	-0.9942854	2.1792557	9.152874	-0.3455267	0.0	-3.6875	-1.1875	-41.0	0.34178466	1.3148311	0.42803925
1276888246710	-1.607201	2.3018389	9.575105	0.17153549	0.0	-1.0	-0.6875	-41.5	0.10348297	1.2855908	0.60953355
1276888246740	-1.8387469	2.4108016	9.888372	0.5361185	0.0	0.25	-0.9375	-41.75	0.032477133	1.2732757	0.6515871
1276888246770	-1.3756552	2.7240696	9.615966	0.28194618	0.0	1.0	-0.4375	-42.25	-0.057991005	1.2634906	0.4676396
1276888246800	-1.6480621	2.7921712	9.615966	0.34121323	0.0	2.0	-0.1875	-41.75	-0.13233651	1.2455914	0.533215
1276888246840	-1.7297841	2.6832085	9.615966	0.32540607	0.0	2.5	0.3125	-41.25	-0.18759741	1.2502506	0.5726192
1276888246874	-1.3756552	2.6832085	9.888372	0.53123856	0.0	3.0	0.8125	-40.25	-0.2668307	1.2748191	0.4737483
1276888246910	-1.334794	2.6014864	10.419566	1.0153999	0.0	3.0	0.3125	-39.3125	-0.2857542	1.297213	0.4740639
1276888246940	-1.2666923	2.4925237	9.847511	0.43008137	0.0	2.75	0.3125	-39.5	-0.25722486	1.2941545	0.47018343
1276888246970	-1.1168685	2.4108016	9.275456	-0.15815544	0.0	2.0	0.0625	-39.75	-0.17869654	1.2918175	0.43383992
1276888247000	-1.1168685	2.3018389	9.043911	-0.4078102	0.0	1.75	-0.1875	-40.5	-0.14633174	1.2951039	0.4517434
1276888247044	-1.1849703	2.3426998	9.112013	-0.3239727	0.0	1.75	0.0625	-41.0	-0.14824273	1.2902758	0.46828794
1276888247080	-1.2666923	2.6014864	8.921328	-0.42782688	0.0	1.25	0.0625	-41.25	-0.093632855	1.2571678	0.4531217
1276888247128	-0.84446156	2.9147544	8.240311	-1.0253277	0.0	1.25	0.3125	-41.25	-0.09036285	1.2179433	0.28199878
1276888247168	-0.53119355	2.8330324	8.471856	-0.8578749	0.0	0.75	0.3125	-41.5	-0.058684625	1.2428496	0.18534796
1276888247200	-0.61291564	2.7921712	8.076866	-1.2388239	0.0	1.5	-0.1875	-41.75	-0.10551648	1.2306243	0.21608497
1276888247241	-0.14982383	2.9147544	7.43671	-1.8177271	0.0	2.5	-0.4375	-41.75	-0.16645968	1.1968079	0.051356673
1276888247280	0.53119355	2.4516625	6.851035	-2.510795	0.0	3.25	-0.6875	-42.0	-0.2258677	1.2198017	-0.21336864
1276888247320	-0.61291564	2.2609777	6.4015636	-2.9899278	0.0	4.9375	-0.6875	-41.75	-0.35131794	1.2199932	0.2647222
1276888247360	-2.7921712	2.6014864	7.8180795	-1.1068621	0.0	5.6875	-0.9375	-41.25	-0.22755042	1.1166861	0.82073694
1276888247400	-3.3642259	1.9885708	8.689782	-0.2785473	0.0	6.9375	-0.4375	-41.25	-0.2728564	1.1481726	1.0369518
1276888247440	-4.903325	1.4165162	7.504812	-0.73078537	0.0	9.1875	-0.4375	-41.25	-0.13399339	0.97356844	1.2895641
1276888247470	-7.082581	2.4516625	10.760075	3.306427	0.0	10.875	-0.4375	-41.0	-0.20816882	0.9623912	1.237552
1276888247510	-7.8180795	2.9556155	12.571581	5.289796	0.0	13.125	0.5625	-41.5	-0.38051343	0.9840582	1.2093554
1276888247550	-6.3607025	1.879608	10.460427	2.5793095	0.0	15.625	0.8125	-42.0	-0.47884557	1.0057039	1.2834702
1276888247590	-6.0474343	1.9885708	8.471856	0.79043484	0.0	17.625	1.0625	-42.0	-0.4935402	0.92638177	1.2531053
1276888247630	-6.2789803	2.982856	10.079058	2.4371414	0.0	19.5625	1.3125	-43.5	-0.7341752	0.9670199	1.1273037
1276888247670	-5.47538	2.982856	9.575105	1.6196289	0.0	21.0625	1.3125	-44.4375	-0.8803619	0.9935888	1.0719726
1276888247710	-4.7943625	2.8738933	7.5456724	-0.41610432	0.0	21.3125	0.8125	-45.6875	-0.7369335	0.9332174	1.0307947
1276888247750	-4.399372	3.3778462	6.851035	-0.99183273	0.0	20.0625	-0.1875	-47.4375	-0.6066447	0.89023244	0.915999
1276888247790	-3.445948	4.140586	7.3549876	-0.68991566	0.0	18.5625	-1.4375	-48.125	-0.6390072	0.93864274	0.6940908
1276888247830	-4.099725	4.0180025	7.9270425	-0.01940918	0.0	17.125	-3.1875	-48.875	-0.5201564	0.9440437	0.79546493
1276888247870	-3.9499009	3.8681788	8.240311	0.11641598	0.0	16.125	-4.125	-49.125	-0.4959405	0.9798607	0.79585075
1276888247910	-3.759216	3.445948	6.932757	-1.2002935	0.0	16.375	-4.125	-49.125	-0.43785682	0.9365848	0.8288491
1276888247950	-3.486809	3.445948	7.246025	-1.0580912	0.0	16.625	-3.4375	-49.875	-0.5196704	0.9759837	0.791292
1276888247990	-4.903325	3.3778462	7.164303	-0.49108887	0.0	17.375	-1.9375	-50.125	-0.3884187	0.8773822	0.9675665
1276888248030	-5.5162406	4.2495484	7.273266	0.26250935	0.0	18.5625	-0.6875	-50.875	-0.4183111	0.8071671	0.91438514
1276888248070	-5.706926	4.2495484	8.281172	1.111476	0.0	19.5625	0.3125	-52.0625	-0.49382246	0.8609763	0.93074083
1276888248110	-5.366417	3.3778462	8.008764	0.4084654	0.0	20.3125	1.0625	-53.0625	-0.53213865	0.90110147	1.0090094
1276888248150	-4.8216033	2.7240696	8.008764	-0.06967354	0.0	20.0625	1.3125	-54.5625	-0.5695516	0.96581084	1.0565312
1276888248190	-4.399372	2.4516625	7.6273947	-0.6665039	0.0	20.0625	2.3125	-55.8125	-0.6043374	0.9872133	1.0623845
1276888248230	-4.671779	2.2201166	7.9270425	-0.34132195	0.0	20.0625	2.5625	-56.5	-0.58152235	0.9926591	1.1271696
1276888248270	-5.053149	2.6423476	7.7772183	-0.16292381	0.0	20.0625	2.8125	-56.25	-0.5331945	0.9381298	1.0889883
1276888248310	-5.243834	3.5276701	8.689782	0.93832874	0.0	20.3125	2.5625	-55.8125	-0.58440506	0.9419889	0.9786096
1276888248350	-6.1291566	4.5628166	7.5865335	0.9609566	0.0	19.3125	1.3125	-54.3125	-0.4200272	0.7818171	0.9308603
1276888248390	-5.012288	4.399372	7.273266	0.06137371	0.0	17.8125	0.8125	-52.8125	-0.44052398	0.8287008	0.85042936
1276888248430	-4.944186	4.8216033	7.9679036	0.7375574	0.0	15.875	0.0625	-51.875	-0.41263625	0.856671	0.7979498
1276888248470	-5.434519	4.5219555	8.580819	1.3114672	0.0	13.625	0.3125	-51.125	-0.34936932	0.88164675	0.8767981
1276888248510	-4.372132	4.0588636	8.812365	0.8351393	0.0	11.375	1.5625	-50.875	-0.3761059	0.97569287	0.8225378
1276888248550	-3.5957718	2.6423476	8.076866	-0.5791187	0.0	8.6875	2.5625	-50.875	-0.34914228	1.0660577	0.93706286
1276888248590	-4.2086873	1.7570249	9.466142	0.7008724	0.0	5.9375	4.25	-50.875	-0.321868	1.1218199	1.175316
1276888248630	-2.3699405	1.1441092	9.275456	-0.16508865	0.0	3.25	5.25	-50.375	-0.4374735	1.2943391	1.1210368
1276888248670	-1.9477097	0.84446156	9.507003	-0.06551075	0.0	0.25	5.5	-50.125	-0.38127866	1.3511021	1.1616923
1276888248710	-1.2258313	1.3075534	9.507003	-0.13217545	0.0	-2.75	6.0	-49.125	-0.1366721	1.3844587	0.7531513
1276888248750	-0.29964766	0.7218784	8.812365	-0.959692	0.0	-5.1875	5.25	-48.125	0.2460636	1.482334	0.39345068
1276888248790	-2.2201166	0.6537767	9.466142	-0.06169319	0.0	-7.9375	4.75	-47.6875	-0.1150591	1.3310101	1.2844127
1276888248830	-0.9942854	1.2258313	10.147159	0.4625311	0.0	-9.9375	4.5	-46.9375	0.28202033	1.4164847	0.68147945
1276888248880	0.42223078	1.1168685	7.8180795	-1.8979182	0.0	-11.375	4.25	-46.4375	1.0500662	1.4192424	-0.3614409
1276888248920	0.313268	-0.23154591	9.343558	-0.45497513	0.0	-13.375	3.75	-45.4375	-2.7226517	1.5291289	-2.2073045
1276888248960	-0.14982383	2.5333846	9.997335	0.5077667	0.0	-14.375	3.75	-44.6875	0.74087787	1.3221987	0.059070986
1276888249000	-0.61291564	3.445948	9.997335	0.785655	0.0	-14.625	3.3125	-44.4375	0.6004657	1.2340357	0.17602476
1276888249050	-0.0	2.0294318	10.147159	0.54146194	0.0	-14.625	3.0625	-44.4375	0.8953079	1.3734006	0.0
1276888249081	-0.08172209	0.53119355	9.466142	-0.32526398	0.0	-14.125	4.0	-44.1875	0.99879956	1.5140818	0.15264933
1276888249110	-0.14982383	0.38136974	10.038197	0.23990536	0.0	-14.125	4.5	-43.6875	0.80193394	1.5300008	0.37433362
1276888249140	-0.5720546	0.0	10.147159	0.3566208	0.0	-14.875	4.75	-43.0	-0.26838088	1.5144807	1.5707964
1276888249170	-0.6946377	0.3405087	9.956474	0.17983246	0.0	-15.125	4.5	-42.0	0.13852833	1.493254	1.1150225
1276888249200	0.9942854	5.434519	8.158588	0.04652977	0.0	-14.625	3.0625	-42.5	0.5540224	0.97555965	-0.18095604
1276888249241	-0.8036005	2.0294318	9.697687	0.13364697	0.0	-13.625	1.0625	-42.25	0.68150604	1.3494068	0.37703013
1276888249280	-1.6889231	3.445948	9.084772	0.05540371	0.0	-13.125	-1.1875	-42.25	0.53475904	1.1711138	0.4557113
1276888249320	-1.3075534	3.636633	9.997335	0.9116287	0.0	-13.125	-4.125	-42.25	0.7174246	1.2019308	0.34515765
1276888249360	-1.334794	3.568531	9.697687	0.6126213	0.0	-13.125	-7.375	-41.5	0.85164356	1.1964456	0.35793385
1276888249401	-1.8387469	3.9090397	9.043911	0.21601963	0.0	-12.875	-10.8125	-41.25	0.86342233	1.1251808	0.43967476
1276888249440	-1.920469	3.718355	8.730643	-0.12478638	0.0	-11.375	-13.3125	-40.25	0.956423	1.1238065	0.47674727
1276888249480	-1.3075534	4.0180025	7.43671	-1.2533646	0.0	-8.6875	-15.3125	-40.25	0.936637	1.0541011	0.3146151
1276888249520	-1.879608	4.399372	8.730643	0.1488266	0.0	-6.6875	-16.5625	-40.25	0.99096334	1.0695177	0.40377033
1276888249560	-2.1383946	4.671779	8.921328	0.4884138	0.0	-5.4375	-16.8125	-40.5	0.9289123	1.0482749	0.42926025
1276888249600	-2.4925237	4.7943625	9.152874	0.822258	0.0	-5.1875	-17.5625	-41.25	0.92302376	1.0374887	0.4794298
1276888249640	-3.1054392	4.903325	8.539958	0.5189123	0.0	-6.1875	-17.3125	-41.5	0.8037316	0.97387403	0.56456935
1276888249680	-3.0237172	5.434519	10.269742	2.1993675	0.0	-7.4375	-17.3125	-41.0	0.91864514	1.0262896	0.5077367
1276888249720	-1.1168685	5.325556	12.571581	3.8920202	0.0	-9.9375	-17.8125	-40.25	1.4326028	1.1623089	0.20672274
1276888249760	0.10896278	4.862464	9.724928	1.0666962	0.0	-12.375	-17.0625	-39.5	1.392233	1.1070482	-0.022405215
1276888249800	-1.525479	4.099725	11.536434	2.5312643	0.0	-15.375	-16.3125	-38.5625	1.355735	1.2083699	0.35621965
1276888249840	0.23154591	4.2904096	11.645397	2.6061058	0.0	-20.0625	-13.8125	-37.5625	1.6201065	1.2173338	-0.05391595
1276888249880	1.9885708	3.8273177	10.147159	1.21912	0.0	-25.0	-9.625	-35.5625	1.8221343	1.1688795	-0.47918308
1276888249920	0.46309182	1.4165162	6.2108784	-3.419477	0.0	-31.25	-3.875	-31.625	1.766348	1.3353	-0.31597027
1276888249960	1.1168685	-2.6014864	0.14982383	-6.971588	0.0	-37.6875	2.8125	-24.5	-0.95849997	0.05287139	-2.7360692
1276888250000	3.173541	-3.5957718	-1.7978859	-4.6848016	0.0	-43.125	8.75	-17.125	-0.7524054	-0.35866323	-2.418488
1276888250040	5.6660647	-2.3699405	0.6946377	-3.6257577	0.0	-47.3125	11.9375	-10.4375	-0.9714938	0.11262263	-1.9669522
1276888250080	13.021052	0.27240697	6.238119	4.6341305	0.0	-50.3125	10.6875	-5.5625	2.526584	0.44668633	-1.5498788
1276888250120	6.2789803	2.1111538	4.4810944	-1.8089776	0.0	-52.0625	8.0	-4.0625	2.3281624	0.5947477	-1.246445
1276888250160	8.771504	1.607201	6.3607025	1.1469307	0.0	-53.0625	4.25	-4.3125	2.6608703	0.61958355	-1.3895767
1276888250200	8.19945	1.334794	6.3607025	0.65619755	0.0	-53.3125	1.8125	-4.8125	2.7872682	0.6534537	-1.4094212
1276888250240	8.894087	1.2666923	6.3607025	1.2009764	0.0	-53.0625	1.3125	-5.8125	2.8100142	0.6160858	-1.4293281
1276888250280	8.662541	0.50395286	6.3198414	0.9280596	0.0	-53.3125	1.3125	-6.5	2.9739242	0.6294863	-1.5126858
1276888250320	8.539958	0.040861044	6.3198414	0.81751823	0.0	-52.5625	1.8125	-6.5	3.0624862	0.6370855	-1.5660117
1276888250360	8.158588	-0.23154591	6.851035	0.84946823	0.0	-52.5625	1.5625	-7.25	3.13909	0.698305	-1.5991694
1276888250402	7.7772183	-0.08172209	6.4424243	0.29268837	0.0	-52.5625	1.5625	-7.5	3.1052244	0.6917755	-1.5813038
1276888250440	7.4639506	-0.10896278	6.469665	0.071558	0.0	-51.8125	0.8125	-8.0	3.1395812	0.7141074	-1.5853938
1276888250480	7.205164	0.0	5.7886477	-0.56420326	0.0	-52.0625	-0.1875	-9.0	-3.1342661	0.67681235	-1.5707964
1276888250520	7.5456724	-0.08172209	6.3607025	0.06261444	0.0	-51.5625	-0.6875	-9.0	-3.094335	0.70036405	-1.5816262
1276888250560	7.5456724	-0.10896278	7.273266	0.67425823	0.0	-50.8125	-1.6875	-9.75	-3.056014	0.7669658	-1.5852357
1276888250600	7.6954966	-0.08172209	7.246025	0.7636967	0.0	-50.5625	-2.6875	-10.25	-3.0235035	0.75529706	-1.5814154
1276888250640	7.6273947	0.14982383	5.7477865	-0.2548628	0.0	-50.3125	-3.4375	-10.0	-3.0323358	0.6456902	-1.551156
1276888250680	7.4639506	0.42223078	5.7886477	-0.3516369	0.0	-50.3125	-3.875	-10.6875	-3.095843	0.6588785	-1.5142872
1276888250720	7.7363577	0.8036005	6.742072	0.48667526	0.0	-50.5625	-4.375	-10.4375	3.1071923	0.7141754	-1.4672943
1276888250760	7.43671	1.1849703	6.932757	0.42916584	0.0	-50.8125	-4.625	-10.0	3.0158613	0.74409163	-1.412784
1276888250800	7.4639506	1.6889231	6.469665	0.21430683	0.0	-50.8125	-5.375	-10.25	2.9065242	0.70182633	-1.3482664
1276888250840	8.812365	1.7570249	6.3198414	1.1790361	0.0	-50.8125	-5.875	-9.75	2.9485533	0.612946	-1.3739953
1276888250880	8.539958	1.920469	7.082581	1.4531031	0.0	-51.0625	-6.625	-10.0	2.9503253	0.6802887	-1.3495958
1276888250920	5.366417	3.336985	6.66035	-0.6254654	0.0	-51.0625	-7.125	-10.6875	2.4794898	0.8116657	-1.0144817
1276888250960	4.099725	2.7921712	6.3607025	-1.7405176	0.0	-50.3125	-7.875	-11.9375	2.4958277	0.90847856	-0.9728931
1276888251000	5.47538	3.3778462	6.742072	-0.48757458	0.0	-49.0625	-9.625	-13.9375	2.5145063	0.8088156	-1.0180318
1276888251040	7.082581	3.3778462	6.3198414	0.2687254	0.0	-47.5625	-11.5625	-15.375	2.6346724	0.67802507	-1.1257801
1276888251080	8.580819	3.5957718	7.273266	2.0026855	0.0	-46.3125	-14.0625	-16.625	2.8522246	0.6635167	-1.1739782
1276888251110	5.134871	3.5276701	8.158588	0.45852947	0.0	-45.625	-15.5625	-17.875	2.6783726	0.9186496	-0.96884674
1276888251140	5.938472	3.1463003	7.504812	0.2674179	0.0	-45.625	-16.3125	-17.625	2.8594992	0.8404799	-1.0835811
1276888251180	5.597963	3.2961242	7.3141265	-0.024111748	0.0	-45.625	-16.5625	-17.875	2.7846942	0.84454894	-1.038647
1276888251220	5.829509	3.9090397	6.851035	0.0015325546	0.0	-45.875	-16.8125	-17.625	2.6280591	0.773302	-0.98010266
1276888251260	5.5571017	3.445948	6.4015636	-0.65591526	0.0	-46.125	-16.8125	-16.625	2.7097595	0.77479315	-1.0157298
1276888251300	5.8567495	3.486809	6.66035	-0.27671814	0.0	-46.125	-16.8125	-16.125	2.7503028	0.7738407	-1.0338038
1276888251340	6.2108784	3.8681788	6.973618	0.30122566	0.0	-45.875	-17.3125	-15.125	2.7355943	0.7613776	-1.0137756
1276888251380	6.2789803	4.1814466	7.014479	0.49446678	0.0	-45.875	-17.0625	-15.125	2.657775	0.74905026	-0.9832945
1276888251420	6.1291566	4.140586	6.973618	0.35909462	0.0	-45.875	-18.25	-14.1875	2.707301	0.75596595	-0.9766651
1276888251460	6.2108784	4.3312707	7.082581	0.5614672	0.0	-46.3125	-19.5	-14.1875	2.7168427	0.75201476	-0.9618387
1276888251500	6.1291566	4.3312707	6.973618	0.43824196	0.0	-47.0625	-19.5	-14.1875	2.6944401	0.7487071	-0.9556101
1276888251540	6.238119	4.440233	6.66035	0.34175205	0.0	-47.3125	-20.5	-13.1875	2.7073784	0.7158983	-0.9522011
1276888251580	6.3607025	4.5219555	6.3198414	0.23561096	0.0	-47.5625	-20.25	-12.9375	2.670912	0.6806838	-0.9527785
1276888251620	6.5513873	4.372132	6.1291566	0.17346859	0.0	-47.5625	-20.5	-11.6875	2.7407072	0.66129154	-0.9823141
1276888251660	6.701211	4.3312707	5.829509	0.07511616	0.0	-47.5625	-21.0	-10.6875	2.7804341	0.6309669	-0.9969973
1276888251700	6.6331096	4.3312707	5.6252036	-0.090634346	0.0	-48.0625	-21.5	-10.0	2.781067	0.617455	-0.9923309
1276888251740	6.6331096	4.2086873	5.6252036	-0.14465714	0.0	-48.3125	-22.25	-9.25	2.84439	0.6214308	-1.005397
1276888251780	6.5513873	4.0180025	5.7477865	-0.20966816	0.0	-48.5625	-22.25	-9.0	2.8857648	0.6421469	-1.0206507
1276888251820	6.5513873	4.0588636	6.0201936	-0.02719307	0.0	-48.5625	-22.25	-8.75	2.8882592	0.66314185	-1.016131
1276888251860	6.6331096	4.1814466	6.4015636	0.3157339	0.0	-48.0625	-22.0	-9.0	2.879437	0.68466896	-1.0083303
1276888251903	6.510526	3.9499009	6.0474343	-0.08244705	0.0	-48.0625	-21.25	-9.75	2.875133	0.6711604	-1.0254688
1276888251950	6.4424243	3.9090397	6.0882955	-0.118885994	0.0	-47.5625	-20.5	-10.6875	2.8513138	0.67956156	-1.0254172
1276888251990	6.238119	3.255263	7.0553403	0.15772152	0.0	-47.0625	-19.5	-11.9375	2.9799306	0.78674245	-1.0898345
1276888252030	5.829509	3.173541	7.504812	0.2121687	0.0	-46.5625	-18.75	-13.6875	2.9394767	0.8466595	-1.0722685
1276888252060	6.2108784	3.445948	7.4639506	0.4967537	0.0	-45.875	-18.5	-14.875	2.9058304	0.8101868	-1.0642565
1276888252100	6.1291566	3.718355	7.3958488	0.49341297	0.0	-45.625	-18.5	-16.125	2.821522	0.800981	-1.0254893
1276888252140	5.175732	3.5276701	7.6954966	0.11571503	0.0	-45.125	-19.5	-17.125	2.8055212	0.88761884	-0.97254074
1276888252180	5.2165933	3.718355	8.349273	0.71710205	0.0	-43.875	-20.0	-17.875	2.810126	0.916332	-0.95153546
1276888252221	5.09401	3.8681788	8.158588	0.56033134	0.0	-42.875	-20.75	-18.8125	2.7836668	0.90589595	-0.9213327
1276888252260	4.2904096	3.5957718	8.117727	0.054115295	0.0	-41.625	-21.75	-19.3125	2.7822576	0.9670862	-0.87325436
1276888252300	4.7943625	3.636633	7.7772183	0.026769638	0.0	-40.875	-21.75	-20.3125	2.840235	0.91227275	-0.92186296
1276888252340	4.5219555	3.5957718	8.158588	0.19036007	0.0	-40.875	-22.25	-20.5625	2.8370106	0.954635	-0.8990009
1276888252380	4.7943625	3.636633	8.008764	0.2109003	0.0	-40.875	-22.5	-20.3125	2.8739045	0.9264179	-0.92186296
1276888252420	4.5219555	3.5957718	8.008764	0.068468094	0.0	-40.875	-22.5	-20.8125	2.83954	0.9458669	-0.8990009
1276888252460	4.630918	3.5957718	7.6273947	-0.18624878	0.0	-40.625	-23.0	-20.3125	2.870112	0.91544753	-0.9105681
1276888252500	4.7126403	3.568531	7.6273947	-0.15675163	0.0	-40.625	-22.5	-20.3125	2.8725843	0.9114811	-0.92268693
1276888252540	4.7126403	3.568531	7.9679036	0.11458397	0.0	-40.875	-22.25	-20.5625	2.8678603	0.93250704	-0.922687
1276888252581	5.09401	3.486809	8.349273	0.5768528	0.0	-41.125	-22.0	-20.3125	2.9429018	0.93414354	-0.9705544
1276888252620	4.7126403	3.5276701	7.5865335	-0.20410252	0.0	-41.375	-21.5	-20.0625	2.8361676	0.9108975	-0.9282207
1276888252660	4.903325	3.636633	7.43671	-0.18519783	0.0	-41.625	-21.75	-20.0625	2.8347883	0.8834463	-0.9326499
1276888252710	4.9850473	4.2086873	8.499097	0.9077511	0.0	-41.125	-21.75	-19.3125	2.7542975	0.9161125	-0.86964273
1276888252750	4.630918	4.372132	9.00305	1.2213068	0.0	-40.875	-22.25	-19.0625	2.7089062	0.955122	-0.81413454
1276888252790	4.7126403	4.7126403	8.308413	0.844532	0.0	-41.125	-23.0	-19.5625	2.6355915	0.8947394	-0.7853982
1276888252830	5.134871	5.175732	7.7363577	0.8237934	0.0	-41.125	-23.5	-18.625	2.587758	0.8150428	-0.7814352
1276888252870	5.366417	7.1234417	8.921328	2.8081007	0.0	-41.875	-24.0	-18.625	2.3347812	0.7855497	-0.6456392
1276888252900	4.099725	8.049625	8.471856	2.577879	0.0	-41.875	-24.5	-18.375	2.0772698	0.75332475	-0.4710649
1276888252940	4.8216033	10.651112	9.656827	5.357397	0.0	-41.625	-25.6875	-17.375	1.9979291	0.69037175	-0.42508492
1276888252980	1.6480621	15.28203	5.243834	6.4338665	0.0	-40.875	-28.4375	-15.875	1.4521639	0.32877713	-0.107427955
1276888253020	2.6014864	15.091345	11.686258	9.456919	0.0	-39.1875	-32.625	-12.4375	1.9623338	0.65184075	-0.17070499
1276888253060	1.9477097	10.56939	4.862464	1.9894991	0.0	-37.9375	-36.875	-6.75	1.9337883	0.42487594	-0.1822339
1276888253100	3.173541	7.164303	-1.1849703	-1.8818312	0.0	-36.6875	-40.3125	-0.125	1.1426878	-0.15008935	-0.4169889
1276888253140	8.19945	3.718355	-0.88532263	-0.7600517	0.0	-35.6875	-42.8125	6.25	-1.6247171	-0.09801937	-1.1450453
1276888253180	10.228881	-1.1849703	4.944186	1.6160955	0.0	-36.9375	-42.8125	11.4375	-2.0458446	0.44763744	-1.6861278
1276888253220	10.882658	-2.0294318	6.1291566	2.8471003	0.0	-38.1875	-42.0625	14.625	-2.0839138	0.50564826	-1.7551618
1276888253260	2.5606253	6.469665	3.8681788	-1.8457346	0.0	-37.9375	-42.5625	16.375	2.68894	0.5073883	-0.37687132
1276888253300	-10.501288	18.38747	0.23154591	11.369511	0.0	-36.9375	-42.8125	17.375	1.8893543	0.01093449	0.5189068
1276888253340	-6.891896	16.698545	-10.038197	10.859869	0.0	-35.1875	-44.3125	17.125	1.6030321	-0.5071897	0.39142725
1276888253380	5.938472	7.3141265	-9.275456	3.4143934	0.0	-34.4375	-45.3125	16.125	-0.06418055	-0.77759504	-0.68196595
1276888253420	10.269742	3.255263	-3.486809	1.5168724	0.0	-36.1875	-44.3125	14.4375	-1.5385717	-0.31301254	-1.2638388
1276888253460	13.021052	1.0351465	3.405087	3.6920147	0.0	-39.1875	-42.3125	11.4375	-2.0790646	0.25500846	-1.4914652
1276888253500	10.18802	2.152015	7.8589406	3.2390327	0.0	-41.125	-40.5625	9.25	-2.4368515	0.6465258	-1.3626264
1276888253540	2.070293	6.6331096	8.689782	1.3197403	0.0	-41.125	-40.5625	9.0	2.6025748	0.89627564	-0.30253407
1276888253580	-6.1700177	10.760075	8.730643	5.3614893	0.0	-38.6875	-42.8125	10.0	1.8956878	0.61332655	0.52064437
1276888253620	-9.847511	12.14935	6.0201936	6.9511223	0.0	-33.6875	-46.3125	10.9375	1.8441237	0.3674618	0.6811337
1276888253660	-8.62168	10.991621	2.6832085	4.4182835	0.0	-27.75	-49.5	11.9375	1.8644217	0.189764	0.6651478
1276888253700	-6.4015636	9.765789	1.7297841	1.9977055	0.0	-22.5625	-52.5	12.6875	1.9166778	0.14706737	0.5802383
1276888253740	-4.944186	8.19945	0.5720546	-0.21482086	0.0	-18.0625	-53.6875	13.1875	1.9122667	0.059675198	0.5426151
1276888253780	-4.5628166	8.62168	0.3405087	-0.04608631	0.0	-14.625	-54.4375	14.4375	1.9627597	0.034893252	0.48675406
1276888253820	-3.8681788	9.152874	0.6537767	0.15152931	0.0	-12.125	-54.9375	15.875	2.095722	0.06569948	0.39985225
1276888253860	-2.7921712	8.281172	0.95342433	-1.0155725	0.0	-9.9375	-55.1875	15.875	2.2334614	0.10866737	0.32520047
1276888253900	-1.4982382	8.580819	0.88532263	-1.0511389	0.0	-8.1875	-55.1875	14.875	2.4249182	0.101289146	0.17286061
1276888253930	-1.1168685	8.281172	1.5390993	-1.3099432	0.0	-8.1875	-55.6875	14.1875	2.5617101	0.1821462	0.1340595
1276888253970	-0.42223078	8.771504	2.3426998	-0.71787643	0.0	-8.6875	-55.9375	12.4375	2.7337904	0.26070058	0.048099518
1276888254010	-0.14982383	8.853226	3.1054392	-0.42337704	0.0	-9.9375	-55.6875	10.25	2.7715597	0.3373152	0.016921462
1276888254060	0.7218784	8.349273	5.2165933	0.06473827	0.0	-11.125	-55.4375	8.0	2.9703853	0.5567807	-0.08624556
1276888254100	1.0351465	7.4639506	5.829509	-0.27956963	0.0	-13.375	-53.9375	4.0625	2.9851973	0.6584458	-0.1378071
1276888254140	2.1792557	7.4639506	6.510526	0.33468437	0.0	-16.125	-52.5	-0.375	3.1197295	0.69707686	-0.2840744
1276888254180	2.6014864	7.164303	7.3141265	0.75703335	0.0	-18.5625	-50.25	-4.8125	3.1327624	0.76478803	-0.348313
1276888254220	3.405087	6.5922484	7.246025	0.5643301	0.0	-23.0625	-47.25	-9.25	-3.1019676	0.7735547	-0.47678316
1276888254260	4.2495484	4.630918	8.19945	0.5246153	0.0	-27.25	-43.8125	-13.1875	-2.8535867	0.91679174	-0.7424798
1276888254300	5.134871	3.173541	9.507003	1.4548492	0.0	-30.25	-39.3125	-16.875	-2.6144004	1.0050784	-1.0172197
1276888254340	5.012288	2.7649305	12.067628	3.5498276	0.0	-32.4375	-35.125	-20.3125	-2.7044134	1.1278756	-1.0667022
1276888254380	5.09401	2.7921712	10.923519	2.5654325	0.0	-33.1875	-31.6875	-23.25	-2.7445593	1.0820384	-1.0693913
1276888254420	4.8216033	2.7921712	10.079058	1.7099237	0.0	-32.4375	-29.6875	-25.25	-2.785553	1.0658046	-1.0458893
1276888254460	4.2495484	2.7921712	9.615966	1.0709267	0.0	-32.1875	-28.4375	-26.25	-2.9054503	1.0843874	-0.9894801
1276888254500	3.8273177	2.8330324	9.275456	0.61968803	0.0	-32.1875	-27.9375	-25.75	-3.0153584	1.0965078	-0.933588
1276888254540	3.568531	3.0645783	8.812365	0.18253517	0.0	-31.5	-28.1875	-25.25	-3.107667	1.0804939	-0.86122787
1276888254580	3.3778462	3.173541	8.580819	-0.0541296	0.0	-31.5	-28.4375	-25.0	3.1084654	1.0755602	-0.8165731
1276888254620	3.0237172	2.8738933	8.62168	-0.22878456	0.0	-31.5	-29.4375	-24.5	3.1286697	1.1201532	-0.81079686
1276888254650	2.7649305	2.7921712	8.471856	-0.4678383	0.0	-31.25	-29.6875	-24.75	3.0957205	1.1365001	-0.7804962
1276888254690	2.5606253	2.8330324	8.076866	-0.87252235	0.0	-31.5	-30.4375	-24.25	3.0403934	1.1291434	-0.734936
1276888254730	2.5333846	3.214402	7.9679036	-0.84908867	0.0	-31.0	-30.9375	-24.5	2.9547365	1.0962871	-0.66746455
1276888254770	2.6014864	3.636633	8.19945	-0.4672823	0.0	-30.75	-30.9375	-24.5	2.878908	1.0715525	-0.6209577
1276888254810	2.6832085	3.8681788	8.812365	0.18435478	0.0	-30.25	-31.6875	-24.5	2.8917491	1.080153	-0.60645956
1276888254850	2.7921712	4.0180025	9.084772	0.51195717	0.0	-30.0	-31.6875	-25.25	2.894783	1.0767602	-0.6073052
1276888254890	2.8330324	3.8681788	9.084772	0.4657383	0.0	-30.0	-30.6875	-25.25	2.9103844	1.0851802	-0.63213795
1276888254930	3.1054392	3.759216	9.00305	0.4320202	0.0	-30.0	-29.9375	-26.0	2.9786792	1.0744287	-0.6904464
1276888254970	3.336985	3.636633	9.112013	0.55623245	0.0	-30.75	-28.9375	-26.5	3.0155666	1.0743763	-0.7424558
1276888255010	3.445948	3.405087	9.043911	0.45305252	0.0	-31.0	-27.6875	-27.0	3.053963	1.0790261	-0.7913623
1276888255050	3.568531	3.1054392	9.043911	0.399745	0.0	-31.75	-27.6875	-27.1875	-3.1398315	1.0888671	-0.8546749
1276888255080	3.6774938	2.982856	9.084772	0.43807888	0.0	-32.4375	-26.9375	-26.75	-3.1221328	1.0903208	-0.889317
1276888255120	3.7864566	2.9556155	9.112013	0.49391747	0.0	-32.4375	-26.4375	-26.5	-3.105872	1.0856627	-0.9080123
1276888255162	3.8273177	2.7649305	9.112013	0.45599937	0.0	-32.9375	-25.9375	-26.0	-3.0728557	1.0927191	-0.94518137
1276888255200	3.6774938	2.5333846	9.00305	0.24307156	0.0	-33.4375	-25.4375	-25.75	-3.0660803	1.1103419	-0.9675665
1276888255240	3.6774938	2.5333846	8.894087	0.14557457	0.0	-33.9375	-25.1875	-25.5	-3.085039	1.1054769	-0.9675665
1276888255280	3.6774938	2.5606253	8.689782	-0.029479027	0.0	-34.4375	-24.75	-25.75	-3.1171453	1.0946827	-0.9625604
1276888255320	3.636633	2.6014864	8.812365	0.07518101	0.0	-34.6875	-24.5	-25.75	3.1318557	1.1012518	-0.9498386
1276888255360	3.568531	2.6014864	8.812365	0.050322533	0.0	-34.4375	-24.0	-25.75	3.1072333	1.1062467	-0.94086623
1276888255390	3.568531	2.6014864	8.730643	-0.022669792	0.0	-34.4375	-24.5	-26.0	3.1227677	1.1025046	-0.94086623
1276888255430	3.5957718	2.7240696	8.730643	0.020569801	0.0	-34.9375	-24.5	-25.75	3.081486	1.0938792	-0.9224643
1276888255470	3.6774938	2.9147544	8.853226	0.21329784	0.0	-35.4375	-24.5	-26.0	3.0330825	1.0834103	-0.9005884
1276888255510	3.636633	2.9147544	8.62168	-0.0059223175	0.0	-35.4375	-24.5	-25.75	3.0229952	1.0752265	-0.89514256
1276888255550	3.5957718	2.8330324	8.853226	0.16005707	0.0	-35.4375	-23.75	-25.5	3.0165913	1.0935866	-0.9034902
1276888255590	3.5276701	2.6832085	9.084772	0.30162144	0.0	-35.4375	-23.5	-25.75	3.039531	1.116902	-0.92053443
1276888255630	3.568531	2.7649305	8.853226	0.1310997	0.0	-35.4375	-23.5	-25.5	3.0227342	1.0992529	-0.91160554
1276888255662	3.336985	2.6832085	8.539958	-0.25332832	0.0	-35.6875	-23.5	-25.25	2.991134	1.1060281	-0.8935715
1276888255700	3.3778462	2.6014864	8.730643	-0.0905962	0.0	-35.4375	-23.0	-25.75	3.0141442	1.1165206	-0.9145164
1276888255740	3.3778462	2.4925237	9.043911	0.16404915	0.0	-35.1875	-22.75	-25.75	3.0463972	1.1362208	-0.9350822
1276888255780	3.445948	2.4925237	9.193735	0.32310772	0.0	-34.9375	-22.0	-26.25	3.0414376	1.137524	-0.9445901
1276888255820	3.486809	2.5333846	9.00305	0.17487144	0.0	-35.1875	-21.5	-27.0	3.0128908	1.1243142	-0.94246477
1276888255860	3.445948	2.5606253	9.043911	0.20452785	0.0	-35.1875	-21.25	-27.0	2.9879704	1.1275901	-0.93173677
1276888255900	3.5276701	2.5606253	8.962189	0.15939617	0.0	-34.9375	-21.0	-26.75	3.0003726	1.1181028	-0.94291896
1276888255930	3.6774938	2.5606253	8.894087	0.15254402	0.0	-35.4375	-20.75	-26.5	3.0115886	1.1040851	-0.9625604
1276888255970	3.718355	2.6014864	8.962189	0.23898125	0.0	-35.1875	-20.25	-26.25	2.9948735	1.1020777	-0.96031624
1276888256010	3.7864566	2.5333846	9.043911	0.31993008	0.0	-35.9375	-20.25	-26.5	3.0151558	1.1041595	-0.98113537
1276888256050	3.7864566	2.4925237	9.112013	0.37071228	0.0	-36.1875	-19.75	-27.0	3.0050955	1.1091528	-0.98862696
1276888256080	3.718355	2.4925237	9.084772	0.32112885	0.0	-35.9375	-19.5	-27.1875	2.9872112	1.1129698	-0.98026204
1276888256120	3.636633	2.4925237	8.962189	0.1812725	0.0	-35.9375	-19.5	-27.4375	2.9696946	1.1136202	-0.96994096
1276888256150	3.636633	2.4516625	8.812365	0.036800385	0.0	-35.4375	-19.5	-27.4375	2.9900563	1.1089956	-0.9776258
1276888256190	3.6774938	2.5333846	8.730643	-2.1743774E-4	0.0	-35.6875	-19.75	-27.4375	2.9747777	1.0979983	-0.96756643
1276888256230	3.718355	2.4925237	8.812365	0.07750893	0.0	-35.4375	-20.25	-27.4375	3.0202315	1.1007878	-0.98026204
1276888256270	3.636633	2.5606253	8.730643	-0.008383751	0.0	-35.9375	-19.75	-27.4375	2.9535005	1.0996304	-0.9573107
1276888256310	3.636633	2.6014864	8.894087	0.14812851	0.0	-36.1875	-19.5	-27.6875	2.928406	1.1049662	-0.94983864
1276888256350	3.636633	2.5606253	8.921328	0.16189957	0.0	-35.9375	-19.75	-27.6875	2.9554846	1.1083133	-0.95731074
1276888256390	3.718355	2.7240696	8.853226	0.17464828	0.0	-35.6875	-19.5	-27.6875	2.9123433	1.090767	-0.93852407
1276888256430	3.7864566	2.7921712	9.043911	0.38775063	0.0	-34.9375	-19.5	-27.4375	2.92167	1.0911213	-0.93540156
1276888256470	3.718355	2.7240696	9.425281	0.6853771	0.0	-34.1875	-19.5	-27.1875	2.950961	1.1159484	-0.938524
1276888256510	3.445948	2.6014864	9.534244	0.6596813	0.0	-34.1875	-19.25	-27.0	2.9292483	1.1455669	-0.92414063
1276888256550	3.336985	2.8330324	8.771504	-0.0035467148	0.0	-34.1875	-19.0	-26.75	2.8125095	1.1079116	-0.86689496
1276888256590	3.214402	2.8738933	8.390134	-0.37341118	0.0	-34.6875	-19.75	-26.75	2.7841432	1.0960798	-0.84126836
1276888256630	3.1054392	2.6014864	8.349273	-0.52646446	0.0	-34.9375	-20.0	-26.75	2.853489	1.1190546	-0.87347513
1276888256660	3.214402	2.5606253	8.580819	-0.29246902	0.0	-34.6875	-20.25	-27.1875	2.9064822	1.1241431	-0.89812577
1276888256700	3.405087	2.5606253	8.894087	0.055205345	0.0	-34.9375	-20.75	-27.6875	2.9631145	1.1240729	-0.9260165
1276888256740	3.5957718	2.5333846	9.084772	0.2869463	0.0	-34.6875	-20.5	-27.9375	3.008083	1.1198913	-0.9570263
1276888256780	3.6774938	2.7649305	9.152874	0.43756294	0.0	-34.6875	-20.75	-27.4375	2.962929	1.1050079	-0.92611104
1276888256810	3.636633	2.8738933	9.084772	0.39224434	0.0	-35.1875	-20.75	-27.4375	2.910971	1.0990157	-0.9020214
1276888256860	3.1463003	2.8330324	8.962189	0.10526657	0.0	-35.1875	-21.0	-27.0	2.8319461	1.1294637	-0.8377421
1276888256900	3.1054392	2.6423476	8.430995	-0.44142532	0.0	-35.4375	-21.25	-26.5	2.8783143	1.1203315	-0.86579317
1276888256940	2.9556155	2.6014864	7.9270425	-0.9555826	0.0	-35.1875	-22.0	-27.1875	2.8741703	1.1097848	-0.8490376
1276888256980	3.173541	2.6014864	7.8861814	-0.91671467	0.0	-34.9375	-22.5	-27.0	2.9475255	1.0910044	-0.8841326
1276888257020	3.1054392	2.7649305	7.5456724	-1.1912127	0.0	-34.6875	-22.75	-27.4375	2.8800757	1.0671562	-0.8433379
1276888257060	2.8738933	2.6423476	8.008764	-0.8970165	0.0	-34.1875	-23.75	-28.1875	2.9166722	1.1172253	-0.82734877
1276888257100	2.6014864	2.8330324	9.193735	0.1592207	0.0	-33.4375	-23.5	-28.6875	2.8146942	1.174565	-0.7428174
1276888257141	2.2609777	2.9147544	11.032481	1.826211	0.0	-31.5	-23.0	-29.6875	2.7499263	1.2481176	-0.65974784
1276888257180	2.1111538	2.5606253	11.563675	2.2238264	0.0	-29.25	-22.5	-30.4375	2.8360786	1.2913141	-0.6894835
1276888257221	1.879608	2.3699405	10.882658	1.4885607	0.0	-28.0	-21.75	-31.1875	2.8145657	1.2996907	-0.6705216
1276888257260	1.1168685	2.7649305	10.228881	0.84803104	0.0	-26.75	-21.5	-31.875	2.4403312	1.287132	-0.38389906
1276888257300	1.0351465	2.7649305	9.615966	0.2523346	0.0	-27.25	-22.25	-31.375	2.412726	1.2729063	-0.35823074
1276888257330	1.2666923	2.4925237	8.921328	-0.45746422	0.0	-27.75	-23.25	-31.1875	2.5774066	1.2670937	-0.4701834
1276888257370	1.3756552	2.4925237	8.349273	-0.985343	0.0	-27.75	-23.5	-30.9375	2.6134653	1.2421783	-0.5043104
1276888257400	1.3756552	2.6014864	8.19945	-1.0950985	0.0	-29.0	-24.25	-30.1875	2.5802007	1.2262114	-0.486418
1276888257430	1.6480621	2.8738933	8.499097	-0.68469715	0.0	-29.0	-24.75	-30.1875	2.6225219	1.1991177	-0.520676
1276888257470	1.9477097	3.0237172	9.152874	0.027552605	0.0	-29.25	-24.9375	-29.9375	2.6975868	1.1963724	-0.57224756
1276888257510	1.7978859	3.0237172	9.615966	0.43259048	0.0	-29.25	-25.4375	-29.6875	2.6794403	1.2200857	-0.5364355
1276888257550	1.7978859	3.1054392	9.915613	0.7382784	0.0	-28.75	-25.1875	-29.6875	2.6682596	1.2235711	-0.5247958
1276888257590	1.7978859	3.0237172	9.956474	0.7530203	0.0	-29.0	-24.75	-30.1875	2.6683383	1.2311646	-0.5364355
1276888257630	1.8387469	2.8330324	9.724928	0.48807144	0.0	-29.0	-24.0	-30.4375	2.7020645	1.236532	-0.575699
1276888257670	1.9477097	2.6832085	9.275456	0.043592453	0.0	-29.25	-24.0	-30.4375	2.7652543	1.2274919	-0.62789017
1276888257710	2.1111538	2.5333846	8.812365	-0.39746475	0.0	-29.5	-24.25	-30.1875	2.8586943	1.2127134	-0.69473827
1276888257750	2.2201166	2.5333846	8.689782	-0.4868183	0.0	-29.75	-24.25	-29.9375	2.8860626	1.2009887	-0.7195908
1276888257790	2.2609777	2.5333846	8.853226	-0.32457924	0.0	-30.25	-24.25	-29.6875	2.8908029	1.2045568	-0.72864103
1276888257830	2.3018389	2.6014864	9.043911	-0.1185894	0.0	-30.0	-24.25	-29.9375	2.8888898	1.2040834	-0.72436297
1276888257870	2.3699405	2.6832085	9.152874	0.021438599	0.0	-29.75	-23.5	-30.1875	2.8650274	1.1979586	-0.7234828
1276888257913	2.4925237	2.6423476	9.343558	0.21815681	0.0	-29.5	-23.25	-29.9375	2.9141097	1.2000128	-0.7562287
1276888257950	2.6014864	2.6832085	9.384419	0.29457092	0.0	-29.0	-23.25	-29.9375	2.9442172	1.1918046	-0.7699355
1276888257990	2.6014864	2.7240696	9.302697	0.22970676	0.0	-29.25	-23.0	-29.6875	2.9164164	1.1860663	-0.7623843
1276888258030	2.5333846	2.6014864	9.302697	0.17963791	0.0	-29.75	-23.25	-29.1875	2.9344916	1.1986445	-0.7721363
1276888258070	2.5606253	2.5333846	9.466142	0.321661	0.0	-29.75	-23.25	-29.6875	2.9639993	1.2071946	-0.79074574
1276888258110	2.6423476	2.4925237	9.343558	0.21815681	0.0	-30.0	-22.75	-29.9375	2.975251	1.2000128	-0.8145676
1276888258150	2.6423476	2.5333846	9.234595	0.12701893	0.0	-30.25	-22.5	-30.4375	2.9449255	1.1933961	-0.8064477
1276888258190	2.6832085	2.5333846	9.152874	0.06212616	0.0	-30.25	-22.0	-30.6875	2.9364922	1.1875559	-0.8141109
1276888258230	2.6014864	2.6014864	9.193735	0.09588623	0.0	-30.75	-22.0	-30.4375	2.8822691	1.1901435	-0.7853982
1276888258270	2.4925237	2.6014864	9.302697	0.16935062	0.0	-31.25	-22.25	-30.1875	2.8539405	1.2012953	-0.7640111
1276888258310	2.5333846	2.6014864	9.384419	0.25580978	0.0	-31.25	-22.0	-29.9375	2.8588343	1.2015977	-0.77213633
1276888258350	2.4925237	2.5606253	9.193735	0.05713463	0.0	-31.25	-22.25	-29.9375	2.8662856	1.2000847	-0.7719219
1276888258390	2.4516625	2.5333846	9.193735	0.039844513	0.0	-31.0	-21.75	-29.6875	2.8530579	1.2046288	-0.76900625
1276888258430	2.5333846	2.4516625	9.234595	0.078006744	0.0	-31.0	-21.75	-29.9375	2.9019644	1.2061088	-0.8017901
1276888258470	2.4925237	2.4108016	9.152874	-0.01891613	0.0	-31.0	-21.5	-29.9375	2.8948345	1.2086462	-0.8020633
1276888258510	2.5333846	2.4516625	9.152874	0.0017032623	0.0	-31.0	-21.5	-30.4375	2.890372	1.2031372	-0.8017902
1276888258550	2.4925237	2.4925237	9.275456	0.11602306	0.0	-30.75	-21.75	-30.4375	2.881242	1.2076223	-0.7853982
1276888258590	2.4925237	2.4516625	9.343558	0.1695919	0.0	-31.0	-21.5	-30.6875	2.881257	1.2127434	-0.7936625
1276888258630	2.4516625	2.4925237	9.343558	0.1695919	0.0	-30.75	-21.75	-30.4375	2.8710485	1.2127434	-0.7771339
1276888258660	2.4108016	2.4925237	9.275456	0.09581089	0.0	-31.0	-22.25	-29.9375	2.8722618	1.2130316	-0.7687331
1276888258700	2.4108016	2.5606253	9.384419	0.2151308	0.0	-30.75	-22.25	-30.1875	2.8560944	1.212234	-0.7552703
1276888258740	2.4516625	2.4925237	9.343558	0.1695919	0.0	-30.25	-22.25	-29.9375	2.9002912	1.2127434	-0.7771339
1276888258780	2.4108016	2.4108016	9.234595	0.037215233	0.0	-30.5	-22.5	-30.1875	2.9164684	1.2171224	-0.7853982
1276888258820	2.4108016	2.4516625	9.084772	-0.09296417	0.0	-30.0	-21.75	-30.1875	2.8858979	1.2089784	-0.776995
1276888258860	2.4108016	2.5333846	9.112013	-0.04658985	0.0	-30.25	-22.25	-30.4375	2.8699872	1.2043376	-0.76060987
1276888258900	2.4108016	2.4108016	9.193735	-0.0011062622	0.0	-30.0	-22.75	-30.4375	2.9344144	1.2156793	-0.7853982
1276888258930	2.4925237	2.3699405	9.384419	0.18817997	0.0	-30.25	-22.25	-30.4375	2.9513273	1.2194998	-0.8106029
1276888258970	2.4925237	2.3426998	9.343558	0.14337444	0.0	-30.5	-23.0	-30.4375	2.9791675	1.2198528	-0.8163742
1276888259010	2.5606253	2.3426998	9.302697	0.122359276	0.0	-31.0	-22.75	-29.6875	2.9802585	1.213715	-0.82981336
1276888259050	2.6423476	2.3699405	9.534244	0.36686516	0.0	-31.5	-22.5	-29.4375	2.9770114	1.2144084	-0.8396926
1276888259090	2.6014864	2.3699405	9.534244	0.35632896	0.0	-31.25	-23.0	-29.1875	2.9879034	1.2172036	-0.8319399
1276888259130	2.6014864	2.4108016	9.384419	0.22564888	0.0	-31.5	-22.75	-29.6875	2.9589715	1.2094468	-0.82342327
1276888259170	2.6014864	2.4516625	9.112013	-0.018536568	0.0	-31.5	-22.5	-29.9375	2.933548	1.1969411	-0.8150391
1276888259210	2.6423476	2.5606253	9.043911	-0.042883873	0.0	-31.25	-22.5	-29.9375	2.9128525	1.1843991	-0.8011037
1276888259250	2.6832085	2.5333846	9.234595	0.13796616	0.0	-31.0	-22.5	-29.9375	2.9406707	1.1906289	-0.81411093
1276888259290	2.6423476	2.3699405	9.425281	0.26482105	0.0	-30.75	-22.5	-29.4375	2.9920964	1.2106335	-0.8396926
1276888259330	2.6014864	2.3426998	9.466142	0.28610992	0.0	-30.75	-22.75	-29.4375	2.9985826	1.2165669	-0.8376921
1276888259370	2.6423476	2.3018389	9.343558	0.17245483	0.0	-31.25	-22.75	-28.9375	3.012063	1.2119775	-0.85416013
1276888259400	2.6423476	2.3699405	9.112013	-0.027724266	0.0	-31.75	-22.5	-28.4375	2.9701684	1.1993434	-0.8396926
1276888259430	2.6423476	2.3699405	9.00305	-0.12917519	0.0	-31.75	-22.5	-28.6875	2.9684675	1.1952567	-0.8396926
1276888259460	2.6423476	2.4108016	9.084772	-0.043092728	0.0	-31.75	-22.25	-28.4375	2.9483466	1.1957146	-0.83118826
1276888259500	2.7649305	2.4108016	9.112013	0.016057014	0.0	-31.5	-22.75	-29.1875	3.000335	1.1880643	-0.85371274
1276888259540	2.8330324	2.3699405	9.00305	-0.07538128	0.0	-31.5	-23.25	-29.4375	3.046668	1.1814755	-0.8741695
1276888259580	2.8738933	2.3699405	9.00305	-0.063406944	0.0	-32.0	-23.0	-28.9375	3.0385056	1.1784908	-0.88120776
1276888259650	2.9556155	2.4108016	9.193735	0.14686108	0.0	-32.1875	-22.25	-29.4375	3.0168614	1.1775435	-0.8865743
1276888259690	2.9556155	2.3426998	9.275456	0.20624161	0.0	-32.1875	-21.5	-29.6875	3.0142272	1.1846079	-0.9005675
1276888259730	2.9556155	2.2609777	9.275456	0.18743706	0.0	-32.4375	-21.25	-29.9375	3.027702	1.1892619	-0.9177787
1276888259770	2.9147544	2.2609777	9.343558	0.23874092	0.0	-32.9375	-21.5	-29.6875	3.0170634	1.1947771	-0.9110485
1276888259810	2.7921712	2.3699405	9.507003	0.38137913	0.0	-33.4375	-21.5	-29.4375	2.9438937	1.20309	-0.86701065
1276888259850	2.9147544	2.4516625	9.724928	0.6375189	0.0	-33.6875	-21.5	-29.4375	2.9442098	1.1975119	-0.87147933
1276888259890	2.9556155	2.4108016	9.765789	0.6775408	0.0	-33.6875	-21.5	-29.6875	2.9664268	1.1984535	-0.8865743
1276888259920	3.0237172	2.4925237	9.466142	0.43851376	0.0	-33.4375	-21.5	-29.6875	2.9574516	1.1783128	-0.88139844
1276888259950	3.1463003	2.5606253	9.384419	0.41701508	0.0	-32.6875	-21.5	-29.9375	2.9771466	1.1627843	-0.88766545
1276888259980	3.173541	2.7921712	9.575105	0.6599741	0.0	-32.6875	-21.75	-29.6875	2.9222362	1.1550685	-0.8492382
1276888260030	3.718355	3.3778462	10.419566	1.7606907	0.0	-32.4375	-21.5	-29.1875	2.8794022	1.1215497	-0.83334607
1276888260070	3.9090397	4.440233	12.176591	3.7309132	0.0	-31.75	-22.0	-29.1875	2.7243986	1.1185482	-0.72186226
1276888260100	5.2165933	5.325556	10.691973	3.2276382	0.0	-31.0	-23.5	-28.6875	2.781832	0.9619281	-0.7750627
1276888260130	5.134871	4.0588636	7.43671	0.1002121	0.0	-29.5	-25.6875	-28.9375	-2.9615476	0.8490642	-0.9019052
1276888260161	4.6036777	3.5957718	4.2086873	-2.606895	0.0	-27.5	-29.4375	-27.6875	-1.6972109	0.6243373	-0.9077082
1276888260200	3.5276701	3.8273177	-0.10896278	-4.6004333	0.0	-26.25	-33.125	-24.25	-0.12464572	-0.020930886	-0.74468
1276888260240	1.3075534	4.9850473	-0.27240697	-4.645778	0.0	-26.25	-38.375	-17.375	0.67242926	-0.052807666	-0.2565166
1276888260280	-0.10896278	2.3699405	4.399372	-4.808354	0.0	-25.5	-42.8125	-7.5	2.4487126	1.0762293	0.045944657
1276888260320	-0.10896278	5.243834	2.9147544	-3.8061948	0.0	-25.5	-46.5	-0.375	2.264356	0.5072273	0.02077623
1276888260360	4.099725	6.510526	6.891896	0.52257633	0.0	-24.8125	-49.25	3.0625	-3.007552	0.7304741	-0.5619771
1276888260400	6.973618	13.33432	14.519291	11.10376	0.0	-25.5	-47.25	0.125	3.122883	0.76752615	-0.48186418
1276888260440	4.399372	17.393185	13.143636	12.433683	0.0	-29.0	-40.0625	-8.75	2.4032252	0.6322756	-0.24774055
1276888260480	-3.214402	4.5219555	4.903325	-2.4023905	0.0	-31.75	-30.4375	-17.125	1.376004	0.72379136	0.61796635
1276888260520	-0.53119355	3.568531	9.956474	0.7833433	0.0	-35.4375	-21.25	-23.75	1.7461467	1.2231511	0.14776991
1276888260560	4.862464	4.7535014	12.340035	4.282913	0.0	-37.1875	-15.0625	-27.6875	2.4698596	1.0671489	-0.7967291
1276888260600	3.486809	4.1814466	8.62168	0.39019775	0.0	-36.6875	-13.3125	-28.9375	2.1573775	1.0075458	-0.6950586
1276888260640	2.4108016	2.7649305	6.8237944	-2.0593295	0.0	-36.9375	-13.5625	-29.6875	2.2825928	1.0775367	-0.71708363
1276888260680	2.9556155	2.9556155	9.193735	0.29266167	0.0	-36.4375	-13.3125	-29.9375	2.4471438	1.1440874	-0.7853982
1276888260720	2.9147544	3.1054392	9.888372	0.959939	0.0	-35.9375	-12.5625	-30.1875	2.3958104	1.1640966	-0.7537346
1276888260760	2.8738933	3.173541	9.234595	0.3721695	0.0	-35.6875	-12.3125	-29.9375	2.3346403	1.1366665	-0.7358891
1276888260800	3.486809	3.0237172	8.730643	0.06881523	0.0	-35.4375	-12.3125	-29.9375	2.4501224	1.0845091	-0.8564083
1276888260840	3.9090397	2.7649305	7.8180795	-0.6388912	0.0	-36.1875	-12.0625	-30.1875	2.5182757	1.0212848	-0.9551765
1276888260880	3.9499009	2.5333846	7.668256	-0.81655025	0.0	-36.1875	-11.3125	-30.4375	2.5621452	1.0216428	-1.0005052
1276888260920	3.9090397	2.5606253	7.9679036	-0.56950283	0.0	-35.9375	-11.0625	-30.6875	2.5529385	1.040374	-0.9908776
1276888260960	3.8681788	2.3426998	8.580819	-0.10708809	0.0	-35.4375	-10.625	-30.9375	2.6487567	1.0857652	-1.0262446
1276888261000	3.255263	2.6014864	9.152874	0.2501669	0.0	-34.4375	-10.125	-31.375	2.473953	1.1435648	-0.89656585
1276888261040	2.4108016	2.6832085	9.507003	0.36166668	0.0	-33.6875	-9.875	-31.875	2.3035452	1.2081555	-0.7319732
1276888261080	2.3699405	2.7240696	9.302697	0.17219448	0.0	-33.1875	-9.875	-32.125	2.270752	1.2005602	-0.7159911
1276888261120	2.9556155	2.6423476	9.043911	0.06806469	0.0	-32.6875	-9.625	-31.875	2.3823857	1.1576585	-0.84130096
1276888261160	3.173541	2.6832085	8.921328	0.03515148	0.0	-32.1875	-9.625	-32.125	2.3891828	1.134855	-0.86892426
1276888261200	2.8738933	2.6014864	9.084772	0.07060051	0.0	-32.1875	-9.875	-32.625	2.3886888	1.1674871	-0.8351084
1276888261240	3.0237172	2.5333846	9.193735	0.19763279	0.0	-32.1875	-10.125	-32.625	2.456033	1.1654856	-0.8734056
1276888261280	3.173541	2.6014864	9.384419	0.4357338	0.0	-32.0	-10.625	-33.125	2.482317	1.158577	-0.88413274
1276888261320	2.982856	2.5606253	9.384419	0.36790466	0.0	-32.1875	-10.625	-33.125	2.4662783	1.174099	-0.8614184
1276888261350	2.9147544	2.4516625	9.275456	0.22034073	0.0	-32.0	-10.125	-32.625	2.4737082	1.1811643	-0.87147933
1276888261390	2.982856	2.4108016	9.193735	0.15498447	0.0	-32.0	-9.625	-32.875	2.4702275	1.1755825	-0.8910637
1276888261430	3.0645783	2.2609777	9.193735	0.14465237	0.0	-32.1875	-9.375	-32.875	2.5299664	1.1780789	-0.93516344
1276888261470	2.7649305	2.4516625	9.152874	0.064043045	0.0	-32.4375	-9.625	-32.625	2.4181435	1.1870747	-0.84537834
1276888261510	2.3426998	2.6423476	9.507003	0.3350134	0.0	-32.1875	-10.125	-32.875	2.3049197	1.2151465	-0.7253611
1276888261550	2.5606253	2.7240696	9.302697	0.21919346	0.0	-32.0	-10.125	-32.875	2.309623	1.1886643	-0.7544802
1276888261590	3.1054392	2.5606253	9.00305	0.05516815	0.0	-32.1875	-9.875	-32.625	2.4359179	1.1503819	-0.8812573
1276888261630	3.1054392	2.5606253	8.730643	-0.19287491	0.0	-32.0	-9.625	-32.875	2.4035456	1.1388171	-0.8812573
1276888261660	2.9147544	2.5333846	8.962189	-0.047825813	0.0	-32.0	-9.375	-32.375	2.394217	1.1639357	-0.8552842
1276888261700	2.982856	2.4925237	9.112013	0.09985733	0.0	-32.6875	-9.125	-32.625	2.4133446	1.1675724	-0.87471217
1276888261740	2.982856	2.4925237	9.152874	0.13745403	0.0	-32.6875	-9.375	-32.875	2.423929	1.1691849	-0.87471217
1276888261780	3.0237172	2.4925237	9.302697	0.28769016	0.0	-32.1875	-9.375	-32.625	2.4416227	1.1721197	-0.88139844
1276888261810	3.0645783	2.4108016	9.152874	0.14215374	0.0	-32.4375	-9.375	-32.875	2.4681985	1.168074	-0.9042385
1276888261850	3.1054392	2.3699405	9.275456	0.25786495	0.0	-31.5	-9.375	-32.625	2.5015624	1.1721826	-0.9189272
1276888261890	2.9556155	2.3426998	9.302697	0.23148155	0.0	-31.25	-9.125	-32.625	2.4783196	1.18563	-0.9005675
1276888261922	2.8738933	2.3018389	9.343558	0.23624802	0.0	-31.25	-9.125	-32.625	2.4783196	1.18563	-0.9005675
1276888262000	2.9556155	2.3426998	9.384419	0.30726242	0.0	-31.75	-8.875	-32.375	2.4720519	1.1886659	-0.90056753
1276888262040	2.7921712	2.2201166	9.152874	0.016802788	0.0	-31.5	-8.875	-32.625	2.4804826	1.1991671	-0.8990369
1276888262070	2.7921712	2.152015	8.894087	-0.23940563	0.0	-31.75	-8.625	-33.125	2.4784663	1.1934328	-0.9141584
1276888262150	2.7240696	2.1792557	9.193735	0.026684761	0.0	-31.0	-7.875	-34.375	2.4205477	1.2081349	-0.89605534
1276888262190	2.8738933	2.152015	9.234595	0.101335526	0.0	-31.0	-7.375	-34.125	2.4360008	1.1999903	-0.928054
1276888262230	2.8330324	2.152015	9.302697	0.15314007	0.0	-31.0	-7.125	-33.625	2.426897	1.2055209	-0.9211697
1276888262270	2.6423476	2.070293	9.384419	0.1600666	0.0	-31.5	-7.125	-33.375	2.4366794	1.227279	-0.90619445
1276888262300	2.5606253	1.7978859	8.853226	-0.4168253	0.0	-31.75	-6.875	-32.875	2.5106134	1.2310916	-0.9586438
1276888262330	2.6423476	1.7978859	8.730643	-0.5094185	0.0	-32.0	-6.875	-33.125	2.5170608	1.2198807	-0.97333777
1276888262370	2.9556155	1.920469	8.894087	-0.23958969	0.0	-32.4375	-6.625	-33.625	2.500937	1.1934813	-0.9945831
1276888262410	3.0237172	2.070293	9.112013	0.014640808	0.0	-32.1875	-6.875	-34.125	2.4628346	1.1884226	-0.9704232
1276888262440	3.2961242	2.2201166	9.697687	0.6737356	0.0	-32.1875	-6.875	-34.125	2.4628346	1.1884226	-0.9704232
1276888262480	3.0645783	2.2609777	9.997335	0.89149857	0.0	-32.6875	-6.625	-34.125	2.4234476	1.2068297	-0.93516344
1276888262520	2.9556155	2.1111538	9.697687	0.5489168	0.0	-32.1875	-6.625	-34.125	2.4524736	1.2124294	-0.95054686
1276888262560	3.255263	1.7978859	9.112013	0.034991264	0.0	-32.4375	-6.125	-33.375	2.5804496	1.1833135	-1.066188
1276888262600	3.336985	1.7978859	8.894087	-0.13852501	0.0	-32.1875	-5.625	-34.125	2.5436192	1.1679252	-1.0766115
1276888262640	3.173541	1.8387469	9.043911	-0.047311783	0.0	-31.75	-5.125	-33.875	2.4916975	1.1855159	-1.0456623
1276888262680	2.982856	1.920469	9.275456	0.12409687	0.0	-31.75	-4.875	-33.875	2.4338539	1.2054888	-0.9987668
1276888262720	2.982856	1.7978859	9.343558	0.1649046	0.0	-32.1875	-4.625	-34.125	2.4769256	1.2140018	-1.0283648
1276888262760	2.982856	1.7570249	9.343558	0.15761852	0.0	-32.6875	-4.375	-33.125	2.4949822	1.2159687	-1.0384738
1276888262800	2.982856	1.7978859	9.234595	0.0628767	0.0	-32.6875	-4.125	-33.125	2.461588	1.2101458	-1.0283648
1276888262840	2.8738933	1.6889231	9.084772	-0.12962532	0.0	-32.9375	-3.875	-32.875	2.4810226	1.2191243	-1.0394865
1276888262880	2.8738933	1.7570249	9.425281	0.20246124	0.0	-32.6875	-3.625	-32.875	2.4535415	1.2275589	-1.0220551
1276888262922	2.8330324	1.7978859	9.615966	0.37790966	0.0	-32.4375	-3.625	-33.875	2.4277802	1.2350693	-1.0053124
1276888262960	2.8738933	1.7570249	9.575105	0.3436718	0.0	-32.4375	-4.125	-33.875	2.4710312	1.2325263	-1.0220551
1276888263000	2.9147544	1.6480621	9.507003	0.27278423	0.0	-32.6875	-4.125	-33.875	2.5214202	1.2321583	-1.0561911
1276888263040	2.7921712	1.56634	9.152874	-0.110014915	0.0	-32.4375	-4.375	-33.625	2.5416548	1.2343163	-1.0595657
1276888263080	2.9147544	1.4982382	9.084772	-0.14882469	0.0	-32.6875	-3.875	-33.125	2.5674002	1.2245828	-1.0959967
1276888263120	2.7649305	1.4165162	9.00305	-0.2826662	0.0	-33.1875	-2.9375	-32.875	2.5458086	1.2385219	-1.0973451
1276888263160	2.8738933	1.3075534	8.771504	-0.48419094	0.0	-32.9375	-2.6875	-32.875	2.5882401	1.2252787	-1.1438118
1276888263200	3.336985	1.1441092	8.662541	-0.4533577	0.0	-33.1875	-1.9375	-33.125	2.6618166	1.1840705	-1.2404989
1276888263240	3.486809	1.2666923	8.853226	-0.2075901	0.0	-33.4375	-1.6875	-32.875	2.6124544	1.1739935	-1.222339
1276888263280	3.445948	1.2666923	9.112013	0.01718998	0.0	-32.9375	-1.9375	-33.125	2.627832	1.187778	-1.2185389
1276888263320	3.445948	1.2666923	9.466142	0.34652233	0.0	-32.6875	-1.6875	-33.375	2.6253383	1.200813	-1.2185388
1276888263350	3.173541	1.2258313	9.997335	0.75368786	0.0	-32.1875	-1.9375	-33.375	2.6511052	1.2427917	-1.2021853
1276888263390	3.0237172	1.2258313	10.119919	0.8262367	0.0	-31.75	-2.1875	-33.875	2.6477344	1.2589102	-1.1856388
1276888263423	2.9556155	1.1441092	9.997335	0.68102646	0.0	-31.75	-2.4375	-34.375	2.6843622	1.2638015	-1.2014626
1276888263460	2.9147544	1.1849703	9.697687	0.38869572	0.0	-31.5	-2.9375	-34.125	2.6777976	1.2570617	-1.184663
1276888263500	2.982856	1.1168685	9.343558	0.06486988	0.0	-31.75	-2.9375	-34.125	2.7080603	1.2422633	-1.2125262
1276888263540	2.8330324	1.0760075	9.234595	-0.08751392	0.0	-31.75	-2.6875	-34.375	2.6970086	1.2537028	-1.2078173
1276888263580	2.7921712	1.0760075	9.112013	-0.21588421	0.0	-31.5	-2.4375	-34.125	2.6780837	1.2534981	-1.2029688
1276888263620	2.9147544	1.0351465	9.275456	-0.029052734	0.0	-31.75	-1.6875	-34.375	2.6773548	1.2489206	-1.2295496
1276888263660	2.6832085	1.0760075	9.466142	0.09108925	0.0	-31.75	-1.1875	-34.375	2.6181557	1.2743968	-1.1894151
1276888263700	2.8738933	1.1441092	9.466142	0.15206909	0.0	-31.75	-0.9375	-34.375	2.5905461	1.2549638	-1.1919253
1276888263740	2.9147544	1.1441092	9.302697	0.008896828	0.0	-31.75	-0.9375	-34.625	2.58623	1.2461114	-1.196752
1276888263780	2.8330324	1.1441092	9.384419	0.06261444	0.0	-31.5	-0.6875	-34.875	2.56668	1.2560444	-1.1869787
1276888263820	2.982856	1.1441092	9.425281	0.14535141	0.0	-31.0	-1.1875	-34.875	2.6002262	1.2439946	-1.2045407
1276888263860	2.7240696	1.2258313	9.507003	0.15860558	0.0	-30.5	-1.4375	-34.375	2.553186	1.2663561	-1.1479424
1276888263900	2.8330324	1.334794	9.466142	0.16408634	0.0	-30.75	-1.1875	-34.375	2.4995968	1.2512959	-1.1304908
1276888263941	2.9556155	1.3756552	9.343558	0.08931732	0.0	-30.75	-1.1875	-34.125	2.4885283	1.2350917	-1.1351787
1276888263980	2.6014864	1.2258313	9.384419	0.008527756	0.0	-31.0	-0.6875	-34.625	2.5025787	1.2734354	-1.1304497
1276888264020	2.6832085	1.2666923	9.275456	-0.0681591	0.0	-31.0	-0.6875	-34.875	2.4846587	1.2611885	-1.1297321
1276888264060	2.8330324	1.2258313	9.302697	-0.0051755905	0.0	-30.25	-0.4375	-34.875	2.4996288	1.2504042	-1.1624284
1276888264090	2.6423476	1.1849703	9.384419	0.01442337	0.0	-29.75	-0.4375	-35.125	2.499721	1.2714825	-1.1492292
1276888264130	2.7240696	1.1849703	9.507003	0.15366173	0.0	-29.0	-0.4375	-34.875	2.506344	1.26794	-1.1604862
1276888264160	2.6014864	1.2258313	9.615966	0.23014164	0.0	-28.75	0.3125	-35.125	2.436262	1.2801949	-1.1304497
1276888264200	2.6832085	1.2258313	9.575105	0.21257687	0.0	-29.0	0.3125	-35.125	2.4448736	1.271937	-1.1422583
1276888264240	2.6423476	1.2258313	9.466142	0.09751606	0.0	-29.25	0.3125	-35.375	2.4376123	1.2722794	-1.1364291
1276888264280	2.6423476	1.2666923	9.575105	0.2067976	0.0	-29.5	0.0625	-35.5625	2.434976	1.2738162	-1.1237792
1276888264320	2.6832085	1.2258313	9.466142	0.10849571	0.0	-29.5	-0.6875	-35.5625	2.4918087	1.2687014	-1.1422583
1276888264350	2.6423476	1.1441092	9.425281	0.04864788	0.0	-29.5	-0.4375	-35.375	2.5175245	1.274303	-1.1621778
1276888264390	2.6014864	1.0760075	9.425281	0.030089378	0.0	-29.5	-0.4375	-35.125	2.5513532	1.2805423	-1.1786103
1276888264423	2.5333846	1.0760075	9.615966	0.1954813	0.0	-30.0	-0.1875	-35.125	2.5432649	1.2920157	-1.1691533
1276888264460	2.4108016	0.95342433	9.656827	0.19211483	0.0	-30.25	0.3125	-35.125	2.5751467	1.308519	-1.1941924
1276888264500	2.4516625	0.95342433	9.615966	0.16262627	0.0	-30.5	0.3125	-35.375	2.5785534	1.3037709	-1.199905
1276888264540	2.4925237	0.92618364	9.384419	-0.052788734	0.0	-30.25	0.5625	-35.125	2.5782735	1.2946875	-1.2150233
1276888264580	2.4516625	0.88532263	9.425281	-0.027572632	0.0	-29.75	1.0625	-34.875	2.5716443	1.3009844	-1.2242575
1276888264620	2.4516625	0.95342433	9.575105	0.12321949	0.0	-29.25	1.3125	-34.375	2.526095	1.3026851	-1.199905
1276888264650	2.3426998	0.92618364	9.765789	0.27881908	0.0	-28.5	1.5625	-34.625	2.5143394	1.3183445	-1.194306
1276888264680	2.2201166	0.92618364	9.724928	0.21138191	0.0	-28.5	1.3125	-35.125	2.508657	1.3283032	-1.1755697
1276888264720	2.4108016	0.88532263	9.615966	0.14636707	0.0	-28.75	1.5625	-35.375	2.5358012	1.3098094	-1.2188536
1276888264760	2.4516625	0.84446156	9.507003	0.047631264	0.0	-29.25	1.0625	-35.5625	2.5867229	1.3045243	-1.2390794
1276888264800	2.4925237	0.8036005	9.302697	-0.14235401	0.0	-29.75	0.8125	-35.8125	2.622001	1.2963818	-1.2589139
1276888264840	2.6423476	0.6946377	9.193735	-0.21554565	0.0	-29.75	0.8125	-35.5625	2.6908393	1.2819352	-1.3137264
1276888264880	2.2609777	0.8036005	9.724928	0.2099371	0.0	-29.0	0.3125	-35.5625	2.632061	1.3288872	-1.2292997
1276888264910	2.1792557	0.9942854	10.079058	0.5531359	0.0	-28.25	0.8125	-36.0625	2.4898555	1.3374676	-1.142757
1276888264940	2.2201166	1.0760075	10.18802	0.67583275	0.0	-28.0	0.5625	-35.5625	2.4663284	1.3332107	-1.1194937
1276888264980	1.9477097	1.1168685	10.18802	0.6258335	0.0	-28.0	0.8125	-35.8125	2.3887548	1.3538862	-1.0501453
1276888265020	1.7978859	1.1441092	10.460427	0.8686447	0.0	-28.25	1.0625	-35.8125	2.3430316	1.3698215	-1.0040671
1276888265050	1.4165162	1.4573772	10.732834	1.1169109	0.0	-29.0	1.0625	-35.375	2.097715	1.3836535	-0.77118117
1276888265080	0.7627395	2.2609777	10.310603	0.7764654	0.0	-29.5	1.3125	-34.875	1.5747447	1.3433715	-0.32536066
1276888265121	0.6537767	2.6832085	10.147159	0.70961666	0.0	-31.0	0.8125	-33.875	1.4859924	1.305067	-0.23899788
1276888265160	2.0294318	3.0237172	9.915613	0.75653267	0.0	-33.6875	-0.4375	-32.125	1.8143077	1.2188268	-0.59111464
1276888265201	2.7649305	3.486809	8.349273	-0.34551716	0.0	-36.9375	-2.1875	-29.4375	1.8504059	1.0811118	-0.6704388
1276888265240	1.607201	4.2495484	5.053149	-3.011352	0.0	-40.125	-5.125	-26.25	1.4750348	0.8384749	-0.3615777
1276888265280	6.5513873	3.568531	4.399372	-1.1458435	0.0	-42.125	-9.625	-23.0	1.6830041	0.5328187	-1.0720325
1276888265320	8.308413	1.334794	4.5219555	-0.25366783	0.0	-42.625	-14.3125	-20.8125	-1.9175062	0.49309605	-1.4115018
1276888265360	2.5606253	2.4516625	8.008764	-1.0483541	0.0	-43.125	-18.0	-19.3125	2.6582341	1.1540736	-0.80713385
1276888265400	6.782933	2.7649305	9.80665	2.433587	0.0	-42.875	-20.75	-18.625	-3.0295613	0.92926675	-1.1837293
1276888265440	6.2789803	2.7921712	8.689782	1.2718935	0.0	-42.625	-21.25	-18.375	-3.0608702	0.90169513	-1.1523707
1276888265480	5.7886477	2.4925237	7.504812	-0.0064811707	0.0	-43.125	-21.25	-18.375	-3.043224	0.8722594	-1.164202
1276888265520	5.6252036	2.6832085	7.5865335	0.011598587	0.0	-42.625	-22.0	-18.8125	-3.0816958	0.8830793	-1.1257194
1276888265560	5.434519	3.0237172	7.8180795	0.18330574	0.0	-42.125	-22.0	-19.3125	3.0916836	0.8988218	-1.0630597
1276888265600	5.175732	3.214402	7.8180795	0.10510826	0.0	-41.875	-22.75	-19.5625	3.033531	0.90880245	-1.0150406
1276888265640	5.09401	3.2961242	7.7363577	0.025165558	0.0	-41.875	-22.75	-19.3125	2.9993205	0.90571994	-0.9964915
1276888265670	5.175732	3.445948	8.008764	0.3325348	0.0	-41.625	-22.75	-19.0625	2.981808	0.91061723	-0.9834013
1276888265710	5.134871	3.486809	7.8180795	0.1756897	0.0	-41.875	-23.5	-18.8125	2.9844947	0.8997815	-0.9742729
1276888265750	5.175732	3.5276701	7.8180795	0.21108532	0.0	-42.125	-23.25	-18.625	2.9680247	0.89534336	-0.9725408
1276888265790	5.243834	3.486809	7.9270425	0.3172636	0.0	-41.625	-23.5	-18.8125	3.006661	0.8994771	-0.9839935
1276888265830	5.284695	3.336985	7.8861814	0.2559204	0.0	-41.625	-23.5	-18.625	3.0507789	0.90062356	-1.0075771
1276888265870	5.284695	3.173541	7.668256	0.032125473	0.0	-41.375	-23.0	-19.3125	3.0777884	0.89369357	-1.029998
1276888265900	5.325556	3.214402	7.7363577	0.1203413	0.0	-41.625	-23.0	-19.3125	3.0687885	0.8935888	-1.0277482
1276888265930	5.284695	3.1054392	7.8589406	0.16002941	0.0	-41.375	-22.5	-18.8125	3.0804782	0.9084011	-1.039523
1276888265970	5.284695	3.1463003	7.9270425	0.22655487	0.0	-41.375	-22.5	-19.0625	3.0698323	0.91094077	-1.033795
1276888266010	5.243834	3.0645783	7.8589406	0.12574005	0.0	-41.875	-22.25	-18.625	3.0682094	0.9128401	-1.0419148
1276888266050	5.284695	3.1463003	7.9679036	0.25887012	0.0	-41.375	-22.25	-18.8125	3.0619557	0.9134292	-1.033795
1276888266090	5.243834	3.255263	7.8589406	0.18622112	0.0	-42.125	-22.5	-19.5625	3.0200799	0.9050479	-1.0152379
1276888266130	5.2165933	3.2961242	7.8589406	0.18535805	0.0	-42.375	-22.5	-19.5625	3.001069	0.9051578	-1.0072836
1276888266160	5.2165933	3.336985	8.008764	0.31701565	0.0	-42.125	-22.25	-19.5625	2.9882019	0.91259426	-1.0017054
1276888266200	5.2165933	3.2961242	7.9679036	0.2712841	0.0	-42.625	-22.5	-19.3125	2.99935	0.9118351	-1.0072837
1276888266240	5.2165933	3.1463003	7.7363577	0.040343285	0.0	-42.125	-22.25	-18.8125	3.03691	0.90375715	-1.0280762
1276888266280	5.366417	3.1054392	7.7772183	0.13957024	0.0	-41.875	-22.0	-18.8125	3.065161	0.8977511	-1.0462006
1276888266320	5.47538	3.1054392	7.9679036	0.34770966	0.0	-42.125	-22.5	-18.125	3.0954647	0.9021767	-1.0548708
1276888266350	5.407278	3.0645783	8.049625	0.363245	0.0	-42.125	-22.25	-18.125	3.0885434	0.9132841	-1.0551838
1276888266390	5.47538	3.1463003	8.117727	0.47811985	0.0	-42.875	-22.75	-18.125	3.0814197	0.90966153	-1.0492425
1276888266430	5.366417	3.0645783	8.049625	0.34157848	0.0	-42.625	-22.75	-18.375	3.0906699	0.91605425	-1.0519236
1276888266470	5.243834	2.982856	7.8861814	0.122452736	0.0	-42.375	-22.75	-19.0625	3.09738	0.91777086	-1.0536104
1276888266510	5.175732	3.0237172	7.7772183	0.012524605	0.0	-42.125	-23.0	-19.0625	3.088911	0.91415	-1.0420676
1276888266550	5.09401	3.1463003	7.7772183	0.008300781	0.0	-41.875	-22.75	-19.0625	3.040334	0.9147086	-1.017502
1276888266580	5.134871	3.1463003	7.6954966	-0.034916878	0.0	-42.375	-23.25	-18.625	3.0546103	0.90678465	-1.0210675
1276888266610	5.134871	3.1054392	7.6954966	-0.04799652	0.0	-42.875	-23.0	-18.125	3.0495908	0.9084993	-1.0268735
1276888266640	5.284695	3.173541	7.6954966	0.05337143	0.0	-42.875	-22.75	-18.125	3.0449257	0.8954246	-1.029998
1276888266671	5.284695	3.214402	7.7772183	0.13042736	0.0	-42.875	-22.5	-17.875	3.0275512	0.8989061	-1.0243347
1276888266710	5.284695	3.1463003	7.8180795	0.14068985	0.0	-43.125	-22.0	-17.875	3.024813	0.9042258	-1.033795
1276888266750	5.47538	2.982856	7.8180795	0.19332886	0.0	-42.875	-21.75	-17.875	3.0882308	0.89756274	-1.0719727
1276888266790	5.5571017	2.8330324	7.7772183	0.1629324	0.0	-42.625	-21.5	-17.375	3.1338093	0.8948171	-1.0993364
1276888266830	5.6660647	2.8738933	7.7772183	0.23569393	0.0	-42.125	-21.75	-17.125	-3.1283705	0.8858334	-1.1013962
1276888266870	5.6252036	3.0645783	7.7363577	0.2375412	0.0	-41.875	-21.75	-17.375	3.104641	0.87920487	-1.0719587
1276888266900	5.6660647	3.214402	7.6954966	0.27587605	0.0	-41.875	-22.0	-17.375	3.0802288	0.8683298	-1.0547622
1276888266930	5.6660647	3.336985	7.6273947	0.26394653	0.0	-42.375	-22.5	-17.625	3.056432	0.8593105	-1.0385472
1276888266970	5.597963	3.255263	7.6273947	0.19890213	0.0	-42.875	-22.5	-17.875	3.0587049	0.8668844	-1.0440845
1276888267010	5.6252036	3.1054392	7.7772183	0.2815504	0.0	-43.375	-22.75	-17.375	3.1023896	0.8802878	-1.0663744
1276888267050	5.597963	2.9556155	7.8589406	0.28472233	0.0	-43.625	-22.5	-17.625	3.124241	0.89271563	-1.0850157
1276888267090	5.597963	2.7921712	7.9270425	0.29143906	0.0	-43.875	-22.0	-17.875	-3.137816	0.902703	-1.1081225
1276888267130	5.47538	2.8330324	7.8589406	0.18178368	0.0	-43.875	-22.5	-17.875	3.1351469	0.9056138	-1.0933156
1276888267160	5.5162406	2.7649305	7.6954966	0.05714321	0.0	-43.125	-22.75	-18.375	-3.1033998	0.89494735	-1.1061616
1276888267200	5.47538	2.7921712	7.5456724	-0.07458019	0.0	-42.875	-23.25	-18.375	-3.0945032	0.88725483	-1.0992203
1276888267240	5.597963	2.9556155	7.504812	0.0114479065	0.0	-42.625	-23.25	-17.875	-3.1158545	0.87008774	-1.0850157
1276888267280	5.7886477	2.982856	7.5865335	0.1914177	0.0	-42.875	-22.75	-17.625	-3.1185644	0.8614687	-1.0949883
1276888267320	5.9793324	2.9556155	7.6954966	0.37709904	0.0	-43.625	-22.25	-17.125	-3.1177514	0.85666794	-1.1117148
1276888267360	6.2789803	2.9147544	7.668256	0.52405834	0.0	-44.125	-21.75	-16.625	-3.0963242	0.83646333	-1.1361898
1276888267400	6.1291566	2.4108016	7.7363577	0.35355377	0.0	-44.875	-21.25	-16.625	-3.0179172	0.8655274	-1.1960503
1276888267440	6.3198414	2.2609777	7.6273947	0.3535452	0.0	-45.875	-20.5	-16.125	-2.9997747	0.84914124	-1.2272264
1276888267480	6.5513873	2.3018389	7.246025	0.22948551	0.0	-46.125	-20.0	-15.375	-3.0024993	0.8066793	-1.2329181
1276888267520	6.469665	2.2201166	7.164303	0.09853649	0.0	-46.5625	-19.75	-14.625	-3.0072336	0.80855197	-1.2402298
1276888267560	6.3607025	2.070293	7.1234417	-0.03485012	0.0	-46.8125	-20.0	-13.6875	-2.9788876	0.8168299	-1.2561287
1276888267600	6.3607025	2.070293	7.205164	0.02488327	0.0	-46.5625	-20.25	-13.6875	-2.9686255	0.8225199	-1.2561287
1276888267640	6.4015636	2.1792557	7.273266	0.12459183	0.0	-46.8125	-20.25	-13.6875	-2.9963274	0.8217846	-1.2426764
1276888267670	6.4424243	2.2609777	7.246025	0.14933968	0.0	-47.0625	-20.0	-13.6875	-3.0237124	0.8151166	-1.2332742
1276888267710	6.5922484	2.2201166	7.246025	0.23782825	0.0	-47.0625	-19.5	-13.9375	-3.0142155	0.8058129	-1.2459499
1276888267750	6.66035	2.1792557	7.246025	0.27374172	0.0	-47.0625	-20.0	-13.6875	-2.9816473	0.8021088	-1.2545773
1276888267790	6.66035	2.2609777	7.1234417	0.20412922	0.0	-47.0625	-20.0	-13.9375	-2.9987545	0.7917404	-1.2435344
1276888267820	6.701211	2.5333846	7.014479	0.21967411	0.0	-46.3125	-20.75	-13.6875	-3.0239727	0.77484626	-1.2093555
1276888267860	6.932757	2.2201166	7.014479	0.30250168	0.0	-46.3125	-20.75	-13.6875	-3.0239727	0.77484626	-1.2093555
1276888267900	7.014479	1.8387469	6.973618	0.25392914	0.0	-46.3125	-20.0	-13.6875	-2.8430133	0.7658677	-1.3144287
1276888267930	7.0553403	1.56634	7.273266	0.44672203	0.0	-46.5625	-19.75	-13.6875	-2.7973778	0.78858066	-1.3523318
1276888267970	6.891896	1.4165162	7.273266	0.31289196	0.0	-47.3125	-19.0	-14.1875	-2.8077116	0.80198073	-1.3680857
1276888268010	6.891896	1.7570249	7.014479	0.18275833	0.0	-47.3125	-19.0	-13.9375	-2.8844388	0.77847105	-1.321173
1276888268040	6.469665	1.7570249	7.1234417	-0.0246706	0.0	-47.3125	-19.0	-13.4375	-2.930245	0.8157224	-1.3056134
1276888268070	6.5513873	1.920469	6.932757	-0.076696396	0.0	-47.0625	-19.5	-12.9375	-2.9416392	0.7930788	-1.2856456
1276888268100	6.6331096	2.1111538	7.246025	0.24123478	0.0	-46.8125	-19.75	-12.9375	-2.975218	0.8054598	-1.2626588
1276888268140	6.5922484	2.0294318	7.3141265	0.2468462	0.0	-46.8125	-20.25	-13.6875	-2.941345	0.8147012	-1.2721522
1276888268181	6.5513873	2.070293	7.3958488	0.2881689	0.0	-46.5625	-20.5	-14.1875	-2.9428813	0.82218987	-1.2647184
1276888268220	6.66035	2.1111538	7.3549876	0.33795738	0.0	-46.125	-20.5	-14.875	-2.9302528	0.8110555	-1.2638413
1276888268260	6.6331096	2.070293	7.246025	0.23272896	0.0	-45.875	-20.25	-14.875	-2.9244545	0.8063422	-1.2682623
1276888268300	6.510526	1.8387469	7.246025	0.10661507	0.0	-45.375	-20.25	-14.875	-2.8709626	0.81970173	-1.2955387
1276888268330	6.469665	1.7570249	7.246025	0.06495476	0.0	-45.375	-20.5	-15.375	-2.8430705	0.8242329	-1.3056134
1276888268360	6.469665	1.7297841	7.205164	0.030174255	0.0	-45.875	-20.5	-15.125	-2.845137	0.8219408	-1.3095388
1276888268400	6.4424243	1.6889231	7.273266	0.05528164	0.0	-45.875	-21.0	-15.375	-2.8224792	0.82937473	-1.3144094
1276888268440	6.2789803	1.9885708	7.4639506	0.1477747	0.0	-46.125	-21.25	-15.125	-2.9174395	0.84777844	-1.2640871
1276888268480	6.0882955	2.3699405	7.8589406	0.41327667	0.0	-45.375	-21.0	-15.125	-3.0336716	0.8772473	-1.1995811
1276888268520	6.1291566	2.3699405	8.049625	0.58467484	0.0	-45.125	-21.25	-15.125	-3.019824	0.88615924	-1.2018368
1276888268560	6.238119	2.2609777	7.7772183	0.4164257	0.0	-45.125	-21.5	-15.375	-2.9697497	0.8644699	-1.2230775
1276888268600	6.4424243	2.152015	7.6273947	0.40673065	0.0	-45.125	-21.25	-15.125	-2.9274106	0.8432434	-1.2484117
1276888268640	6.5513873	1.9885708	7.43671	0.30175018	0.0	-45.625	-22.0	-14.4375	-2.860774	0.8266937	-1.2761002
1276888268680	6.5922484	1.879608	7.205164	0.13845158	0.0	-45.625	-22.25	-13.9375	-2.819168	0.81029963	-1.2930425
1276888268720	6.66035	1.607201	6.891896	-0.08854389	0.0	-45.375	-22.0	-13.1875	-2.7448933	0.7883358	-1.3340142
1276888268760	6.782933	1.4982382	6.973618	0.03632927	0.0	-45.625	-22.25	-13.1875	-2.7077742	0.7873513	-1.3534034
1276888268800	6.701211	1.4573772	6.891896	-0.08407879	0.0	-45.875	-22.0	-13.4375	-2.7115164	0.78787386	-1.3566513
1276888268840	6.66035	1.5390993	6.973618	-0.041383743	0.0	-45.875	-21.5	-13.6875	-2.7510571	0.7953729	-1.3436987
1276888268880	6.5922484	1.7297841	7.0553403	0.0029230118	0.0	-46.3125	-21.75	-13.6875	-2.8067312	0.80269355	-1.3141847
1276888268910	6.6331096	1.7570249	6.932757	-0.052246094	0.0	-46.125	-21.5	-13.6875	-2.8089752	0.79053676	-1.3118562
1276888268950	6.66035	1.879608	7.0553403	0.07621479	0.0	-46.125	-21.5	-13.4375	-2.8422012	0.7950466	-1.2957407
1276888268990	6.6331096	1.9477097	7.014479	0.041934967	0.0	-46.125	-21.25	-13.4375	-2.8680491	0.7926731	-1.2851896
1276888269040	6.742072	1.9885708	7.014479	0.12375069	0.0	-46.3125	-20.75	-13.6875	-2.884202	0.7843485	-1.2839794
1276888269080	6.8237944	1.9477097	7.1234417	0.24825764	0.0	-46.5625	-20.75	-13.4375	-2.8750498	0.78730553	-1.2927603
1276888269110	6.8237944	1.879608	7.082581	0.20634365	0.0	-46.3125	-20.25	-13.4375	-2.8694546	0.7857266	-1.3020127
1276888269150	6.851035	1.7978859	7.246025	0.32616615	0.0	-46.5625	-20.75	-13.4375	-2.8405876	0.79677397	-1.3141577
1276888269180	6.742072	1.7297841	7.205164	0.21143723	0.0	-46.3125	-21.0	-13.1875	-2.8238623	0.80267256	-1.3196478
1276888269220	6.742072	1.7978859	7.0553403	0.11634159	0.0	-46.5625	-20.75	-13.4375	-2.844931	0.7909326	-1.3101939
1276888269260	6.701211	1.7978859	7.1234417	0.13729477	0.0	-47.3125	-21.0	-13.6875	-2.8536031	0.79857093	-1.3086765
1276888269300	6.6331096	1.7978859	7.0553403	0.042632103	0.0	-47.0625	-20.75	-13.6875	-2.862036	0.7985289	-1.3061087
1276888269330	6.701211	1.8387469	7.082581	0.11555576	0.0	-47.0625	-20.25	-13.1875	-2.885185	0.7949251	-1.3029971
1276888269360	6.701211	1.7978859	7.164303	0.1666069	0.0	-46.5625	-20.0	-12.9375	-2.8794835	0.80142957	-1.3086765
1276888269390	6.742072	1.7978859	7.164303	0.19410801	0.0	-46.5625	-19.75	-13.1875	-2.881951	0.7985942	-1.3101939
1276888269430	6.742072	1.7978859	7.205164	0.22342014	0.0	-47.0625	-19.5	-13.4375	-2.8971906	0.8014366	-1.3101939
1276888269470	6.782933	1.7297841	7.246025	0.26832962	0.0	-47.0625	-19.75	-13.9375	-2.86674	0.8026645	-1.3210986
1276888269510	6.8237944	1.6480621	7.3141265	0.3312359	0.0	-47.3125	-20.25	-14.625	-2.828398	0.8059151	-1.3338175
1276888269550	6.8237944	1.7297841	7.3549876	0.37432098	0.0	-46.8125	-20.0	-14.4375	-2.8508587	0.807303	-1.3225328
1276888269590	6.8237944	1.7297841	7.3141265	0.344841	0.0	-46.8125	-19.75	-14.1875	-2.8593535	0.8045198	-1.3225329
1276888269630	6.742072	1.6889231	7.246025	0.23391151	0.0	-47.3125	-19.5	-14.4375	-2.8690813	0.8062194	-1.3253424
1276888269670	6.66035	1.6480621	7.164303	0.11320877	0.0	-47.5625	-19.0	-13.9375	-2.8872576	0.80700403	-1.328225
1276888269710	6.701211	1.607201	7.082581	0.07526684	0.0	-47.8125	-19.25	-14.1875	-2.8648667	0.7990894	-1.3354051
1276888269750	6.8237944	1.56634	7.164303	0.21057701	0.0	-47.8125	-19.0	-14.1875	-2.8541007	0.79690766	-1.345164
1276888269790	6.851035	1.5390993	7.205164	0.25415993	0.0	-47.0625	-19.0	-13.6875	-2.8387365	0.7982868	-1.3498131
1276888269820	6.851035	1.4982382	7.273266	0.2969036	0.0	-46.5625	-18.5	-14.1875	-2.8358533	0.80361795	-1.355498
1276888269860	6.782933	1.4573772	7.246025	0.22515011	0.0	-46.5625	-18.5	-13.9375	-2.8329346	0.8071303	-1.3591546
1276888269890	6.5922484	1.3756552	7.1234417	-0.0039167404	0.0	-46.3125	-18.75	-14.1875	-2.8117747	0.8134755	-1.3650709
1276888269920	6.510526	1.0760075	7.3549876	0.07467461	0.0	-46.8125	-18.75	-14.625	-2.757528	0.8395342	-1.407005
1276888269950	6.851035	1.1849703	7.205164	0.20610332	0.0	-47.0625	-19.25	-14.4375	-2.7389884	0.80322415	-1.3995285
1276888269990	7.1234417	1.4982382	6.4015636	-0.11293316	0.0	-47.3125	-19.25	-14.4375	-2.7549393	0.72132844	-1.3634928
1276888270030	6.932757	1.5390993	6.66035	-0.070521355	0.0	-47.3125	-19.75	-13.9375	-2.7867086	0.7533499	-1.3523355
1276888270060	7.1234417	1.9885708	6.973618	0.35844612	0.0	-47.0625	-20.75	-13.4375	-2.8579152	0.7560261	-1.2985679
1276888270090	7.205164	2.3426998	6.851035	0.40801144	0.0	-47.0625	-21.5	-12.9375	-2.9089823	0.73516023	-1.2564362
1276888270130	7.082581	2.4108016	6.782933	0.29201794	0.0	-46.5625	-22.0	-12.6875	-2.9124804	0.73645544	-1.2427131
1276888270171	7.0553403	2.3699405	6.932757	0.36475945	0.0	-46.8125	-22.0	-12.6875	-2.9144487	0.7499368	-1.2467309
1276888270210	6.932757	2.3018389	7.246025	0.48249245	0.0	-46.5625	-22.0	-12.9375	-2.9141462	0.78135204	-1.250225
1276888270251	6.742072	2.1792557	7.3141265	0.3767252	0.0	-45.875	-21.25	-13.4375	-2.916585	0.8012722	-1.258164
1276888270290	6.932757	2.1111538	7.3141265	0.4897833	0.0	-45.875	-21.0	-13.6875	-2.8874073	0.79000294	-1.2751992
1276888270320	6.932757	1.9885708	7.1234417	0.3304577	0.0	-45.375	-21.25	-14.4375	-2.8290312	0.77919865	-1.2914591
1276888270360	6.932757	1.8387469	6.851035	0.11205864	0.0	-45.375	-21.5	-14.4375	-2.7726276	0.76248205	-1.3115395
1276888270390	6.932757	1.6889231	6.66035	-0.045715332	0.0	-45.875	-22.75	-14.4375	-2.6958249	0.7509691	-1.3318361
1276888270420	6.932757	1.5390993	6.6331096	-0.08913612	0.0	-45.875	-22.75	-14.625	-2.6560552	0.75130534	-1.3523355
1276888270450	7.0553403	1.3756552	6.782933	0.076589584	0.0	-45.875	-23.25	-14.4375	-2.6021917	0.75639874	-1.3782316
1276888270490	7.0553403	1.2666923	7.082581	0.27031803	0.0	-45.625	-22.75	-14.875	-2.5997782	0.7793939	-1.3931522
1276888270530	6.932757	1.2666923	7.273266	0.32093716	0.0	-45.375	-22.5	-14.875	-2.625033	0.8011599	-1.3900785
1276888270570	6.742072	1.4573772	7.4639506	0.35652065	0.0	-45.125	-23.5	-15.625	-2.6556027	0.8247993	-1.3579102
1276888270610	6.6331096	1.56634	7.668256	0.45267296	0.0	-44.375	-23.5	-16.125	-2.6819983	0.8442042	-1.3389046
1276888270650	6.510526	1.7297841	7.5865335	0.33901882	0.0	-44.125	-24.25	-16.125	-2.703426	0.8446832	-1.3111056
1276888270680	6.469665	1.6889231	7.4639506	0.21430683	0.0	-43.625	-24.75	-16.375	-2.6670914	0.8402862	-1.3154426
1276888270720	6.3198414	1.607201	7.246025	-0.058401108	0.0	-43.375	-24.9375	-15.875	-2.6504004	0.8380132	-1.3217651
1276888270760	6.2789803	1.5390993	7.3549876	-0.014292717	0.0	-43.125	-25.1875	-15.875	-2.6333172	0.8497186	-1.3304166
1276888270800	6.238119	1.5390993	7.3958488	-0.009633064	0.0	-43.125	-25.1875	-15.625	-2.6425874	0.85551417	-1.3289025
1276888270830	6.238119	1.4982382	7.4639506	0.035575867	0.0	-42.875	-25.4375	-15.375	-2.6280146	0.8607935	-1.3350862
1276888270870	6.238119	1.4982382	7.5865335	0.12885857	0.0	-42.375	-25.1875	-15.375	-2.6304967	0.86883587	-1.3350862
1276888270910	6.2789803	1.56634	7.5865335	0.16503525	0.0	-42.375	-25.1875	-14.875	-2.6464925	0.8645566	-1.3263282
1276888270950	6.3607025	1.607201	7.6273947	0.2541046	0.0	-42.125	-25.1875	-15.125	-2.6410654	0.860446	-1.3233
1276888270990	6.2789803	1.607201	7.5456724	0.14050293	0.0	-42.625	-25.1875	-15.375	-2.6534057	0.86112505	-1.3202112
1276888271030	6.238119	1.6889231	7.3549876	-0.015713692	0.0	-42.625	-25.4375	-16.125	-2.6533775	0.8498838	-1.3063927
1276888271060	6.3607025	1.6889231	7.3958488	0.093328476	0.0	-42.875	-25.4375	-16.625	-2.6402357	0.84362394	-1.3112605
1276888271090	6.469665	1.6889231	7.3958488	0.1636858	0.0	-42.875	-25.4375	-16.625	-2.6402357	0.84362394	-1.3112605
1276888271130	6.5513873	1.6889231	7.3549876	0.18679714	0.0	-42.375	-25.4375	-16.875	-2.6016586	0.8271146	-1.3184936
1276888271160	6.6331096	1.7297841	7.3549876	0.24750996	0.0	-42.625	-25.4375	-16.375	-2.6125422	0.8205732	-1.3156976
1276888271190	6.6331096	1.7297841	7.273266	0.18788242	0.0	-42.375	-25.6875	-16.125	-2.5991368	0.8149983	-1.3156976
1276888271230	6.66035	1.7978859	7.273266	0.2179718	0.0	-42.375	-25.6875	-16.125	-2.5991368	0.8149983	-1.3156976
1276888271270	6.701211	1.920469	7.273266	0.26781368	0.0	-42.375	-25.4375	-16.125	-2.6401267	0.80661726	-1.2916915
1276888271300	6.782933	1.879608	7.3958488	0.4031334	0.0	-41.875	-24.9375	-16.125	-2.631001	0.81014687	-1.300471
1276888271330	6.701211	1.8387469	7.5456724	0.4512434	0.0	-42.125	-24.9375	-16.625	-2.639043	0.826547	-1.3029971
1276888271370	6.66035	1.7978859	7.5456724	0.41733265	0.0	-41.625	-24.9375	-16.625	-2.6240988	0.8301558	-1.3071417
1276888271400	6.5513873	1.7570249	7.3958488	0.22860718	0.0	-41.875	-24.9375	-16.625	-2.6254654	0.82860094	-1.3087711
1276888271433	6.469665	1.7297841	7.3549876	0.14043808	0.0	-42.125	-25.1875	-16.125	-2.6315193	0.8321953	-1.3095388
1276888271470	6.510526	1.6889231	7.3141265	0.12994194	0.0	-42.375	-24.75	-15.875	-2.6353984	0.8272608	-1.316977
1276888271510	6.510526	1.6889231	7.273266	0.09990406	0.0	-42.875	-24.5	-15.625	-2.6533153	0.82446885	-1.316977
1276888271550	6.469665	1.6889231	7.205164	0.023070335	0.0	-42.875	-24.5	-15.375	-2.6574786	0.8227186	-1.3154426
1276888271590	6.5922484	1.7297841	7.3141265	0.1906662	0.0	-43.125	-24.25	-15.625	-2.6672873	0.8206791	-1.3141847
1276888271630	6.6331096	1.6889231	7.273266	0.18089199	0.0	-42.625	-24.5	-16.125	-2.627778	0.8157413	-1.3214741
1276888271674	6.5513873	1.7570249	7.246025	0.11870575	0.0	-42.625	-24.25	-16.625	-2.6528277	0.81839794	-1.3087711
1276888271710	6.5513873	1.8387469	7.246025	0.13349819	0.0	-42.625	-24.5	-16.375	-2.6676688	0.8168095	-1.2971708
1276888271750	6.510526	1.7978859	7.273266	0.11906147	0.0	-42.625	-24.9375	-16.375	-2.652196	0.82238406	-1.3013607
1276888271790	6.6331096	1.7978859	7.3549876	0.2594509	0.0	-43.375	-24.9375	-15.875	-2.6629496	0.81930125	-1.3061087
1276888271830	6.66035	1.7570249	7.43671	0.33001804	0.0	-43.125	-25.1875	-15.375	-2.6486092	0.8236697	-1.3128687
1276888271870	6.5513873	1.7570249	7.3141265	0.16853237	0.0	-43.375	-24.75	-15.625	-2.669202	0.82306343	-1.3087711
1276888271920	6.469665	1.7978859	7.3549876	0.15250683	0.0	-43.125	-23.5	-15.375	-2.7233913	0.8308653	-1.2997409
1276888271960	6.4015636	1.7978859	7.3549876	0.10840225	0.0	-43.375	-23.25	-15.375	-2.7433822	0.83575064	-1.2969986
1276888272000	6.4424243	1.7978859	7.4639506	0.21571445	0.0	-43.875	-23.25	-15.875	-2.7480595	0.84012944	-1.2986504
1276888272040	6.4015636	1.7978859	7.5456724	0.2506647	0.0	-43.875	-23.25	-16.125	-2.7536898	0.848466	-1.2969986
1276888272080	6.4015636	1.7570249	7.504812	0.21279907	0.0	-44.125	-24.0	-16.625	-2.7207463	0.8465883	-1.3029246
1276888272110	6.3607025	1.7978859	7.273266	0.021438599	0.0	-44.375	-24.0	-16.375	-2.7323503	0.83314294	-1.2953271
1276888272150	6.4424243	1.8387469	7.3958488	0.1725483	0.0	-44.125	-24.25	-16.375	-2.7257988	0.8347468	-1.292776
1276888272180	6.4424243	1.879608	7.3958488	0.18015766	0.0	-44.125	-24.0	-16.375	-2.7427344	0.83390605	-1.286921
1276888272220	6.510526	1.920469	7.4639506	0.28224087	0.0	-44.375	-24.0	-16.125	-2.7544036	0.83280087	-1.2839522
1276888272260	6.5513873	1.920469	7.5456724	0.3691082	0.0	-43.625	-24.5	-16.375	-2.7216005	0.8353541	-1.2856456
1276888272300	6.5513873	1.920469	7.3141265	0.19861507	0.0	-43.625	-24.0	-16.125	-2.7283394	0.81982696	-1.2856456
1276888272330	6.510526	1.9477097	7.246025	0.1274023	0.0	-43.625	-24.5	-15.625	-2.7269394	0.81746316	-1.2801074
1276888272370	6.469665	1.920469	7.246025	0.09535217	0.0	-43.625	-24.5	-15.625	-2.7269394	0.81746316	-1.2801074
1276888272400	6.4424243	1.920469	7.3549876	0.1577301	0.0	-43.625	-24.0	-15.375	-2.7503822	0.83029133	-1.2810861
1276888272434	6.4424243	1.920469	7.4639506	0.23842812	0.0	-43.875	-24.5	-14.875	-2.7497551	0.83760965	-1.2810861
1276888272470	6.469665	1.9477097	7.5865335	0.35236645	0.0	-43.625	-24.5	-15.125	-2.7506862	0.8432047	-1.2783741
1276888272510	6.4015636	1.9477097	7.43671	0.19726181	0.0	-43.625	-24.5	-15.375	-2.7504263	0.83810985	-1.2754402
1276888272550	6.2789803	2.070293	7.273266	0.02249527	0.0	-43.375	-24.5	-15.375	-2.78268	0.83302474	-1.2523031
1276888272590	6.238119	2.0294318	7.205164	-0.06256962	0.0	-43.375	-24.25	-15.875	-2.7782798	0.8322384	-1.2562683
1276888272630	6.238119	1.9885708	7.246025	-0.04071808	0.0	-43.625	-24.25	-15.875	-2.774924	0.8360035	-1.2622029
1276888272660	6.4015636	2.0294318	7.3549876	0.1529913	0.0	-43.375	-24.0	-16.125	-2.7692757	0.8308121	-1.2637978
1276888272690	6.4424243	1.9885708	7.43671	0.23147202	0.0	-43.375	-24.25	-15.875	-2.7528775	0.8343301	-1.2714063
1276888272770	6.510526	2.0294318	7.4639506	0.30354786	0.0	-43.125	-23.75	-16.375	-2.7606227	0.8304865	-1.2686263
1276888272810	6.4424243	2.0294318	7.3141265	0.14924622	0.0	-43.625	-24.25	-15.875	-2.7623954	0.8251547	-1.2656258
1276888272850	6.469665	1.9477097	7.3141265	0.15058804	0.0	-43.875	-23.75	-15.875	-2.7594805	0.8250087	-1.2783741
1276888272890	6.469665	1.9885708	7.205164	0.07896423	0.0	-44.375	-23.75	-15.625	-2.7767527	0.8166458	-1.2725933
1276888272920	6.5922484	1.9477097	7.273266	0.2009325	0.0	-45.125	-23.75	-14.875	-2.7763374	0.81361574	-1.2835149
1276888272950	6.5922484	1.9477097	7.3549876	0.26048183	0.0	-45.375	-23.25	-14.625	-2.8007846	0.8191917	-1.2835149
1276888272990	6.5513873	1.9885708	7.3958488	0.2717266	0.0	-45.625	-23.5	-14.4375	-2.8147101	0.82394767	-1.2761003
1276888273030	6.510526	2.070293	7.3549876	0.23172188	0.0	-45.125	-23.5	-14.1875	-2.8299503	0.8222622	-1.2629162
1276888273070	6.4015636	2.0294318	7.43671	0.21349335	0.0	-44.625	-23.5	-14.625	-2.823098	0.8363113	-1.2637978
1276888273100	6.4015636	2.1111538	7.3958488	0.2001257	0.0	-44.125	-23.75	-14.875	-2.8225987	0.8317097	-1.2522407
1276888273140	6.3198414	2.070293	7.246025	0.028561592	0.0	-43.875	-23.5	-15.625	-2.8142402	0.8282411	-1.254227
1276888273170	6.2789803	2.070293	7.246025	0.002354622	0.0	-43.625	-24.0	-16.625	-2.7907298	0.83115673	-1.2523031
1276888273210	6.3198414	2.0294318	7.3958488	0.1310339	0.0	-43.375	-23.75	-16.375	-2.7862883	0.8393701	-1.2600771
1276888273250	6.4015636	1.9885708	7.43671	0.20529747	0.0	-43.625	-23.75	-16.125	-2.775213	0.8372183	-1.2696084
1276888273290	6.3607025	2.1111538	7.504812	0.25504494	0.0	-43.875	-24.0	-15.625	-2.8132315	0.8418542	-1.2503312
1276888273330	6.3198414	2.1792557	7.504812	0.2438097	0.0	-43.875	-23.5	-14.875	-2.8544614	0.8431069	-1.2387369
1276888273370	6.2789803	2.1111538	7.5456724	0.23425293	0.0	-44.125	-24.0	-14.875	-2.8342302	0.8503228	-1.246445
1276888273410	6.238119	2.152015	7.5456724	0.21744442	0.0	-43.875	-24.0	-14.875	-2.8439949	0.85223484	-1.2386023
1276888273480	6.2108784	2.152015	7.504812	0.16974068	0.0	-43.875	-24.5	-15.375	-2.827996	0.85148126	-1.2372508
1276888273520	6.2108784	2.070293	7.4639506	0.1216774	0.0	-43.875	-24.5	-15.125	-2.8092475	0.85076225	-1.2490457
1276888273560	6.2789803	2.1111538	7.504812	0.20358276	0.0	-43.875	-24.25	-15.375	-2.8174868	0.8476297	-1.2464451
1276888273600	6.2789803	2.152015	7.5456724	0.24292374	0.0	-44.375	-24.0	-15.375	-2.8449392	0.84934056	-1.2406099
1276888273640	6.3198414	2.070293	7.504812	0.22074795	0.0	-44.375	-23.25	-15.125	-2.8434694	0.8456926	-1.254227
1276888273680	6.2789803	2.070293	7.3141265	0.05276966	0.0	-44.375	-22.5	-15.375	-2.8635416	0.83581233	-1.2523031
1276888273720	6.238119	2.070293	7.3549876	0.05722809	0.0	-44.125	-22.5	-14.875	-2.8683016	0.8415078	-1.2503563
1276888273760	6.238119	2.0294318	7.504812	0.16104412	0.0	-44.125	-23.0	-14.625	-2.8493512	0.8524779	-1.2562683
1276888273800	6.238119	1.9885708	7.43671	0.1015892	0.0	-43.875	-23.0	-14.875	-2.831366	0.8489063	-1.2622029
1276888273830	6.2789803	1.9885708	7.5456724	0.20919609	0.0	-43.875	-23.25	-15.125	-2.820957	0.85317713	-1.2640872
1276888273870	6.3607025	2.070293	7.5456724	0.27709007	0.0	-44.625	-23.0	-15.625	-2.8486016	0.84549713	-1.2561287
1276888273910	6.3198414	2.0294318	7.668256	0.33539772	0.0	-44.375	-22.75	-15.875	-2.848459	0.85731125	-1.2600771
1276888273950	6.238119	2.070293	7.5865335	0.23106575	0.0	-44.125	-23.0	-15.625	-2.854863	0.8568793	-1.2503563
1276888273990	6.2108784	2.070293	7.504812	0.15243244	0.0	-44.375	-23.0	-15.625	-2.8601372	0.8534678	-1.2490457
1276888274030	6.2789803	1.9885708	7.6954966	0.32254887	0.0	-44.125	-23.5	-15.875	-2.8174458	0.8629039	-1.2640872
1276888274070	6.238119	1.9885708	7.6273947	0.24549866	0.0	-44.375	-23.25	-16.625	-2.8264787	0.86144185	-1.2622029
1276888274110	6.2108784	1.9885708	7.504812	0.13576508	0.0	-44.875	-23.25	-16.875	-2.8330677	0.85539156	-1.2609342
1276888274150	6.238119	1.9885708	7.4639506	0.122050285	0.0	-44.875	-23.0	-16.625	-2.83785	0.8507195	-1.2622029
1276888274180	6.2789803	1.920469	7.4639506	0.13439369	0.0	-44.875	-22.5	-16.875	-2.8295817	0.84930515	-1.273975
1276888274220	6.3198414	1.9477097	7.5456724	0.22685051	0.0	-44.375	-22.25	-16.625	-2.8347754	0.85116357	-1.2718431
1276888274260	6.3607025	1.9477097	7.5865335	0.2833252	0.0	-43.875	-22.25	-17.125	-2.8182337	0.85092145	-1.2736522
1276888274295	6.3607025	1.9885708	7.5456724	0.26062965	0.0	-43.375	-22.0	-17.625	-2.8212938	0.84734344	-1.2677895
1276888274372	6.2789803	2.070293	7.504812	0.19504452	0.0	-43.125	-22.0	-17.625	-2.8458066	0.8485975	-1.2523031
1276888274410	6.238119	2.1111538	7.5865335	0.23957253	0.0	-43.375	-22.0	-17.875	-2.8672047	0.8559024	-1.2444676
1276888274450	6.2789803	1.9477097	7.5456724	0.20116425	0.0	-43.625	-21.75	-17.625	-2.8338745	0.85409707	-1.2700125
1276888274490	6.2108784	1.9477097	7.4639506	0.09684086	0.0	-43.625	-22.25	-17.125	-2.8270743	0.8536261	-1.2669128
1276888274530	6.1700177	1.9477097	7.5456724	0.13316154	0.0	-43.375	-22.25	-16.875	-2.8318682	0.86198527	-1.2650231
1276888274570	6.2108784	1.9885708	7.6273947	0.22861671	0.0	-43.375	-22.5	-16.125	-2.8374677	0.8634039	-1.2609342
1276888274610	6.2789803	1.9477097	7.6954966	0.31460667	0.0	-43.125	-22.75	-16.375	-2.8076808	0.86382115	-1.2700125
1276888274650	6.2108784	2.0294318	7.6273947	0.23679352	0.0	-43.375	-22.5	-16.875	-2.8421724	0.8624522	-1.2549784
1276888274690	6.1700177	2.070293	7.668256	0.2510519	0.0	-43.375	-22.75	-16.875	-2.8506672	0.86705446	-1.2470603
1276888274730	6.1291566	2.1111538	7.5456724	0.1412487	0.0	-43.625	-22.5	-17.375	-2.8714929	0.8610378	-1.2390794
1276888274770	6.2108784	2.1111538	7.668256	0.28463936	0.0	-43.875	-22.0	-17.375	-2.8857698	0.8631418	-1.2431364
1276888274800	6.1700177	2.0294318	7.6273947	0.21157646	0.0	-43.625	-22.0	-17.375	-2.8641427	0.86539555	-1.2530246
1276888274830	6.1291566	1.9885708	7.668256	0.20949268	0.0	-43.625	-21.75	-17.125	-2.869443	0.8719575	-1.257067
1276888274870	6.0882955	2.0294318	7.668256	0.19275379	0.0	-43.125	-21.5	-16.875	-2.884958	0.8739519	-1.2490457
1276888274910	6.0201936	2.0294318	7.6273947	0.120004654	0.0	-42.875	-21.75	-16.625	-2.8808722	0.87629837	-1.2456559
1276888274940	5.938472	2.0294318	7.5456724	0.007686615	0.0	-42.875	-21.5	-16.125	-2.8993804	0.8770279	-1.2414962
1276888274980	6.0201936	1.9885708	7.6954966	0.16419792	0.0	-42.875	-21.5	-16.125	-2.8993804	0.8770279	-1.2414962
1276888275020	6.0474343	2.0294318	7.7772183	0.25193787	0.0	-43.125	-21.75	-16.375	-2.8875885	0.88385886	-1.2470201
1276888275060	6.0882955	2.1111538	7.8589406	0.35638428	0.0	-42.875	-21.75	-16.625	-2.8991394	0.8840087	-1.2370143
1276888275090	6.0201936	2.1111538	7.8180795	0.28404236	0.0	-42.875	-22.0	-17.125	-2.8954616	0.886369	-1.2335169
1276888275120	5.9793324	2.070293	7.7772183	0.21949863	0.0	-42.625	-22.0	-17.875	-2.8798764	0.88781315	-1.2374737
1276888275160	5.938472	1.9885708	7.7363577	0.14679623	0.0	-42.125	-22.25	-17.375	-2.8486867	0.89028984	-1.2476703
1276888275200	6.0201936	2.0294318	7.6954966	0.17242718	0.0	-42.375	-22.5	-17.125	-2.846452	0.8806662	-1.2456559
1276888275240	5.938472	1.9477097	7.7363577	0.13871288	0.0	-42.625	-22.25	-17.375	-2.8478959	0.8912946	-1.25387
1276888275280	5.9793324	1.9885708	7.6954966	0.13957977	0.0	-42.875	-22.25	-17.125	-2.8584557	0.8846762	-1.2497293
1276888275320	5.9793324	1.9885708	7.6273947	0.08698273	0.0	-43.375	-22.25	-17.375	-2.8642156	0.88031524	-1.2497293
1276888275360	5.9793324	2.070293	7.6954966	0.15624142	0.0	-43.125	-21.75	-17.375	-2.8981237	0.8826363	-1.2374737
1276888275390	6.0882955	2.152015	7.7363577	0.27053928	0.0	-43.125	-21.75	-17.125	-2.9081984	0.8752596	-1.2310357
1276888275449	6.1291566	2.1792557	7.7772183	0.33242512	0.0	-43.375	-21.5	-16.875	-2.9251769	0.8742367	-1.2291808
1276888275500	6.2108784	2.1111538	7.6954966	0.30535507	0.0	-43.125	-21.0	-16.875	-2.9083211	0.8648929	-1.2431365
1276888275541	6.2108784	2.070293	7.6273947	0.24512959	0.0	-43.375	-21.5	-17.125	-2.8827534	0.8614846	-1.2490457
1276888275580	6.2108784	2.0294318	7.6954966	0.2886095	0.0	-43.375	-21.5	-16.875	-2.8759372	0.8668411	-1.2549784
1276888275610	6.1291566	1.879608	7.668256	0.18842983	0.0	-43.375	-21.75	-16.625	-2.8408675	0.8744691	-1.2732346
1276888275650	6.0474343	1.920469	7.5865335	0.08350468	0.0	-43.625	-22.25	-16.875	-2.8455215	0.8742762	-1.2633014
1276888275690	5.9793324	2.1111538	7.5456724	0.049645424	0.0	-43.875	-22.25	-16.875	-2.9054692	0.871925	-1.2313845
1276888275760	6.0201936	2.1792557	7.5865335	0.12045288	0.0	-43.625	-22.25	-16.625	-2.9156215	0.8698378	-1.2234793
1276888275800	6.3198414	1.9885708	7.8861814	0.4931879	0.0	-43.125	-22.5	-16.875	-2.8228261	0.87206787	-1.2659492
1276888275840	5.7477865	1.6889231	7.8589406	0.07527542	0.0	-43.125	-22.0	-17.125	-2.8264863	0.91947645	-1.2850015
1276888275880	5.9793324	1.6889231	8.349273	0.60081005	0.0	-42.875	-21.25	-17.875	-2.8273683	0.93103665	-1.2955078
1276888275910	5.366417	1.7570249	10.18802	1.8415823	0.0	-42.125	-21.5	-19.5625	-2.912287	1.0646944	-1.2543851
1276888275940	3.8681788	2.152015	8.240311	-0.45268345	0.0	-41.375	-20.5	-22.3125	3.0685394	1.077851	-1.0631001
1276888275980	4.2495484	1.2666923	7.7363577	-0.88956547	0.0	-39.625	-20.0	-23.75	-2.8494353	1.0503317	-1.2811048
1276888276010	5.325556	0.92618364	9.112013	0.78807163	0.0	-37.9375	-19.5	-25.5	-2.617842	1.0353718	-1.3986055
1276888276050	5.243834	0.92618364	9.043911	0.68848896	0.0	-36.4375	-18.0	-27.4375	-2.61739	1.0386573	-1.395976
1276888276090	4.0180025	0.23154591	7.9679036	-0.87997913	0.0	-34.6875	-16.8125	-28.4375	-2.4789717	1.103069	-1.5132328
1276888276130	3.173541	0.5720546	9.152874	-0.10233593	0.0	-34.1875	-16.0625	-30.1875	-2.761546	1.2320614	-1.3924539
1276888276170	2.6423476	0.88532263	10.079058	0.6505585	0.0	-33.4375	-15.0625	-31.1875	-3.00619	1.3010491	-1.2475002
1276888276210	2.3426998	0.5720546	9.997335	0.47742558	0.0	-33.6875	-14.0625	-31.375	-2.9396863	1.3341002	-1.331297
1276888276250	3.1054392	0.61291564	9.234595	-0.044623375	0.0	-34.4375	-13.8125	-31.625	-2.8648849	1.2405765	-1.3759325
1276888276280	3.486809	0.42223078	8.730643	-0.39600468	0.0	-33.9375	-12.8125	-32.125	-2.7461255	1.1883143	-1.4502894
1276888276310	3.1463003	0.53119355	8.894087	-0.35751534	0.0	-33.4375	-12.5625	-32.125	-2.842933	1.2263407	-1.4035424
1276888276350	2.7921712	0.6537767	9.425281	0.045230865	0.0	-33.1875	-12.5625	-32.125	-2.9519274	1.2754403	-1.3407935
1276888276390	2.5333846	0.88532263	10.038197	0.58407784	0.0	-32.6875	-12.3125	-31.625	-3.108763	1.3095642	-1.2346005
1276888276430	2.7649305	0.88532263	10.038197	0.64294434	0.0	-32.9375	-13.0625	-31.1875	-3.047147	1.2892618	-1.2609147
1276888276471	2.982856	0.84446156	9.534244	0.21893406	0.0	-33.6875	-13.0625	-31.375	-3.0040545	1.2564262	-1.2949107
1276888276510	3.255263	0.7627395	9.112013	-0.100605965	0.0	-33.6875	-13.8125	-31.375	-2.895485	1.2191236	-1.3406388
1276888276540	3.214402	0.88532263	8.962189	-0.24438095	0.0	-34.1875	-14.5625	-31.1875	-2.934725	1.2146431	-1.3020362
1276888276570	3.405087	0.9942854	8.771504	-0.34501648	0.0	-34.4375	-14.3125	-30.9375	-2.9640014	1.1864941	-1.286695
1276888276600	3.3778462	0.9942854	8.499097	-0.60702515	0.0	-34.6875	-15.0625	-30.1875	-2.9429007	1.1780267	-1.2845266
1276888276630	3.445948	0.92618364	8.812365	-0.2992773	0.0	-35.1875	-15.0625	-29.6875	-2.9195805	1.1860615	-1.3082268
1276888276660	3.173541	1.1168685	9.343558	0.12415218	0.0	-35.1875	-15.5625	-29.4375	-3.027279	1.2251786	-1.232402
1276888276690	3.1463003	1.5390993	9.507003	0.32503986	0.0	-35.1875	-15.8125	-29.1875	3.0934112	1.2178062	-1.1158441
1276888276730	3.759216	1.607201	9.343558	0.39221668	0.0	-35.1875	-16.3125	-28.9375	-3.092859	1.158335	-1.1667794
1276888276770	3.9499009	1.9885708	7.8861814	-0.7651911	0.0	-34.9375	-17.0625	-28.9375	3.1177847	1.0597321	-1.1043938
1276888276800	3.9499009	2.1111538	8.19945	-0.46375656	0.0	-34.9375	-17.3125	-28.9375	3.0826252	1.0708609	-1.0799446
1276888276830	3.636633	2.7240696	8.962189	0.24155712	0.0	-34.9375	-18.75	-28.4375	2.8791428	1.1015716	-0.9278948
1276888276870	3.9090397	3.173541	9.466142	0.91528034	0.0	-35.4375	-19.5	-27.6875	2.8272955	1.0819529	-0.88887346
1276888276910	3.718355	3.214402	9.343558	0.75084114	0.0	-35.4375	-20.5	-27.4375	2.8174345	1.0865302	-0.8579621
1276888276940	3.0645783	3.2961242	9.193735	0.42960072	0.0	-35.6875	-21.25	-26.75	2.6897957	1.1155541	-0.74901164
1276888276970	3.255263	3.445948	8.662541	0.06811142	0.0	-35.6875	-21.5	-26.5	2.6802797	1.0700835	-0.7569506
1276888277000	3.718355	3.6774938	8.662541	0.31213188	0.0	-35.4375	-21.75	-26.5	2.7179573	1.0276474	-0.790923
1276888277030	3.9090397	3.6774938	9.084772	0.74501514	0.0	-35.6875	-22.25	-26.0	2.7870743	1.0371932	-0.8159093
1276888277060	3.990762	3.718355	9.084772	0.78983116	0.0	-35.1875	-22.5	-26.0	2.8097398	1.0300769	-0.8207192
1276888277090	3.8681788	3.759216	8.62168	0.36330032	0.0	-35.4375	-22.5	-25.5	2.759606	1.0117482	-0.79968286
1276888277120	3.7864566	3.636633	8.349273	0.05604267	0.0	-35.6875	-22.5	-25.75	2.7618067	1.0094721	-0.8055789
1276888277160	3.718355	3.6774938	8.349273	0.045277596	0.0	-35.9375	-22.0	-25.75	2.7134068	1.0112125	-0.790923
1276888277190	3.8273177	3.759216	8.771504	0.4753418	0.0	-36.6875	-21.75	-25.75	2.70597	1.0218866	-0.7943746
1276888277230	3.8273177	3.718355	9.152874	0.7881422	0.0	-36.6875	-21.25	-26.25	2.7081056	1.0429684	-0.7998376
1276888277270	3.3778462	3.718355	9.193735	0.67002773	0.0	-36.6875	-20.25	-26.5	2.5918183	1.0707138	-0.73745024
1276888277300	3.336985	3.405087	9.234595	0.5860319	0.0	-36.6875	-18.75	-27.4375	2.607802	1.0942122	-0.7752975
1276888277330	3.173541	2.982856	8.771504	-0.013382912	0.0	-36.1875	-16.8125	-28.6875	2.6070979	1.1099283	-0.8163617
1276888277370	3.1463003	2.2201166	8.430995	-0.53789616	0.0	-36.1875	-14.0625	-29.9375	2.7360432	1.1423558	-0.95630336
1276888277400	3.336985	1.56634	8.390134	-0.64241314	0.0	-35.9375	-11.5625	-30.9375	2.9250827	1.1568236	-1.131937
1276888277430	3.336985	1.5390993	8.390134	-0.6470299	0.0	-35.1875	-9.125	-31.1875	2.8332748	1.1579723	-1.1386474
1276888277470	3.2961242	1.3756552	8.771504	-0.335845	0.0	-35.1875	-7.625	-31.375	2.8402255	1.1841065	-1.1754185
1276888277510	3.1054392	1.2258313	9.384419	0.15395927	0.0	-34.4375	-6.625	-31.625	2.8534632	1.2289972	-1.1948354
1276888277550	2.7240696	1.0351465	9.615966	0.24117947	0.0	-33.4375	-5.875	-32.125	2.8661418	1.2765439	-1.2076494
1276888277590	2.4516625	0.9942854	9.615966	0.16661644	0.0	-33.1875	-5.125	-32.875	2.8148339	1.3023124	-1.1855099
1276888277630	2.6423476	1.1168685	9.507003	0.12373257	0.0	-32.4375	-3.875	-33.125	2.725096	1.2777393	-1.1708921
1276888277660	2.8738933	1.1168685	9.656827	0.33045864	0.0	-32.0	-3.1875	-33.625	2.7212586	1.2617413	-1.2001338
1276888277691	2.8738933	1.1849703	9.425281	0.118032455	0.0	-32.1875	-2.1875	-33.875	2.634412	1.2522153	-1.1797127
1276888277730	2.6423476	1.0760075	9.343558	-0.03721428	0.0	-32.0	-1.1875	-34.375	2.6119127	1.2744406	-1.1840844
1276888277770	2.7240696	1.0351465	9.234595	-0.12316799	0.0	-32.0	-0.9375	-34.875	2.622218	1.2651216	-1.2076494
1276888277800	2.8738933	1.1441092	9.466142	0.15206909	0.0	-32.0	-0.6875	-34.875	2.5767586	1.2549638	-1.1919253
1276888277830	2.7649305	1.1441092	9.507003	0.16014099	0.0	-31.25	-0.4375	-34.625	2.553358	1.2658662	-1.1784562
1276888277870	2.6423476	1.0760075	9.507003	0.11921978	0.0	-30.5	-1.1875	-34.125	2.609637	1.2792498	-1.1840844
1276888277910	2.4108016	1.0351465	9.507003	0.055732727	0.0	-30.25	-1.4375	-34.125	2.6151257	1.3015293	-1.1652229
1276888277940	2.5333846	1.0760075	9.534244	0.116939545	0.0	-30.25	-1.4375	-34.375	2.6074495	1.2897495	-1.1691533
1276888277970	2.4516625	1.0351465	9.466142	0.026457787	0.0	-30.25	-1.9375	-35.125	2.636387	1.2967381	-1.1712809
1276888278000	2.3018389	1.0760075	9.425281	-0.044879913	0.0	-30.75	-1.4375	-35.5625	2.5701854	1.3074714	-1.1335216
1276888278040	2.3426998	1.1849703	9.193735	-0.2454176	0.0	-30.5	-0.9375	-35.8125	2.4840217	1.2926416	-1.1025083
1276888278080	2.7240696	1.3075534	9.507003	0.16898727	0.0	-30.25	-1.1875	-35.375	2.4901757	1.2630614	-1.1232764
1276888278120	2.7240696	1.607201	9.997335	0.6790714	0.0	-30.75	-1.6875	-34.375	2.4072754	1.26439	-1.0377623
1276888278160	2.3426998	2.070293	10.147159	0.8112211	0.0	-31.25	-2.1875	-33.625	2.1997356	1.2719198	-0.84704834
1276888278200	1.9885708	2.070293	9.847511	0.45073795	0.0	-32.1875	-2.9375	-32.875	2.1627312	1.287148	-0.76526666
1276888278240	2.5606253	1.7297841	8.962189	-0.32668304	0.0	-33.6875	-3.1875	-32.375	2.394938	1.2387639	-0.97668135
1276888278310	4.140586	1.56634	8.662541	-0.07846928	0.0	-34.6875	-3.625	-31.625	2.625092	1.0983518	-1.2091448
1276888278350	3.445948	1.6889231	9.152874	0.1181736	0.0	-36.4375	-5.125	-30.1875	2.6344981	1.1737839	-1.115085
1276888278390	2.4108016	2.5333846	9.534244	0.34873295	0.0	-38.1875	-7.125	-27.6875	2.2925615	1.2192355	-0.7606099
1276888278430	1.7570249	3.336985	8.62168	-0.39623165	0.0	-39.375	-10.125	-25.0	2.0327046	1.158454	-0.48464617
1276888278470	5.053149	4.2904096	6.5922484	-0.45787048	0.0	-40.625	-14.3125	-22.0625	2.2619166	0.7826281	-0.8668502
1276888278500	10.61025	1.6889231	4.9850473	2.0373602	0.0	-41.125	-19.0	-19.3125	-1.6383826	0.43442824	-1.4129422
1276888278540	-0.08172209	3.6774938	7.205164	-1.7168407	0.0	-41.875	-22.5	-17.625	1.8290789	1.098766	0.022218566
1276888278580	3.1054392	2.8330324	4.399372	-3.7218904	0.0	-42.125	-24.75	-16.875	2.7260315	0.80815667	-0.83123755
1276888278620	2.3426998	3.405087	5.597963	-2.8481984	0.0	-41.625	-25.6875	-17.375	2.486509	0.9348062	-0.6026268
1276888278660	2.1111538	3.5957718	5.938472	-2.5504808	0.0	-39.875	-25.6875	-19.5625	2.4014773	0.9586266	-0.530896
1276888278700	1.7978859	3.7864566	6.3607025	-2.1890268	0.0	-36.9375	-25.1875	-22.3125	2.2948027	0.9881296	-0.4433016
1276888278740	1.334794	2.9556155	4.099725	-4.5793104	0.0	-33.9375	-24.25	-25.75	2.1021762	0.901543	-0.4241944
1276888278780	0.8036005	4.7126403	7.014479	-1.3179712	0.0	-31.25	-21.75	-28.9375	1.779879	0.9725657	-0.16889574
1276888278820	1.0760075	3.255263	8.158588	-0.9569559	0.0	-29.0	-18.25	-31.375	2.0812259	1.1729724	-0.319238
1276888278860	-1.9885708	3.336985	7.5865335	-1.2834244	0.0	-26.75	-15.8125	-33.875	1.107145	1.0975672	0.53741294
1276888278900	-1.2258313	4.671779	13.756551	4.77316	0.0	-23.8125	-14.0625	-35.5625	1.3977703	1.2331418	0.25660604
1276888278940	2.8330324	5.134871	16.3989	7.6093445	0.0	-20.5625	-13.0625	-36.8125	2.154676	1.2273505	-0.50416595
1276888278980	2.1111538	4.2495484	14.709975	5.6497087	0.0	-18.0625	-12.5625	-38.0625	2.1330264	1.2587596	-0.46108022
1276888279010	-0.14982383	2.7649305	10.923519	1.4623585	0.0	-16.125	-10.625	-38.8125	1.564892	1.322537	0.054134253
1276888279050	-0.84446156	2.4108016	8.62168	-0.814517	0.0	-15.125	-8.375	-39.75	1.1078093	1.2827566	0.33692646
1276888279090	-0.46309182	2.4516625	9.534244	0.04864788	0.0	-14.875	-5.875	-41.0	1.1270853	1.314846	0.18668933
1276888279130	0.53119355	2.7921712	12.217452	2.7370539	0.0	-14.125	-5.125	-41.75	1.4183232	1.3422236	-0.18799736
1276888279170	-1.0760075	1.9885708	12.721405	3.1141224	0.0	-13.375	-5.875	-42.25	1.0386307	1.3948996	0.49598137
1276888279210	-2.2201166	1.7978859	10.310603	0.8924084	0.0	-12.875	-6.125	-42.5	0.6400046	1.300503	0.89009863
1276888279250	-1.1168685	1.0760075	7.5456724	-2.103251	0.0	-12.375	-5.875	-42.25	0.76905847	1.3680885	0.8040296
1276888279290	-0.61291564	2.4925237	8.921328	-0.5234165	0.0	-12.375	-5.875	-41.75	0.9851562	1.2906502	0.24111769
1276888279320	-0.29964766	4.2904096	13.988097	4.8277025	0.0	-12.625	-6.875	-42.0	1.1015366	1.2725042	0.06972804
1276888279360	-0.46309182	4.3312707	10.378705	1.4490986	0.0	-12.875	-8.375	-41.0	0.9666829	1.1734221	0.10651359
1276888279400	-0.95342433	2.8330324	8.349273	-0.93842316	0.0	-13.125	-10.375	-41.25	1.0715761	1.2269993	0.32463238
1276888279440	-0.84446156	3.405087	9.847511	0.6471157	0.0	-12.875	-10.8125	-41.25	1.1434273	1.2285588	0.24309543
1276888279470	-0.53119355	3.6774938	9.00305	-0.06698704	0.0	-12.625	-10.8125	-41.75	1.0689802	1.1793803	0.14345226
1276888279510	-0.5720546	4.0588636	8.962189	0.04842186	0.0	-12.625	-10.625	-42.5	0.963806	1.1418357	0.14001736
1276888279550	-0.50395286	3.990762	9.152874	0.19111156	0.0	-12.625	-10.8125	-42.5	1.009536	1.1567299	0.12561497
1276888279590	-0.6946377	3.8681788	9.193735	0.19185448	0.0	-13.125	-10.8125	-42.5	1.0227273	1.1668346	0.17768364
1276888279630	-0.6946377	3.6774938	9.084772	0.01880455	0.0	-12.625	-10.375	-42.0	1.0232508	1.180026	0.18668933
1276888279670	-0.88532263	3.405087	9.043911	-0.10248852	0.0	-12.375	-9.875	-42.0	1.0031056	1.1997875	0.25436807
1276888279710	-0.8036005	3.3778462	9.043911	-0.1191349	0.0	-12.125	-9.375	-41.75	0.9948557	1.2042301	0.23356146
1276888279750	-1.0351465	2.8330324	8.962189	-0.35051823	0.0	-11.625	-9.125	-42.0	0.99833447	1.2461536	0.3503142
1276888279790	-0.50395286	4.0180025	9.00305	0.06518936	0.0	-12.375	-8.875	-42.25	0.8961438	1.1481171	0.124772176
1276888279830	-0.29964766	3.7864566	9.384419	0.31729984	0.0	-12.375	-8.875	-42.25	0.8961438	1.1481171	0.124772176
1276888279870	-0.7218784	3.214402	9.084772	-0.14297771	0.0	-12.375	-8.125	-42.5	0.9655629	1.2229096	0.22091109
1276888279910	-0.6537767	3.1463003	8.921328	-0.3242073	0.0	-12.125	-8.125	-42.75	0.96720487	1.2250592	0.2048767
1276888279950	-0.6537767	3.255263	9.275456	0.045165062	0.0	-12.125	-7.625	-42.25	0.9562593	1.2270455	0.19820008
1276888279990	-0.53119355	3.255263	9.234595	-6.9999695E-4	0.0	-12.375	-7.625	-42.25	0.98073286	1.2277484	0.16175427
1276888280030	-0.50395286	3.2961242	9.193735	-0.026917458	0.0	-12.125	-8.125	-42.0	0.9995765	1.222866	0.15171765
1276888280070	-0.50395286	3.2961242	9.234595	0.011504173	0.0	-12.375	-7.875	-41.5	1.0046228	1.224285	0.15171765
1276888280100	-0.53119355	3.336985	9.234595	0.026730537	0.0	-12.375	-8.375	-42.0	1.0105568	1.2200218	0.15785922
1276888280140	-0.5720546	3.336985	9.193735	-0.009329796	0.0	-12.125	-8.375	-41.75	0.9988383	1.2179497	0.16977829
1276888280170	-0.53119355	3.336985	9.152874	-0.049973488	0.0	-12.625	-8.375	-41.75	1.0149859	1.2171435	0.1578592
1276888280200	-0.46309182	3.405087	9.193735	0.008330345	0.0	-13.375	-8.625	-42.0	1.0438038	1.2130958	0.1351707
1276888280240	-0.38136974	3.405087	9.193735	0.004814148	0.0	-13.625	-8.375	-41.75	1.0551944	1.2140558	0.11153518
1276888280280	-0.3405087	3.336985	9.234595	0.01827526	0.0	-14.125	-8.875	-42.25	1.107304	1.2223815	0.10168886
1276888280320	-0.3405087	3.336985	9.193735	-0.020119667	0.0	-13.875	-8.875	-42.25	1.0985999	1.2209557	0.101688854
1276888280360	-0.42223078	3.2961242	9.152874	-0.06920624	0.0	-13.125	-8.875	-42.0	1.0763671	1.2225329	0.12740532
1276888280400	-0.6537767	3.0645783	8.921328	-0.35100937	0.0	-12.875	-8.875	-41.75	1.0554391	1.2330163	0.21018259
1276888280440	-0.38136974	3.568531	9.302697	0.1643095	0.0	-12.875	-8.875	-41.75	1.0554391	1.2330163	0.21018259
1276888280470	-0.46309182	3.2961242	9.112013	-0.10573959	0.0	-12.875	-8.875	-41.75	1.0554391	1.2330163	0.21018259
1276888280500	-0.38136974	3.3778462	9.193735	-0.0046072006	0.0	-13.125	-9.125	-42.25	1.0793588	1.2166438	0.11242714
1276888280540	-0.38136974	3.3778462	9.302697	0.09766579	0.0	-13.375	-9.125	-42.25	1.0940207	1.2204587	0.11242714
1276888280580	-0.3405087	3.3778462	9.193735	-0.0061120987	0.0	-13.375	-8.625	-42.0	1.0699946	1.2170594	0.100467056
1276888280610	-0.3405087	3.336985	9.112013	-0.09685135	0.0	-13.875	-9.125	-42.0	1.1100227	1.218071	0.10168886
1276888280640	-0.29964766	3.336985	9.234595	0.016943932	0.0	-14.375	-8.625	-41.5	1.1208842	1.2227548	0.08955573
1276888280670	-0.29964766	3.2961242	9.193735	-0.035315514	0.0	-14.125	-8.875	-41.75	1.1292657	1.2252434	0.09065989
1276888280700	-0.29964766	3.2961242	9.234595	0.0031394958	0.0	-14.125	-8.875	-41.25	1.1418576	1.2266544	0.09065989
1276888280740	-0.46309182	3.2961242	9.193735	-0.028938293	0.0	-13.875	-8.375	-41.5	1.0707227	1.2234364	0.13958225
1276888280780	-0.38136974	3.255263	9.275456	0.030842781	0.0	-13.625	-8.375	-41.75	1.090299	1.231136	0.11662319
1276888280820	-0.3405087	3.214402	9.193735	-0.06123638	0.0	-13.625	-8.125	-41.5	1.0909585	1.2327095	0.10553861
1276888280880	-0.42223078	3.214402	9.275456	0.019068718	0.0	-13.375	-8.375	-42.0	1.0803291	1.2345437	0.13060817
1276888280920	-0.3405087	3.2961242	9.193735	-0.033976555	0.0	-13.375	-8.125	-42.25	1.0550593	1.224863	0.10294063
1276888280960	-0.38136974	3.2961242	9.234595	0.0059757233	0.0	-13.125	-8.375	-42.25	1.0583185	1.2258487	0.11519027
1276888280990	-0.42223078	3.2961242	9.302697	0.07175541	0.0	-13.625	-8.375	-42.5	1.0634418	1.2277088	0.12740532
1276888281020	-0.38136974	3.214402	9.275456	0.01739788	0.0	-13.625	-8.375	-42.5	1.0634418	1.2277088	0.12740532
1276888281050	-0.38136974	3.173541	9.193735	-0.073122025	0.0	-13.625	-8.625	-42.25	1.1047872	1.2362	0.11959815
1276888281080	-0.38136974	3.255263	9.193735	-0.04617119	0.0	-14.125	-8.875	-42.0	1.1168729	1.2283466	0.11662319
1276888281110	-0.38136974	3.214402	9.234595	-0.021172523	0.0	-13.875	-9.125	-42.0	1.136772	1.2336547	0.11809204
1276888281150	-0.38136974	3.255263	9.234595	-0.007674217	0.0	-14.125	-8.625	-42.0	1.1067458	1.2297468	0.11662319
1276888281180	-0.38136974	3.214402	9.234595	-0.021172523	0.0	-14.625	-8.875	-41.75	1.1418905	1.2336547	0.11809204
1276888281220	-0.38136974	3.2961242	9.234595	0.0059757233	0.0	-14.375	-8.125	-42.0	1.0784144	1.2258487	0.11519027
1276888281260	-0.38136974	3.255263	9.234595	-0.007674217	0.0	-14.375	-7.625	-42.25	1.0563629	1.2297468	0.11662319
1276888281300	-0.29964766	3.2961242	9.234595	0.0031394958	0.0	-14.125	-7.875	-42.0	1.0751293	1.2266544	0.09065989
1276888281330	-0.3405087	3.2961242	9.193735	-0.033976555	0.0	-13.625	-7.625	-42.25	1.0352176	1.224863	0.10294063
1276888281370	-0.38136974	3.255263	9.193735	-0.04617119	0.0	-13.625	-7.625	-42.5	1.0314293	1.2283466	0.11662319
1276888281410	-0.3405087	3.214402	9.193735	-0.06123638	0.0	-13.625	-8.125	-42.25	1.0774659	1.2327095	0.10553861
1276888281450	-0.29964766	3.2961242	9.193735	-0.035315514	0.0	-13.875	-8.125	-42.5	1.0700877	1.2252434	0.09065989
1276888281480	-0.29964766	3.255263	9.193735	-0.049022675	0.0	-14.125	-8.375	-42.5	1.0972756	1.2291671	0.09179154
1276888281520	-0.3405087	3.255263	9.234595	-0.009179115	0.0	-14.375	-8.625	-42.0	1.1199751	1.2301798	0.10422349
1276888281590	-0.38136974	3.214402	9.234595	-0.021172523	0.0	-14.125	-8.625	-42.0	1.1146461	1.2336547	0.11809204
1276888281630	-0.3405087	3.255263	9.234595	-0.009179115	0.0	-13.875	-8.625	-42.0	1.1094624	1.2301798	0.10422349
1276888281661	-0.3405087	3.255263	9.302697	0.055036545	0.0	-13.375	-8.375	-42.75	1.0762205	1.2324866	0.10422349
1276888281700	-0.42223078	3.255263	9.275456	0.03251171	0.0	-13.125	-8.125	-42.75	1.0397775	1.2306565	0.12898698
1276888281740	-0.50395286	3.214402	9.112013	-0.13115883	0.0	-13.625	-7.875	-42.25	1.0273683	1.2278329	0.15551375
1276888281780	-0.46309182	3.173541	9.302697	0.033370018	0.0	-13.875	-7.625	-42.0	1.0529027	1.2388016	0.14490005
1276888281835	-0.42223078	3.173541	9.275456	0.005777359	0.0	-13.875	-7.625	-41.5	1.0675613	1.2384409	0.1322704
1276888281870	-0.38136974	3.173541	9.234595	-0.034519196	0.0	-14.125	-7.625	-41.75	1.0740961	1.237573	0.11959816
1276888281900	-0.46309182	3.1463003	9.275456	-0.0011539459	0.0	-13.875	-7.875	-42.0	1.0688579	1.2404951	0.14613688
1276888281930	-0.38136974	3.1463003	9.275456	-0.004673958	0.0	-13.625	-7.875	-42.25	1.0757277	1.2415438	0.12062366
1276888281970	-0.42223078	3.1463003	9.193735	-0.08028126	0.0	-13.625	-8.375	-42.25	1.0883061	1.2383233	0.13340212
1276888282001	-0.42223078	3.1054392	9.234595	-0.054739	0.0	-13.375	-8.625	-42.0	1.1125162	1.2436162	0.13513626
1276888282040	-0.46309182	3.173541	9.275456	0.0076208115	0.0	-13.125	-8.375	-42.25	1.0702657	1.237897	0.14490004
1276888282080	-0.38136974	3.1463003	9.234595	-0.043331146	0.0	-13.375	-8.375	-42.0	1.0988146	1.2401905	0.12062366
1276888282120	-0.38136974	3.1463003	9.193735	-0.08196926	0.0	-13.375	-7.875	-41.75	1.0726501	1.2388268	0.12062367
1276888282160	-0.42223078	3.1463003	9.234595	-0.04164982	0.0	-13.375	-7.625	-41.75	1.0541046	1.2396894	0.13340212
1276888282190	-0.38136974	3.1463003	9.234595	-0.043331146	0.0	-13.875	-7.625	-41.75	1.0736256	1.2401905	0.12062366
1276888282230	-0.38136974	3.173541	9.234595	-0.034519196	0.0	-13.875	-7.625	-42.0	1.0642481	1.237573	0.11959816
1276888282270	-0.42223078	3.1463003	9.193735	-0.08028126	0.0	-13.875	-7.625	-42.5	1.0498879	1.2383233	0.13340212
1276888282310	-0.38136974	3.173541	9.234595	-0.034519196	0.0	-14.375	-7.625	-42.25	1.0711889	1.237573	0.11959816
1276888282340	-0.3405087	3.1463003	9.234595	-0.044841766	0.0	-13.875	-7.375	-42.5	1.0558907	1.240642	0.10780552
1276888282380	-0.29964766	3.173541	9.275456	0.0012674332	0.0	-14.125	-7.125	-42.75	1.0504718	1.2397755	0.0941415
1276888282420	-0.29964766	3.173541	9.343558	0.06569672	0.0	-14.125	-7.125	-42.75	1.0504718	1.2397755	0.0941415
1276888282450	-0.29964766	3.173541	9.275456	0.0012674332	0.0	-13.625	-7.375	-43.0	1.0466162	1.2397755	0.0941415
1276888282520	-0.38136974	3.173541	9.275456	0.0041046143	0.0	-13.625	-7.625	-42.5	1.0528967	1.2389351	0.11959816
1276888282560	-0.38136974	3.173541	9.193735	-0.073122025	0.0	-13.375	-7.875	-42.25	1.0584949	1.2362	0.11959815
1276888282590	-0.3405087	3.173541	9.234595	-0.03602791	0.0	-13.625	-7.875	-42.25	1.0753458	1.2380196	0.106887214
1276888282620	-0.29964766	3.214402	9.234595	-0.02401638	0.0	-13.625	-7.625	-42.25	1.0615655	1.2344851	0.092951715
1276888282650	-0.3405087	3.214402	9.193735	-0.06123638	0.0	-13.625	-7.625	-42.25	1.0615655	1.2344851	0.092951715
1276888282680	-0.38136974	3.173541	9.275456	0.0041046143	0.0	-14.125	-7.625	-42.25	1.0685993	1.2389351	0.11959816
1276888282750	-0.38136974	3.214402	9.234595	-0.021172523	0.0	-14.125	-7.375	-42.5	1.0412856	1.2336547	0.11809204
1276888282790	-0.38136974	3.1463003	9.234595	-0.043331146	0.0	-13.875	-7.375	-42.5	1.0479376	1.2401905	0.12062366
1276888282820	-0.38136974	3.1463003	9.302697	0.021107674	0.0	-13.625	-7.375	-42.25	1.0511006	1.2424401	0.12062367
1276888282860	-0.46309182	3.173541	9.152874	-0.10814953	0.0	-12.875	-7.625	-42.75	1.0059875	1.2337667	0.14490004
1276888282900	-0.38136974	3.1463003	9.275456	-0.004673958	0.0	-12.875	-7.625	-42.25	1.0441978	1.2415438	0.12062366
1276888282940	-0.3405087	3.1463003	9.275456	-0.006177902	0.0	-12.875	-7.625	-42.25	1.0441978	1.2415438	0.12062366
1276888283020	-0.29964766	3.214402	9.275456	0.014565468	0.0	-13.875	-7.375	-42.5	1.0534263	1.235858	0.09295172
1276888283050	-0.3405087	3.173541	9.275456	0.0026006699	0.0	-13.875	-7.625	-42.5	1.0666713	1.2393804	0.10688721
1276888283090	-0.3405087	3.1463003	9.302697	0.01960659	0.0	-14.125	-7.125	-42.25	1.0579269	1.2428887	0.10780552
1276888283120	-0.38136974	3.173541	9.302697	0.029862404	0.0	-14.125	-6.875	-41.75	1.0404218	1.2398375	0.11959816
1276888283160	-0.38136974	3.1463003	9.275456	-0.004673958	0.0	-14.125	-6.875	-42.0	1.0393242	1.2415438	0.12062366
1276888283190	-0.3405087	3.1463003	9.234595	-0.044841766	0.0	-13.625	-6.875	-41.75	1.0363476	1.240642	0.10780552
1276888283230	-0.38136974	3.1463003	9.234595	-0.043331146	0.0	-13.875	-7.375	-42.0	1.0562872	1.2401905	0.12062366
1276888283270	-0.38136974	3.1463003	9.275456	-0.004673958	0.0	-13.375	-7.625	-42.25	1.05648	1.2415438	0.12062366
1276888283310	-0.3405087	3.1054392	9.234595	-0.05793476	0.0	-13.375	-7.875	-42.0	1.0876682	1.2445837	0.10921284
1276888283340	-0.38136974	3.1054392	9.234595	-0.056422234	0.0	-13.875	-8.125	-42.0	1.1038822	1.2441254	0.12219518
1276888283380	-0.42223078	3.1463003	9.275456	-0.002998352	0.0	-13.375	-7.875	-42.0	1.0662595	1.241044	0.13340211
1276888283440	-0.42223078	3.1054392	9.234595	-0.054739	0.0	-13.375	-7.875	-41.25	1.0841278	1.2436162	0.13513626
1276888283470	-0.42223078	3.1463003	9.275456	-0.002998352	0.0	-13.375	-7.625	-41.75	1.0570788	1.241044	0.13340211
1276888283501	-0.3405087	3.1463003	9.302697	0.01960659	0.0	-13.625	-7.875	-41.75	1.0947058	1.2428887	0.10780552
1276888283540	-0.42223078	3.1054392	9.302697	0.009775162	0.0	-13.625	-8.125	-41.75	1.0994254	1.2458457	0.13513626
1276888283580	-0.46309182	3.1054392	9.302697	0.0116176605	0.0	-13.625	-8.375	-42.5	1.0914468	1.245289	0.14803195
1276888283610	-0.42223078	3.1463003	9.275456	-0.002998352	0.0	-13.375	-8.625	-42.25	1.1030166	1.241044	0.13340211
1276888283650	-0.50395286	3.1054392	9.302697	0.013629913	0.0	-12.875	-8.125	-42.75	1.049178	1.2446824	0.16087826
1276888283690	-0.50395286	3.1463003	9.343558	0.06529236	0.0	-12.875	-8.125	-42.75	1.049178	1.2446824	0.16087826
1276888283730	-0.61291564	3.0645783	9.084772	-0.19934082	0.0	-12.875	-7.625	-42.75	0.99214476	1.239466	0.19739555
1276888283770	-0.61291564	3.1054392	9.343558	0.05851555	0.0	-12.625	-7.625	-42.75	0.9976543	1.244158	0.19486393
1276888283810	-0.5720546	3.1054392	9.275456	-0.008431435	0.0	-12.375	-7.875	-42.25	1.0170398	1.2426679	0.18216832
1276888283840	-0.5720546	3.0645783	9.193735	-0.09873295	0.0	-12.125	-7.625	-42.5	0.9944362	1.2438728	0.18454279
1276888283880	-0.5720546	3.0645783	9.275456	-0.021305084	0.0	-12.125	-7.875	-42.25	1.0187403	1.2465549	0.18454279
1276888283920	-0.53119355	3.1463003	9.302697	0.028060913	0.0	-12.375	-7.625	-42.75	0.99702144	1.240371	0.16725394
1276888283960	-0.50395286	3.1054392	9.302697	0.013629913	0.0	-12.375	-7.625	-43.5	0.9970414	1.2446824	0.16087826
1276888283990	-0.53119355	3.0645783	9.302697	0.0022220612	0.0	-12.625	-7.875	-43.0	1.0277072	1.2481391	0.17162806
1276888284020	-0.53119355	3.1054392	9.302697	0.015065193	0.0	-12.625	-7.875	-43.25	1.0158606	1.2442508	0.16941305
1276888284050	-0.53119355	3.1054392	9.275456	-0.010731697	0.0	-12.625	-8.375	-42.75	1.0500036	1.2433585	0.16941305
1276888284080	-0.53119355	3.1054392	9.302697	0.015065193	0.0	-12.625	-8.125	-42.25	1.0467784	1.2442508	0.16941305
1276888284150	-0.53119355	3.1463003	9.234595	-0.03633213	0.0	-12.625	-7.125	-42.0	0.9841814	1.2381098	0.16725394
1276888284180	-0.53119355	3.1054392	9.275456	-0.010731697	0.0	-12.625	-6.875	-41.75	0.9849546	1.2433585	0.16941305
1276888284210	-0.50395286	3.1054392	9.275456	-0.012171745	0.0	-12.875	-6.875	-41.75	0.99643946	1.2437915	0.16087824
1276888284250	-0.53119355	3.1054392	9.234595	-0.04941368	0.0	-13.375	-7.375	-41.75	1.0263681	1.2420118	0.16941305
1276888284290	-0.53119355	3.1054392	9.343558	0.053775787	0.0	-13.375	-7.875	-41.75	1.0605766	1.2455801	0.16941305
1276888284320	-0.53119355	3.1054392	9.234595	-0.04941368	0.0	-13.125	-7.875	-42.0	1.0433367	1.2420118	0.16941305
1276888284360	-0.50395286	3.1463003	9.343558	0.06529236	0.0	-13.125	-7.625	-42.25	1.0316027	1.2421377	0.15882409
1276888284400	-0.50395286	3.1463003	9.234595	-0.03777504	0.0	-12.875	-7.125	-42.5	0.9872879	1.2385374	0.15882409
1276888284440	-0.50395286	3.1463003	9.302697	0.02662754	0.0	-12.625	-7.125	-42.5	0.98569596	1.2407963	0.1588241
1276888284470	-0.53119355	3.1054392	9.234595	-0.04941368	0.0	-13.375	-7.125	-42.75	0.99730957	1.2420118	0.16941305
1276888284510	-0.50395286	3.1054392	9.193735	-0.08952713	0.0	-13.375	-6.875	-42.75	0.98708344	1.2410904	0.16087826
1276888284590	-0.53119355	3.1054392	9.275456	-0.010731697	0.0	-13.375	-6.625	-42.75	0.9747267	1.2433585	0.16941305
1276888284620	-0.53119355	3.0645783	9.234595	-0.06234169	0.0	-12.875	-6.125	-42.5	0.94471014	1.2459229	0.17162807
1276888284730	-0.53119355	3.1054392	9.234595	-0.04941368	0.0	-13.125	-6.875	-41.75	0.99447024	1.2420118	0.16941305
1276888284760	-0.5720546	3.1054392	9.302697	0.017359734	0.0	-13.125	-7.375	-42.0	1.01316	1.2435616	0.1821683
1276888284790	-0.53119355	3.1054392	9.234595	-0.04941368	0.0	-12.625	-7.625	-42.5	1.0099411	1.2420118	0.16941305
1276888284820	-0.50395286	3.1463003	9.275456	8.611679E-4	0.0	-12.875	-7.875	-42.75	1.0258627	1.239896	0.15882409
1276888284860	-0.53119355	3.1054392	9.302697	0.015065193	0.0	-12.625	-7.875	-42.75	1.0243173	1.2442508	0.16941305
1276888284900	-0.53119355	3.0645783	9.275456	-0.023608208	0.0	-12.375	-7.875	-42.25	1.032739	1.2472559	0.17162806
1276888284940	-0.50395286	3.1054392	9.275456	-0.012171745	0.0	-12.625	-7.625	-42.5	1.0181736	1.2437915	0.16087824
1276888284980	-0.50395286	3.1463003	9.234595	-0.03777504	0.0	-12.125	-7.375	-42.5	0.9810941	1.2385374	0.15882409
1276888285040	-0.50395286	3.0645783	9.302697	7.8487396E-4	0.0	-13.125	-7.125	-42.5	1.0125574	1.2485778	0.16298574
1276888285080	-0.50395286	3.0645783	9.275456	-0.025050163	0.0	-13.375	-7.625	-42.25	1.0469881	1.2476958	0.16298573
1276888285110	-0.50395286	3.1054392	9.343558	0.052345276	0.0	-13.625	-7.375	-41.75	1.0448918	1.2460107	0.16087824
1276888285150	-0.50395286	3.1463003	9.343558	0.06529236	0.0	-13.375	-7.625	-42.25	1.0372561	1.2421377	0.15882409
1276888285180	-0.53119355	3.1054392	9.302697	0.015065193	0.0	-13.125	-7.875	-42.0	1.0482198	1.2442508	0.16941305
1276888285220	-0.53119355	3.1463003	9.275456	0.002298355	0.0	-12.875	-7.375	-41.75	1.0106769	1.2394698	0.16725394
1276888285260	-0.50395286	3.1054392	9.234595	-0.050858498	0.0	-13.125	-7.625	-42.25	1.0311881	1.2424461	0.16087826
1276888285300	-0.46309182	3.173541	9.234595	-0.03098774	0.0	-12.875	-7.625	-41.75	1.0292526	1.236531	0.14490004
1276888285330	-0.46309182	3.1463003	9.234595	-0.039797783	0.0	-13.125	-7.375	-42.25	1.018436	1.2391381	0.14613688
1276888285410	-0.46309182	3.1463003	9.302697	0.024618149	0.0	-13.125	-7.625	-42.75	1.0282018	1.2413934	0.14613688
1276888285440	-0.46309182	3.1463003	9.275456	-0.0011539459	0.0	-13.625	-7.375	-42.75	1.0249577	1.2404951	0.14613688
1276888285470	-0.50395286	3.1054392	9.302697	0.013629913	0.0	-13.375	-7.375	-43.0	1.0162395	1.2446824	0.16087826
1276888285503	-0.53119355	3.0645783	9.343558	0.0409832	0.0	-13.125	-7.375	-43.0	1.0150683	1.2494547	0.17162807
1276888285540	-0.46309182	3.1054392	9.302697	0.0116176605	0.0	-12.875	-7.125	-42.75	1.0029888	1.245289	0.14803195
1276888285580	-0.53119355	3.0645783	9.275456	-0.023608208	0.0	-12.625	-7.375	-43.0	0.998482	1.2472559	0.17162806
