#timestamp	accel_x	accel_y	accel_z	accel_mag	temperature	mag_x	mag_y	mag_z	azimuth	pitch	roll
1277320595986	2.2609777	-0.040861044	9.384419	-0.15361881	0.0	-24.0625	-0.9375	-40.75	-3.042676	1.3343359	-1.5888666
1277320596025	2.1792557	0.040861044	9.384419	-0.17243195	0.0	-23.8125	-1.4375	-41.75	-3.0697691	1.3425809	-1.5520486
1277320596065	2.1792557	0.0	9.425281	-0.13271236	0.0	-24.0625	-1.4375	-41.75	-3.0395546	1.3435755	-1.5707964
1277320596095	2.2609777	-0.040861044	9.384419	-0.15361881	0.0	-24.3125	-0.9375	-42.3125	-3.0414674	1.3343359	-1.5888666
1277320596125	2.3426998	-0.14982383	9.425281	-0.09343243	0.0	-25.3125	-0.6875	-42.0	-2.9822164	1.3267002	-1.6346629
1277320596156	2.3426998	0.0	9.193735	-0.31913185	0.0	-25.0625	-0.6875	-41.5	-3.0926614	1.3212914	-1.5707964
1277320596195	2.3426998	-0.040861044	9.152874	-0.358634	0.0	-25.8125	0.0625	-41.5	-3.1152482	1.3201869	-1.5882365
1277320596236	2.3018389	0.10896278	9.234595	-0.28887272	0.0	-25.8125	-0.1875	-41.75	3.072436	1.326249	-1.5234944
1277320596275	2.152015	0.10896278	9.343558	-0.21784782	0.0	-25.0625	-0.4375	-41.75	3.0863972	1.3441429	-1.5202066
1277320596305	2.0294318	0.27240697	9.466142	-0.12157726	0.0	-25.0625	-0.1875	-42.0	2.940224	1.3577673	-1.4373657
1277320596345	1.9477097	0.42223078	9.534244	-0.06633949	0.0	-23.5625	-0.9375	-42.3125	2.8597713	1.3647327	-1.3573164
1277320596385	1.879608	0.42223078	9.343558	-0.2665615	0.0	-23.5625	-1.1875	-42.3125	2.867135	1.367466	-1.3498268
1277320596425	1.9885708	0.313268	9.275456	-0.31525135	0.0	-23.5625	-1.1875	-42.5625	2.9640708	1.357076	-1.4145463
1277320596467	2.1111538	0.19068487	9.302697	-0.26550198	0.0	-23.375	-1.4375	-42.5625	3.0914376	1.3467577	-1.4807181
1277320596505	2.152015	0.3405087	9.302697	-0.25221157	0.0	-24.3125	-1.4375	-42.3125	2.9726338	1.3407327	-1.4138695
1277320596545	2.0294318	0.313268	9.343558	-0.24010372	0.0	-24.3125	-1.4375	-41.5	2.9879248	1.3544619	-1.4176427
1277320596585	2.0294318	0.53119355	9.575105	-0.004436493	0.0	-24.5625	-1.75	-41.5	2.8440704	1.3551154	-1.3147945
1277320596625	2.070293	0.53119355	9.575105	0.0041046143	0.0	-24.5625	-1.75	-41.5	2.8440704	1.3551154	-1.3147945
1277320596667	2.1792557	0.5720546	9.425281	-0.115813255	0.0	-24.0625	-2.0	-41.5	2.841278	1.3361523	-1.314088
1277320596705	1.7570249	0.53119355	9.615966	-0.017059326	0.0	-23.375	-1.75	-42.3125	2.8049335	1.3821785	-1.2772074
1277320596746	1.920469	0.040861044	9.112013	-0.4943657	0.0	-22.875	-1.1875	-42.5625	-3.0902076	1.3630289	-1.549523
1277320596788	1.7297841	-0.3405087	9.302697	-0.33837318	0.0	-22.875	-1.1875	-42.3125	-2.7608302	1.383505	-1.7651616
1277320596826	1.8387469	-0.7627395	9.765789	0.15996361	0.0	-22.625	-0.6875	-42.3125	-2.4725952	1.3697102	-1.9640085
1277320596866	2.7240696	-0.23154591	8.853226	-0.5409193	0.0	-23.125	-0.6875	-41.75	-2.8739927	1.2712841	-1.6555924
1277320596906	2.2609777	-0.10896278	8.812365	-0.70820713	0.0	-22.625	-0.9375	-42.0	-2.9656806	1.3193654	-1.6189518
1277320596945	-0.6537767	0.3405087	11.75436	1.9708004	0.0	-21.875	-0.9375	-42.5625	0.46877754	1.508167	1.0906212
1277320596985	0.46309182	0.50395286	10.419566	0.63537025	0.0	-21.375	-1.1875	-42.5625	2.268227	1.5052048	-0.7431698
1277320597025	1.56634	-0.10896278	7.9270425	-1.725604	0.0	-21.125	-0.9375	-42.8125	-2.9486444	1.3752549	-1.6402496
1277320597065	3.0237172	0.6946377	8.349273	-0.8995886	0.0	-21.875	-1.4375	-42.5625	2.5720572	1.2150213	-1.3449847
1277320597106	2.9147544	0.0	9.956474	0.56770134	0.0	-23.125	-2.5	-42.3125	-2.9036012	1.2860044	-1.5707964
1277320597145	1.8387469	1.0760075	9.724928	0.14890099	0.0	-24.5625	-4.0	-41.75	2.5643284	1.3551329	-1.0413413
1277320597192	1.6480621	1.6889231	9.384419	-0.13008595	0.0	-25.3125	-6.0625	-41.25	2.2536986	1.3244466	-0.7731539
1277320597236	3.0237172	0.9942854	9.615966	0.32242966	0.0	-25.8125	-7.5625	-40.25	3.0734093	1.2511369	-1.2531053
1277320597275	1.9477097	1.5390993	9.112013	-0.36254215	0.0	-25.8125	-7.5625	-39.75	2.5047834	1.3048176	-0.9020536
1277320597305	1.6889231	1.4573772	8.308413	-1.203969	0.0	-26.0625	-7.0625	-39.75	2.4174256	1.3084856	-0.8588588
1277320597335	1.8387469	0.0	8.240311	-1.3636827	0.0	-26.3125	-6.0625	-40.0	-2.798467	1.3512528	-1.5707964
1277320597365	1.6889231	-1.0760075	9.888372	0.28246117	0.0	-25.8125	-4.8125	-40.25	-2.1135175	1.3709819	-2.1380472
1277320597395	1.6889231	-0.61291564	11.34575	1.680481	0.0	-25.3125	-4.25	-41.0	-2.4627824	1.4137416	-1.9189197
1277320597435	1.7570249	0.38136974	9.697687	0.05629635	0.0	-24.3125	-4.25	-41.25	3.0816598	1.3874792	-1.3570575
1277320597466	2.3018389	0.42223078	7.5456724	-1.9064026	0.0	-23.125	-4.5	-41.5	-3.1167223	1.2700597	-1.3893812
1277320597495	2.1111538	0.5720546	7.7363577	-1.7670326	0.0	-22.875	-4.5	-41.75	2.9939191	1.2952596	-1.3061827
1277320597535	2.6423476	0.95342433	8.853226	-0.5184517	0.0	-23.125	-5.0625	-41.75	2.8348258	1.2635477	-1.2245108
1277320597575	2.5606253	0.9942854	10.760075	1.2985115	0.0	-22.875	-5.0625	-41.75	2.8556101	1.3208493	-1.2004185
1277320597605	1.7570249	1.2258313	11.495573	1.8868523	0.0	-23.5625	-5.5625	-41.25	2.5921912	1.3865445	-0.96163285
1277320597637	1.1168685	1.4573772	10.310603	0.6661663	0.0	-23.5625	-6.8125	-41.75	2.26482	1.3945627	-0.6538865
1277320597675	1.1168685	1.2258313	8.662541	-0.986804	0.0	-23.5625	-8.125	-41.25	2.425561	1.3816478	-0.73892003
1277320597705	1.4573772	0.9942854	7.7363577	-1.8716779	0.0	-23.375	-9.375	-41.25	2.7901204	1.3465847	-0.97208744
1277320597737	2.8738933	0.42223078	8.158588	-1.14639	0.0	-22.875	-9.875	-41.75	-2.502341	1.2287551	-1.4249206
1277320597775	2.5333846	0.50395286	9.80665	0.3344736	0.0	-23.125	-10.125	-41.5	-2.7539802	1.313251	-1.3744348
1277320597815	1.3075534	0.95342433	9.234595	-0.43133926	0.0	-23.5625	-9.875	-41.5	2.8131127	1.3973209	-0.94076246
1277320597845	1.4573772	1.4573772	7.504812	-2.0239706	0.0	-24.3125	-9.625	-41.5	2.4343452	1.3027744	-0.7853982
1277320597886	1.9477097	1.3756552	9.152874	-0.3482628	0.0	-25.0625	-9.875	-40.75	2.7399096	1.3159388	-0.9558588
1277320597915	2.1792557	1.1849703	9.534244	0.045004845	0.0	-25.5625	-10.125	-40.5	2.9398904	1.316263	-1.0727643
1277320597945	2.1111538	1.1441092	8.921328	-0.56781673	0.0	-25.3125	-10.125	-40.25	2.94289	1.3078699	-1.0741657
1277320597989	2.2201166	1.2666923	8.689782	-0.7487402	0.0	-25.5625	-9.875	-39.75	2.8715456	1.2847197	-1.0523112
1277320598030	2.3699405	1.5390993	9.275456	-0.1102829	0.0	-25.5625	-9.875	-39.75	2.8715456	1.2847197	-1.0523112
1277320598066	2.6014864	1.5390993	8.921328	-0.38716793	0.0	-25.5625	-10.375	-38.9375	2.8444366	1.2441211	-1.0365591
1277320598096	2.4925237	1.7570249	8.430995	-0.8410778	0.0	-26.0625	-11.1875	-38.4375	2.717873	1.2237295	-0.9567773
1277320598138	2.6832085	1.920469	8.730643	-0.47327232	0.0	-26.3125	-11.9375	-38.4375	2.7322803	1.2094496	-0.94958717
1277320598176	2.3018389	1.879608	9.997335	0.623024	0.0	-26.3125	-12.4375	-38.1875	2.7331758	1.281859	-0.88603425
1277320598215	2.0294318	1.7570249	10.269742	0.8081188	0.0	-26.3125	-12.4375	-38.9375	2.7165473	1.3151323	-0.85721684
1277320598253	2.4516625	1.7570249	9.302697	-0.027183533	0.0	-25.0625	-11.9375	-39.75	2.7991006	1.2572571	-0.94897205
1277320598295	2.1111538	1.4573772	7.8180795	-1.5784492	0.0	-23.8125	-11.4375	-40.5	2.8154247	1.2537379	-0.9665949
1277320598325	1.3756552	1.2258313	8.662541	-0.9503126	0.0	-23.125	-10.625	-41.5	2.6849003	1.3612133	-0.84292626
1277320598355	1.3756552	1.1168685	9.956474	0.3062725	0.0	-22.125	-9.625	-41.5	2.748551	1.3946702	-0.88885266
1277320598395	1.9477097	1.1441092	9.697687	0.15064335	0.0	-22.625	-9.375	-41.0	2.9101229	1.3419466	-1.0396837
1277320598435	1.7570249	1.3756552	9.534244	-0.01474762	0.0	-23.125	-9.625	-40.75	2.7025695	1.3408846	-0.90654117
1277320598465	1.5390993	1.4573772	9.112013	-0.45135498	0.0	-23.125	-9.375	-40.5	2.5473843	1.3422431	-0.81266415
1277320598513	1.4165162	1.3756552	9.765789	0.15676212	0.0	-23.375	-10.125	-40.5	2.6095006	1.3712927	-0.80003124
1277320598545	1.7297841	1.3756552	9.425281	-0.12571526	0.0	-22.875	-11.4375	-41.25	2.8015935	1.3404702	-0.89894277
1277320598585	0.7627395	1.7570249	9.507003	-0.108608246	0.0	-21.625	-12.6875	-41.75	2.2362776	1.371981	-0.4095603
1277320598615	-0.38136974	2.4516625	9.507003	0.018785477	0.0	-20.4375	-15.25	-42.5625	1.6059582	1.3155098	0.15431878
1277320598659	-0.38136974	2.9147544	8.349273	-0.9550066	0.0	-18.0	-16.75	-43.3125	1.5248375	1.2322712	0.13010207
1277320598729	-0.3405087	2.982856	8.689782	-0.6128645	0.0	-15.25	-17.8125	-43.3125	1.6259979	1.2381454	0.11366323
1277320598767	-0.29964766	2.5606253	8.471856	-0.95120335	0.0	-13.3125	-18.5625	-43.3125	1.7975339	1.2753872	0.116491474
1277320598805	-1.6889231	2.4108016	9.888372	0.5105362	0.0	-11.375	-19.0625	-43.0625	1.3959538	1.2814723	0.611105
1277320598835	-0.8036005	2.7921712	8.921328	-0.4241085	0.0	-9.875	-20.0625	-42.5625	1.7390715	1.2559481	0.2802314
1277320598865	-1.7297841	2.4108016	8.499097	-0.80449677	0.0	-8.1875	-21.625	-42.5625	1.4700433	1.2349089	0.62238395
1277320598905	-2.5606253	2.1111538	8.689782	-0.5047102	0.0	-6.25	-22.625	-42.8125	1.2834483	1.2059829	0.88131285
1277320598935	-3.0645783	2.3426998	9.343558	0.3018589	0.0	-4.5	-23.6875	-43.3125	1.2763623	1.1792657	0.91811466
1277320598965	-4.099725	5.175732	8.853226	1.2376041	0.0	-2.5625	-23.6875	-43.5625	0.9312487	0.92998964	0.6699085
1277320599003	-4.944186	5.175732	8.076866	0.98542786	0.0	-0.625	-23.125	-44.0625	0.7672557	0.8456569	0.7625219
1277320599035	-5.434519	3.5957718	8.281172	0.73096657	0.0	2.0625	-23.125	-43.8125	0.8571537	0.9040979	0.986272
1277320599075	-4.862464	0.84446156	8.430995	-0.037394524	0.0	6.25	-21.625	-43.5625	0.98251146	1.041204	1.398842
1277320599123	-3.7864566	-0.38136974	8.117727	-0.8411503	0.0	9.6875	-20.0625	-43.5625	1.0653368	1.1324165	1.6711773
1277320599169	-4.440233	-0.61291564	8.308413	-0.3662548	0.0	12.5625	-18.3125	-43.3125	1.0340333	1.0760549	1.7079663
1277320599246	-5.434519	-0.38136974	9.043911	0.7513685	0.0	14.0625	-16.5	-43.8125	0.9847461	1.0286276	1.6408569
1277320599275	-4.099725	-0.95342433	8.771504	-0.0775156	0.0	14.3125	-16.0	-43.8125	1.0969704	1.123387	1.7992929
1277320599305	-3.636633	-1.7297841	8.430995	-0.46326065	0.0	15.0625	-15.0	-44.3125	1.0075676	1.125188	2.0147793
1277320599337	-3.718355	-1.6480621	8.19945	-0.65387726	0.0	15.0625	-14.75	-45.0625	0.9833721	1.1103251	1.9880006
1277320599365	-4.2086873	-1.2258313	8.117727	-0.5809679	0.0	15.5	-14.75	-44.8125	1.001862	1.075663	1.8542175
1277320599395	-4.7943625	-1.0760075	8.580819	0.08143139	0.0	15.5	-15.0	-45.0625	0.9790144	1.0507458	1.79157
1277320599425	-5.6660647	-0.50395286	8.430995	0.3638916	0.0	14.5625	-16.5	-44.8125	0.8936141	0.97724974	1.6595052
1277320599463	-5.8976107	-0.040861044	8.240311	0.32676983	0.0	14.8125	-17.3125	-44.5625	0.8940757	0.94959795	1.5777246
1277320599522	-5.09401	0.19068487	7.7772183	-0.5077028	0.0	14.5625	-18.0625	-43.8125	0.9983182	0.99059945	1.5333806
1277320599561	-4.372132	0.19068487	7.5456724	-1.083746	0.0	14.5625	-18.3125	-43.0625	1.1301106	1.0452328	1.5272102
1277320599595	-4.4810944	0.6537767	7.7772183	-0.8070526	0.0	15.25	-19.0625	-42.5625	1.2252243	1.0435065	1.4259218
1277320599625	-4.671779	0.7627395	7.6954966	-0.77183056	0.0	15.25	-19.5625	-42.3125	1.1941552	1.0193352	1.4089589
1277320599659	-4.372132	0.6537767	7.8861814	-0.76591873	0.0	15.5	-20.0625	-42.5625	1.3010488	1.0598756	1.4223634
1277320599695	-4.1814466	0.27240697	7.9270425	-0.84023	0.0	16.0	-20.625	-42.8125	1.3344256	1.084524	1.5057417
1277320599725	-4.3312707	0.040861044	7.8180795	-0.8688688	0.0	16.25	-20.625	-42.5625	1.2747847	1.0648631	1.5613626
1277320599755	-4.8216033	0.27240697	7.8589406	-0.58249664	0.0	16.75	-21.125	-41.75	1.2544523	1.0197856	1.5143591
1277320599785	-5.175732	0.7627395	7.9679036	-0.2747326	0.0	17.75	-21.375	-41.75	1.2762274	0.9898037	1.424481
1277320599823	-5.202973	1.1441092	8.158588	-0.06280708	0.0	18.0	-21.375	-41.25	1.3404471	0.99233896	1.3543459
1277320599856	-5.284695	0.88532263	8.430995	0.18301773	0.0	18.9375	-21.375	-41.0	1.3917949	1.0046448	1.4048119
1277320599903	-5.8976107	0.313268	8.281172	0.36476803	0.0	19.4375	-21.375	-40.5	1.2482251	0.9512828	1.5177284
1277320599955	-6.5922484	0.5720546	8.281172	0.7934818	0.0	19.1875	-21.375	-39.75	1.1650192	0.8966384	1.4842364
1277320599995	-6.6331096	1.0351465	7.7772183	0.4673357	0.0	19.6875	-22.125	-39.25	1.1537467	0.85868144	1.4159875
1277320600046	-6.4015636	0.92618364	7.1234417	-0.1847353	0.0	19.6875	-22.375	-38.9375	1.1189959	0.8335687	1.4271125
1277320600085	-6.0882955	1.56634	6.742072	-0.5883913	0.0	20.1875	-22.875	-38.9375	1.129604	0.8203468	1.3189864
1277320600116	-5.8976107	1.6480621	6.891896	-0.5873146	0.0	20.6875	-23.375	-38.4375	1.2339807	0.84436274	1.2983017
1277320600145	-5.5162406	1.920469	7.1234417	-0.5946722	0.0	20.875	-23.6875	-37.9375	1.3929354	0.8839985	1.2357723
1277320600175	-5.5571017	2.2201166	7.4639506	-0.23999691	0.0	20.875	-24.4375	-37.9375	1.4686164	0.8949934	1.1907126
1277320600205	-5.9793324	2.1111538	7.8180795	0.259717	0.0	20.875	-25.1875	-37.6875	1.4558406	0.8893358	1.2313845
1277320600245	-6.469665	1.4982382	8.008764	0.5972719	0.0	20.875	-25.4375	-37.9375	1.3672458	0.8785014	1.3432288
1277320600275	-6.782933	1.1849703	8.19945	0.90051174	0.0	20.4375	-25.4375	-38.4375	1.3013374	0.8722707	1.3978429
1277320600305	-6.5513873	1.3756552	8.076866	0.6837673	0.0	19.9375	-24.9375	-38.6875	1.2962812	0.8787283	1.363824
1277320600335	-6.2108784	1.7297841	7.7772183	0.29544353	0.0	19.1875	-24.1875	-38.9375	1.270349	0.878625	1.299171
1277320600365	-6.1291566	2.1111538	7.3958488	0.028089523	0.0	18.9375	-23.6875	-39.75	1.1669531	0.8511102	1.2390794
1277320600406	-5.7886477	2.2609777	6.932757	-0.49624825	0.0	18.6875	-23.125	-40.0	1.1016115	0.83997273	1.1984297
1277320600435	-5.706926	1.7570249	6.510526	-0.97245026	0.0	18.1875	-22.375	-40.25	1.0338646	0.82857424	1.2721297
1277320600466	-6.0201936	1.1168685	6.469665	-0.8989744	0.0	17.75	-21.625	-40.75	0.96556854	0.81292707	1.3873614
1277320600505	-6.8237944	0.6537767	7.246025	0.16814137	0.0	17.0	-20.875	-41.25	0.9193166	0.81311834	1.4752795
1277320600545	-6.742072	-0.040861044	8.049625	0.6935253	0.0	16.5	-19.3125	-42.3125	0.9256276	0.8735577	1.5768569
1277320600585	-6.3198414	-0.84446156	8.240311	0.61238194	0.0	15.75	-18.3125	-43.3125	0.89946586	0.91226244	1.7036302
1277320600625	-4.862464	-1.607201	8.499097	0.116116524	0.0	14.5625	-17.3125	-44.5625	0.9256626	1.0284983	1.8900237
1277320600666	-3.214402	-1.920469	8.689782	-0.34446812	0.0	12.5625	-15.75	-45.0625	0.9154126	1.1639411	2.1093442
1277320600705	-2.7240696	-1.7978859	8.853226	-0.37094402	0.0	10.375	-15.0	-45.625	0.8691404	1.2175901	2.1541693
1277320600745	-3.1054392	-0.88532263	9.615966	0.33703518	0.0	8.1875	-14.75	-45.875	0.98193693	1.2468151	1.8485166
1277320600785	-2.5333846	-0.23154591	9.615966	0.140131	0.0	5.75	-14.75	-45.875	1.1130086	1.312167	1.6619409
1277320600815	-1.3756552	0.27240697	9.234595	-0.46617985	0.0	3.5625	-16.0	-46.125	1.5443162	1.4200877	1.3753055
1277320600845	-1.7978859	0.6537767	9.084772	-0.52263737	0.0	1.375	-17.3125	-46.375	1.4137427	1.3632498	1.2220253
1277320600885	-1.7570249	1.1849703	9.275456	-0.2921667	0.0	-0.125	-18.5625	-45.875	1.557798	1.3461705	0.9774462
1277320600925	-2.2201166	1.56634	9.234595	-0.18063927	0.0	-0.875	-19.8125	-45.625	1.415887	1.2846466	0.9563743
1277320600965	-2.7240696	1.879608	9.384419	0.14426994	0.0	-1.125	-20.875	-44.8125	1.318339	1.2317448	0.9668134
1277320601005	-2.4516625	2.7240696	9.343558	0.22994709	0.0	-0.625	-22.625	-43.5625	1.5297759	1.1970026	0.7328151
1277320601045	-2.5606253	2.8330324	9.193735	0.14863205	0.0	-0.875	-23.375	-43.3125	1.5009863	1.1771151	0.73493594
1277320601085	-2.8738933	2.070293	8.921328	-0.20792866	0.0	-1.5625	-24.4375	-42.8125	1.3942515	1.1928617	0.94652355
1277320601115	-1.9885708	1.607201	8.471856	-0.95736504	0.0	-2.0625	-25.4375	-42.3125	1.644027	1.2776837	0.89106375
1277320601145	-2.070293	1.1849703	8.240311	-1.228015	0.0	-2.8125	-25.6875	-42.0	1.4963769	1.2890162	1.0509421
1277320601185	-2.070293	1.5390993	8.076866	-1.3278122	0.0	-2.8125	-26.4375	-41.5	1.581655	1.2616417	0.9315191
1277320601225	-1.7570249	2.9147544	8.008764	-1.1047401	0.0	-2.5625	-27.5	-40.5	1.8454351	1.1689631	0.54247856
1277320601265	-1.56634	3.6774938	7.5865335	-1.2315187	0.0	-2.0625	-28.0	-40.25	1.8228126	1.0858787	0.40265465
1277320601305	-3.214402	3.9090397	7.668256	-0.6188803	0.0	-1.125	-29.0	-39.5	1.383306	0.98743457	0.6881911
1277320601345	-4.7126403	4.9850473	8.471856	1.0943604	0.0	0.375	-29.8125	-38.6875	1.2237358	0.89014417	0.75731564
1277320601385	-3.568531	4.2495484	7.6273947	-0.3742466	0.0	2.5625	-29.5	-38.9375	1.3787804	0.94183236	0.69850945
1277320601425	-5.6660647	3.1463003	7.9270425	0.43256283	0.0	5.0	-29.5	-38.6875	1.1657823	0.885426	1.063902
1277320601465	-5.8158884	1.607201	8.049625	0.253376	0.0	7.4375	-29.0	-38.9375	1.1559724	0.9275611	1.3011786
1277320601505	-4.1814466	2.6832085	6.932757	-1.2774515	0.0	9.875	-28.5	-39.25	1.3802961	0.9489877	1.0002824
1277320601545	-6.469665	3.8273177	7.9679036	1.1474552	0.0	11.375	-29.0	-38.4375	1.1527407	0.8145104	1.0365918
1277320601585	-3.759216	2.3426998	5.2165933	-2.963201	0.0	12.125	-29.8125	-37.6875	1.3354166	0.8668215	1.0135008
1277320601625	-5.284695	-1.9885708	6.5513873	-1.1577721	0.0	11.875	-31.0625	-36.9375	0.94599587	0.8594507	1.9306962
1277320601655	-5.366417	3.173541	9.152874	1.2678652	0.0	11.125	-32.8125	-34.875	1.6628728	0.9728275	1.0367461
1277320601695	-5.9793324	14.982383	4.5628166	6.9577026	0.0	11.375	-34.125	-33.375	0.09301756	0.27565134	0.37972242
1277320601735	-4.399372	8.281172	3.5957718	0.23635006	0.0	12.125	-35.375	-31.8125	0.34314612	0.36616534	0.48833394
1277320601775	-5.175732	4.099725	5.5571017	-1.1766253	0.0	13.0625	-35.625	-30.8125	1.4335308	0.69961935	0.90088785
1277320601815	-5.5571017	4.0588636	5.284695	-1.1300287	0.0	13.5625	-35.625	-31.8125	1.3001596	0.65489113	0.93996274
1277320601865	-5.175732	5.284695	7.1234417	0.4627037	0.0	13.0625	-34.875	-33.125	1.5550774	0.7665581	0.77498186
1277320601905	-4.1814466	3.5957718	7.164303	-0.76556015	0.0	11.125	-33.375	-34.875	1.7168086	0.9147594	0.86056274
1277320601935	-5.175732	4.2904096	10.18802	2.39956	0.0	8.1875	-32.5625	-37.1875	1.6774546	0.9875129	0.8786521
1277320601965	-1.4982382	3.5276701	14.015338	4.72328	0.0	2.5625	-29.8125	-39.25	2.6432207	1.3038617	0.40162534
1277320601995	2.0294318	2.4108016	9.343558	0.05401039	0.0	-4.5	-26.1875	-40.5	-2.1504128	1.2455094	-0.69971883
1277320602035	6.238119	-1.3075534	3.486809	-2.541551	0.0	-9.6875	-22.125	-42.5625	-0.5945033	0.50058585	-1.777412
1277320602066	3.568531	-3.0645783	7.4639506	-0.9841442	0.0	-13.5625	-18.0625	-43.8125	-0.74149805	1.0084615	-2.2803648
1277320602105	1.879608	-1.56634	9.888372	0.3799219	0.0	-14.5625	-17.3125	-43.5625	-1.1412683	1.328236	-2.2655346
1277320602145	0.7218784	0.8036005	10.56939	0.81779766	0.0	-13.5625	-19.0625	-43.3125	-3.0009985	1.4689472	-0.73187786
1277320602185	1.2258313	0.8036005	8.308413	-1.369936	0.0	-13.8125	-22.375	-42.0	-2.5380414	1.3961754	-0.99052554
1277320602225	-1.4982382	0.92618364	9.343558	-0.29851627	0.0	-13.5625	-23.125	-34.9375	1.3555537	1.3844683	1.017115
1277320602265	0.84446156	3.1463003	6.932757	-2.1466608	0.0	-12.8125	-26.1875	-33.1875	2.6988947	1.1315228	-0.26221833
1277320602305	1.3756552	4.5219555	8.580819	-0.010172844	0.0	-12.125	-29.25	-31.125	2.9010546	1.0673158	-0.295321
1277320602345	0.6537767	4.4810944	8.771504	0.064870834	0.0	-11.125	-31.8125	-29.3125	2.7591884	1.0942112	-0.1448745
1277320602385	0.46309182	4.630918	8.730643	0.08698368	0.0	-11.125	-33.375	-27.8125	2.7182965	1.0810467	-0.09966865
1277320602425	0.42223078	4.2086873	8.730643	-0.1053381	0.0	-10.875	-34.125	-26.8125	2.7840238	1.1196425	-0.09998906
1277320602465	0.9942854	4.2086873	8.662541	-0.12464237	0.0	-11.125	-33.625	-26.8125	2.9848568	1.1077704	-0.2319924
1277320602495	1.607201	4.7943625	8.076866	-0.27749634	0.0	-11.375	-33.375	-26.8125	3.1302824	1.0114372	-0.3234541
1277320602535	1.56634	4.440233	8.962189	0.3170805	0.0	-11.125	-33.125	-27.3125	-3.112618	1.0870644	-0.33913213
1277320602575	2.3699405	4.5219555	9.697687	1.152813	0.0	-11.875	-33.125	-27.5625	-2.8779397	1.0862123	-0.48273835
1277320602615	5.053149	5.243834	10.310603	2.816371	0.0	-11.625	-33.125	-28.0625	-2.1653771	0.95585877	-0.76688176
1277320602645	4.4810944	5.053149	11.114203	3.1987352	0.0	-10.625	-32.5625	-29.0625	-2.281425	1.0247506	-0.72547
1277320602685	5.053149	4.630918	9.534244	1.935646	0.0	-8.6875	-33.125	-28.5625	-1.9173725	0.9474976	-0.8289712
1277320602725	2.5333846	3.5957718	6.932757	-1.5962467	0.0	-5.0	-33.875	-27.8125	-2.1866548	1.0054197	-0.61377007
1277320602765	0.10896278	3.718355	5.706926	-2.994379	0.0	-0.625	-35.375	-26.25	-3.114713	0.99313504	-0.029295648
1277320602805	-1.4165162	3.336985	5.7477865	-3.0111341	0.0	4.0625	-36.6875	-23.75	2.5904198	1.0081013	0.40143844
1277320602845	-3.1054392	3.1463003	6.4015636	-2.026999	0.0	8.4375	-37.6875	-22.9375	2.1678154	0.9664259	0.7788623
1277320602885	-4.2086873	2.152015	6.5513873	-1.7279816	0.0	11.375	-37.6875	-23.5	1.8578479	0.94577205	1.0981283
1277320602925	-4.440233	2.1111538	10.419566	1.7146349	0.0	13.0625	-35.625	-25.0	2.0509467	1.1299137	1.1269727
1277320602965	-4.903325	2.3426998	8.471856	0.25829792	0.0	13.3125	-32.5625	-28.5625	1.8393	1.0004588	1.125084
1277320603007	-5.6660647	0.9942854	6.510526	-1.1187363	0.0	13.3125	-28.0	-31.375	1.2888438	0.84712136	1.3970842
1277320603045	-5.053149	0.27240697	8.076866	-0.27542305	0.0	13.8125	-24.1875	-34.4375	1.3403151	1.0110898	1.5169401
1277320603085	-4.2904096	-0.38136974	9.697687	0.80457973	0.0	14.5625	-21.375	-36.75	1.4217486	1.1528094	1.6594522
1277320603125	-3.8273177	-0.42223078	9.697687	0.6275139	0.0	16.0	-19.3125	-37.25	1.52626	1.1928293	1.6806723
1277320603166	-3.405087	-0.38136974	10.038197	0.8002081	0.0	16.5	-18.0625	-38.25	1.6343724	1.2418629	1.6823316
1277320603205	-2.8330324	-0.50395286	10.800936	1.3710175	0.0	16.75	-15.75	-39.0	1.7441981	1.3104314	1.7468395
1277320603245	-2.3699405	-1.3075534	11.073342	1.5927019	0.0	16.75	-13.9375	-39.5625	1.487826	1.3310617	2.0749624
1277320603285	-2.4516625	-1.525479	10.18802	0.78265953	0.0	16.75	-12.9375	-39.5625	1.3872856	1.2946169	2.1273956
1277320603325	-2.7921712	-1.1849703	9.152874	-0.1642704	0.0	17.25	-12.9375	-39.5625	1.4549643	1.2507917	1.9721504
1277320603365	-2.9147544	-1.0760075	9.043911	-0.2439146	0.0	17.75	-13.6875	-38.75	1.5011232	1.2398804	1.9244362
1277320603405	-2.7921712	-0.9125633	9.343558	-0.012209892	0.0	18.4375	-14.5	-38.5	1.6155891	1.2661915	1.8866819
1277320603435	-2.7240696	-0.7218784	8.921328	-0.45080948	0.0	18.9375	-15.0	-38.5	1.683741	1.2648323	1.8298421
1277320603465	-2.8330324	-0.50395286	9.234595	-0.13412285	0.0	19.1875	-16.0	-38.0	1.7798858	1.2687311	1.7468395
1277320603505	-2.6014864	-0.46309182	9.534244	0.08698368	0.0	19.1875	-16.25	-37.75	1.8417207	1.3004355	1.7469615
1277320603545	-2.3018389	-0.14982383	9.847511	0.30741882	0.0	19.4375	-16.25	-37.0	2.0650802	1.3407018	1.6357934
1277320603575	-2.0294318	0.10896278	9.847511	0.24839592	0.0	19.4375	-16.75	-36.75	2.2421608	1.3672712	1.5171566
1277320603615	-1.7978859	0.46309182	9.302697	-0.32050133	0.0	18.9375	-16.5	-36.75	2.4923368	1.3738112	1.3187003
1277320603655	-1.6480621	0.7218784	7.6273947	-1.9699183	0.0	19.1875	-17.3125	-36.75	2.6551337	1.3391411	1.1579524
1277320603695	-2.3426998	0.040861044	6.851035	-2.566029	0.0	18.9375	-18.0625	-36.75	1.9133029	1.2412659	1.5533563
1277320603735	-5.202973	-4.903325	10.419566	2.8298397	0.0	18.4375	-18.3125	-37.25	0.9057694	0.9694272	2.3265536
1277320603775	-3.9090397	0.53119355	11.141444	2.0125942	0.0	18.6875	-18.3125	-37.0	2.014565	1.2304913	1.4357351
1277320603805	-1.3756552	0.38136974	8.390134	-1.2959385	0.0	18.0	-17.3125	-37.25	2.4850998	1.4022652	1.3003602
1277320603845	-1.3756552	0.3405087	9.152874	-0.544713	0.0	17.5	-16.25	-38.0	2.4791374	1.4171828	1.3281486
1277320603885	-2.6014864	0.23154591	10.079058	0.60530186	0.0	17.25	-15.75	-37.5	2.1154919	1.3172448	1.482025
1277320603925	-2.8330324	0.313268	10.460427	1.0351553	0.0	17.5	-15.5	-38.0	2.1298695	1.3047707	1.4606668
1277320603965	-3.1463003	0.95342433	9.765789	0.49766254	0.0	17.75	-15.5	-37.75	2.2801943	1.2460699	1.2765617
1277320604005	-4.099725	1.2258313	9.043911	0.19848537	0.0	18.6875	-15.25	-37.25	1.9968765	1.1288639	1.2802541
1277320604045	-4.3312707	1.1168685	9.724928	0.8976259	0.0	19.9375	-15.0	-37.5	2.0753894	1.1397012	1.3184323
1277320604085	-4.5628166	0.8036005	9.575105	0.8304405	0.0	20.4375	-14.25	-37.5	1.9359342	1.1201413	1.3964647
1277320604125	-2.4108016	-0.27240697	9.847511	0.3353243	0.0	21.375	-12.6875	-38.0	2.1654513	1.3292358	1.6833135
1277320604155	-1.9885708	-0.42223078	9.425281	-0.16462708	0.0	21.125	-11.4375	-38.75	2.1281426	1.3583643	1.7800179
1277320604195	-4.099725	0.10896278	9.193735	0.2603445	0.0	20.6875	-8.875	-39.3125	1.9259133	1.1512041	1.5442245
1277320604235	-5.053149	1.3075534	8.580819	0.23697758	0.0	20.4375	-6.0625	-39.8125	0.29250464	1.0243076	1.31759
1277320604275	-2.3018389	1.0760075	7.6273947	-1.7671595	0.0	18.4375	-3.25	-40.5625	-2.2984886	1.2492284	1.1335216
1277320604315	-0.50395286	0.9942854	7.3141265	-2.4080682	0.0	15.75	1.0625	-41.5625	-1.5598044	1.4195558	0.469112
1277320604355	2.5606253	0.313268	7.5865335	-1.7935085	0.0	12.375	4.9375	-42.0625	0.13126844	1.2430227	-1.4490608
1277320604395	3.568531	1.1849703	8.539958	-0.47554874	0.0	7.6875	8.25	-42.875	0.20250922	1.1560396	-1.2501912
1277320604436	5.597963	0.61291564	8.049625	0.01726532	0.0	3.0625	10.75	-42.625	0.35546783	0.9603474	-1.4617417
1277320604475	7.273266	0.42223078	5.7477865	-0.52679443	0.0	-1.375	12.3125	-41.3125	0.36863917	0.66795677	-1.5128089
1277320604515	8.730643	1.334794	7.0553403	1.4974918	0.0	-5.75	13.5625	-40.8125	0.44912505	0.6740273	-1.419085
1277320604555	8.62168	0.38136974	7.9679036	1.9392557	0.0	-9.875	14.625	-39.8125	0.5793816	0.7455225	-1.5265913
1277320604585	8.308413	1.4165162	8.049625	1.8480787	0.0	-12.375	14.375	-39.8125	0.6354578	0.7624215	-1.4019282
1277320604625	7.164303	1.8387469	7.273266	0.56680775	0.0	-14.5625	13.5625	-40.3125	0.66846424	0.77699775	-1.3195649
1277320604670	7.3141265	2.2201166	10.651112	3.3033285	0.0	-15.75	12.0625	-40.5625	0.8467459	0.9483303	-1.2760967
1277320604705	5.134871	2.6832085	7.3549876	-0.4438324	0.0	-15.5	10.25	-41.3125	0.7210963	0.90358895	-1.0892748
1277320604745	1.8387469	2.152015	10.18802	0.7672758	0.0	-14.3125	8.75	-41.8125	1.0898322	1.2997975	-0.70706046
1277320604785	1.1441092	0.7218784	8.662541	-1.0391121	0.0	-11.625	6.9375	-42.875	1.5244955	1.4158794	-1.0079281
1277320604815	1.879608	0.88532263	9.575105	-0.008724213	0.0	-8.1875	4.9375	-43.625	1.0980874	1.3571218	-1.1306049
1277320604855	0.92618364	1.0351465	10.95076	1.2318497	0.0	-4.75	3.125	-44.375	0.86919737	1.4446287	-0.72989964
1277320604895	0.38136974	2.6832085	7.504812	-1.8274741	0.0	-0.625	1.875	-45.125	0.0519024	1.2242451	-0.14118633
1277320604935	-1.4982382	3.336985	8.430995	-0.6163368	0.0	2.5625	-0.9375	-44.875	-0.12065697	1.1614429	0.422005
1277320604975	-0.6946377	3.486809	7.5865335	-1.4283533	0.0	5.25	-1.75	-44.875	-0.28251162	1.1325524	0.19664425
1277320605015	-0.53119355	4.140586	5.47538	-2.9214196	0.0	7.4375	-2.25	-44.625	-0.28140646	0.9193959	0.12759253
1277320605055	-0.19068487	2.5606253	8.662541	-0.77156353	0.0	7.9375	-0.9375	-43.625	-0.62231827	1.2826308	0.07433089
1277320605085	-0.9942854	1.9885708	11.304889	1.7147875	0.0	8.9375	2.875	-43.125	-0.92982686	1.3766086	0.4636476
1277320605125	-4.4810944	1.1168685	11.836082	2.8984852	0.0	9.875	5.4375	-42.625	-0.77711266	1.1987853	1.326533
1277320605168	-4.140586	-1.1168685	6.891896	-1.6893797	0.0	12.5625	7.4375	-41.8125	-0.36769736	1.0141675	1.8342628
1277320605206	0.040861044	-4.1814466	7.205164	-1.4759512	0.0	14.3125	8.75	-41.5625	0.8206636	1.0449375	-3.131821
1277320605245	-1.2258313	-1.6480621	12.026767	2.394246	0.0	15.25	9.75	-41.8125	2.5544534	1.4016459	2.5020702
1277320605275	1.4982382	3.5276701	8.771504	-0.23437405	0.0	18.4375	10.25	-40.3125	-0.3916424	1.1588537	-0.40162534
1277320605306	-0.53119355	4.0180025	3.990762	-4.1187077	0.0	21.375	11.3125	-37.75	-0.60480756	0.77766544	0.13144118
1277320605345	-2.8738933	7.4639506	1.4982382	-1.6694183	0.0	27.0	10.5	-33.9375	-0.71485174	0.18517788	0.36754063
1277320605385	-0.38136974	7.5865335	0.61291564	-2.1858497	0.0	34.125	7.4375	-28.3125	-0.8766134	0.08051363	0.050227024
1277320605425	-2.8738933	8.539958	1.607201	-0.6538782	0.0	39.25	3.375	-23.5	-1.0590469	0.17651235	0.3246186
1277320605465	-5.175732	8.662541	1.9885708	0.47839928	0.0	42.9375	-3.0	-18.375	-1.2113549	0.19457112	0.53856766
1277320605505	-4.5900574	9.80665	3.0645783	1.4463787	0.0	44.625	-11.1875	-13.25	-1.4360048	0.2758175	0.4377671
1277320605545	-9.80665	15.28203	1.7978859	8.440083	0.0	43.375	-19.8125	-8.9375	-1.3815417	0.098692074	0.57052624
1277320605585	-15.363752	15.554437	-4.2904096	12.47323	0.0	40.25	-28.5	-4.5625	-0.5567947	-0.19377926	0.7792309
1277320605625	-19.531578	10.760075	1.3075534	12.531019	0.0	35.3125	-35.875	-0.25	1.7478979	0.058569282	1.0672574
1277320605655	-19.6133	8.240311	2.6423476	11.630846	0.0	30.9375	-40.5	4.0625	1.9286189	0.123572476	1.1730503
1277320605685	-16.657684	5.938472	5.2165933	8.631266	0.0	29.1875	-42.3125	8.4375	2.1554492	0.28684494	1.2283423
1277320605725	-9.534244	4.671779	3.3778462	1.3350363	0.0	29.4375	-42.0	12.75	2.3760679	0.30801946	1.1151807
1277320605765	-7.273266	6.0882955	-0.6946377	-0.29611588	0.0	31.8125	-39.5625	14.0	2.3763993	-0.07310387	0.8738518
1277320605795	-1.56634	9.00305	-5.5162406	0.86748886	0.0	35.4375	-35.9375	16.3125	-1.316593	-0.54309195	0.17225465
1277320605825	1.5390993	10.079058	-3.5957718	1.0047235	0.0	39.125	-32.125	18.125	-1.7635525	-0.33905026	-0.15153213
1277320605865	-1.6889231	8.853226	-1.1849703	-0.7162037	0.0	42.5625	-27.8125	18.125	-1.9210517	-0.13072537	0.18850426
1277320605905	-5.6660647	7.273266	-1.607201	-0.4478159	0.0	45.25	-24.0	14.8125	-1.8745267	-0.1725864	0.6618206
1277320605945	-7.43671	7.668256	-1.6480621	1.0018148	0.0	47.1875	-21.4375	10.4375	-1.7257379	-0.15307595	0.77007025
1277320605985	-8.117727	6.0201936	-0.040861044	0.29987717	0.0	47.1875	-20.4375	4.5625	-1.9277086	-0.004043046	0.93268603
1277320606025	-10.310603	6.2108784	-0.61291564	2.2457027	0.0	46.6875	-20.6875	-1.8125	-0.9676929	-0.050876383	1.0286303
1277320606065	-12.721405	5.938472	-1.2258313	4.285981	0.0	45.25	-21.4375	-6.625	0.025996756	-0.08709391	1.1340519
1277320606105	-9.80665	3.568531	-0.50395286	0.6412573	0.0	43.25	-21.9375	-10.4375	0.42865643	-0.048253536	1.2218024
1277320606145	-8.390134	-0.19068487	2.3699405	-1.0861387	0.0	43.0	-20.9375	-12.5	1.5490783	0.27522787	1.5935197
1277320606185	4.7943625	5.053149	-5.366417	-1.013547	0.0	43.5	-17.625	-12.75	-1.5792482	-0.6564372	-0.7591248
1277320606225	-4.862464	6.1291566	8.281172	1.5858002	0.0	43.75	-14.3125	-13.75	-2.199988	0.813797	0.67066264
1277320606265	-7.8180795	7.3958488	0.84446156	0.9884443	0.0	43.25	-12.25	-15.3125	-1.0426358	0.07830642	0.81314397
1277320606305	-13.293459	7.273266	0.88532263	5.3722906	0.0	41.8125	-11.0	-17.375	-0.61030835	0.058358844	1.0701584
1277320606345	-11.795221	5.012288	1.6480621	3.1148968	0.0	39.875	-11.0	-20.125	-0.35560566	0.12789208	1.1689745
1277320606385	-12.9529505	3.405087	1.2666923	3.6461582	0.0	39.125	-10.6875	-21.1875	0.022517955	0.09429789	1.3137314
1277320606425	-11.645397	3.759216	-1.7978859	2.5618324	0.0	40.125	-8.9375	-20.6875	-0.14364262	-0.1458771	1.2585492
1277320606465	-2.3018389	3.255263	0.27240697	-5.8104763	0.0	41.8125	-6.375	-18.375	-1.0786171	0.068219855	0.6154839
1277320606505	-5.243834	2.7649305	-0.84446156	-3.8186831	0.0	43.5	-3.5625	-16.0625	-0.67154485	-0.14149812	1.0855694
1277320606545	-3.636633	1.7297841	-2.9147544	-4.8354287	0.0	44.75	0.25	-14.8125	-0.49962422	-0.62651545	1.1268134
1277320606585	-5.053149	-1.607201	0.14982383	-4.5019484	0.0	44.25	3.0625	-14.3125	0.6757633	0.028247349	1.8787378
1277320606625	-13.947236	1.879608	-0.88532263	4.294489	0.0	43.5	4.0625	-16.3125	-0.47870454	-0.06282509	1.4368378
1277320606665	-13.1708765	1.7570249	1.5390993	3.569745	0.0	42.0625	3.0625	-18.125	-0.5754459	0.11531626	1.4381771
1277320606705	-4.5628166	1.1849703	-1.879608	-4.731576	0.0	40.8125	-0.25	-18.875	-0.30171376	-0.3793973	1.3167078
1277320606745	-6.0201936	5.134871	3.8273177	-1.0169983	0.0	40.125	-4.3125	-19.625	-1.4330375	0.4505209	0.86459726
1277320606785	-3.718355	7.4639506	-3.405087	-0.79935646	0.0	38.875	-8.6875	-19.375	-0.84517837	-0.38767466	0.46218666
1277320606825	-5.7886477	8.390134	0.88532263	0.42499638	0.0	37.875	-12.75	-18.625	-0.9877383	0.086636215	0.603939
1277320606855	-11.645397	13.293459	1.1441092	7.903244	0.0	37.625	-16.0625	-17.0625	-0.8800551	0.06464785	0.71941
1277320606895	-6.891896	8.539958	3.5957718	1.7414532	0.0	38.375	-16.5625	-14.5625	-1.4520909	0.31663787	0.6790053
1277320606935	-9.956474	-0.19068487	2.4108016	0.43931007	0.0	39.875	-15.8125	-10.4375	1.5204489	0.23751992	1.5899458
1277320606975	-10.691973	4.671779	-1.2666923	1.9299726	0.0	41.8125	-14.3125	-5.625	-0.33711398	-0.1081371	1.1588538
1277320607015	-8.853226	0.95342433	-2.7240696	-0.494874	0.0	42.8125	-11.0	-0.5	0.44633535	-0.29688227	1.4635174
1277320607055	-16.739407	1.2258313	-12.067628	10.865505	0.0	43.5	-9.9375	1.5	0.26790184	-0.62335503	1.4976965
1277320607095	-9.152874	0.5720546	0.9942854	-0.5821743	0.0	43.5	-9.4375	1.25	2.2995353	0.10799756	1.5083776
1277320607135	-8.049625	6.8237944	-1.9885708	0.9318342	0.0	43.25	-8.6875	0.0	-1.247519	-0.18625677	0.8676299
1277320607175	-10.95076	6.3607025	-7.04172	4.683467	0.0	43.75	-9.1875	-3.0625	-0.5419094	-0.50746936	1.0445799
1277320607215	-5.706926	7.4639506	-1.56634	-0.28126335	0.0	43.5	-8.6875	-6.125	-1.1959149	-0.1651887	0.6527789
1277320607264	-6.932757	5.938472	1.3075534	-0.58503056	0.0	43.25	-7.375	-8.6875	-1.4270425	0.14227164	0.8624937
1277320607296	-9.466142	1.7978859	0.23154591	-0.16850471	0.0	43.25	-6.875	-12.0	-0.11965169	0.024026219	1.3831038
1277320607336	-6.742072	1.920469	0.7218784	-2.7593212	0.0	42.0625	-7.375	-16.0625	-0.3640364	0.1026129	1.2932973
1277320607376	-7.8589406	3.0645783	-3.6774938	-0.60455513	0.0	41.5625	-8.1875	-17.0625	-0.22729443	-0.41112036	1.1989853
1277320607415	-9.193735	1.607201	0.19068487	-0.4715433	0.0	42.0625	-9.1875	-16.8125	0.11294562	0.020428061	1.3977304
1277320607456	-9.888372	1.5390993	-1.6480621	0.33558083	0.0	42.5625	-9.4375	-14.8125	0.12746942	-0.16321877	1.4163879
1277320607495	-8.730643	2.3699405	0.50395286	-0.7460365	0.0	44.25	-8.6875	-10.6875	-0.3742066	0.055648886	1.3057327
1277320607535	-7.7772183	1.9477097	-0.08172209	-1.7888336	0.0	45.75	-7.375	-7.625	-0.45497572	-0.010192739	1.3254056
1277320607565	-9.956474	-2.1111538	-0.040861044	0.37126827	0.0	46.4375	-5.375	-5.875	1.1847061	-0.0040146867	1.77974
1277320607605	-11.836082	-1.6480621	2.4925237	2.4007921	0.0	47.4375	-3.3125	-5.375	1.9781274	0.20562667	1.7091473
1277320607645	-12.067628	2.152015	-6.2108784	3.935032	0.0	47.4375	-1.25	-5.125	-0.2686724	-0.46897668	1.3943219
1277320607685	-8.62168	8.539958	-4.399372	3.1014376	0.0	47.1875	1.25	-5.125	-1.1333681	-0.34779206	0.79016006
1277320607726	-7.273266	5.175732	-9.234595	3.0372725	0.0	47.1875	2.5625	-5.125	-0.77382654	-0.8023417	0.9523205
1277320607765	-9.384419	3.1463003	-6.510526	2.0404377	0.0	46.4375	2.8125	-5.375	-0.5536389	-0.5818214	1.2473052
1277320607795	-10.147159	3.173541	-2.4108016	1.0951004	0.0	46.4375	2.0625	-7.375	-0.75397485	-0.22298218	1.2676822
1277320607825	-9.724928	3.255263	-0.6946377	0.4721384	0.0	46.4375	-0.25	-9.4375	-0.8635284	-0.06763127	1.2477858
1277320607865	-9.00305	3.2961242	-0.6946377	-0.19406128	0.0	45.9375	-2.0625	-12.0	-0.74125165	-0.07232637	1.2198406
1277320607905	-8.499097	2.5333846	-0.61291564	-0.9168606	0.0	45.5	-3.8125	-14.3125	-0.49376816	-0.069000766	1.2811048
1277320607945	-7.7772183	0.7218784	-1.2666923	-1.8939552	0.0	44.75	-4.875	-15.3125	0.03216757	-0.16077529	1.4782419
1277320607985	-8.580819	0.61291564	-1.8387469	-1.009656	0.0	43.75	-6.375	-16.0625	0.12933885	-0.21057263	1.4994888
1277320608025	-8.812365	2.2201166	-0.42223078	-0.7091255	0.0	43.0	-8.6875	-16.3125	-0.113030486	-0.04642829	1.3240001
1277320608055	-9.615966	2.982856	0.23154591	0.2639923	0.0	43.0	-9.9375	-16.0625	-0.21262601	0.022994194	1.2700098
1277320608085	-9.615966	2.2201166	3.2961242	0.5981636	0.0	43.25	-11.0	-15.3125	1.1949912	0.3223416	1.343894
1277320608125	-9.493382	1.6480621	4.0180025	0.63292694	0.0	44.0	-12.0	-14.5625	2.324669	0.39507967	1.3989083
1277320608165	-11.264028	2.9147544	-0.23154591	1.8306923	0.0	44.0	-11.75	-14.0	0.02365829	-0.019898117	1.3175839
1277320608195	-11.917805	3.336985	-0.5720546	2.5827312	0.0	43.25	-11.75	-15.3125	-0.019960264	-0.046189398	1.2977877
1277320608235	-13.525005	4.862464	-1.3075534	4.625225	0.0	41.8125	-11.25	-17.625	-0.16434222	-0.09072618	1.2256688
1277320608275	-9.888372	5.829509	-3.214402	2.1137295	0.0	39.625	-10.6875	-20.6875	-0.34279332	-0.2730358	1.0381097
1277320608305	-9.697687	2.7240696	-3.486809	0.8527832	0.0	38.125	-10.6875	-23.1875	-6.0119206E-4	-0.33324388	1.2969543
1277320608345	-8.812365	1.9477097	-2.8738933	-0.33508205	0.0	37.4375	-10.6875	-24.0	0.06787563	-0.30828315	1.3532733
1277320608385	-6.469665	3.5276701	-3.336985	-1.7173672	0.0	38.125	-11.75	-23.5	-0.2083363	-0.4252179	1.0715971
1277320608425	-6.2789803	4.8216033	-2.9556155	-1.3562584	0.0	39.125	-12.25	-21.4375	-0.3982218	-0.35731572	0.9159399
1277320608455	-6.891896	4.3312707	-4.2495484	-0.6242323	0.0	39.875	-13.0	-19.375	-0.2763662	-0.48114207	1.0097139
1277320608485	-9.193735	5.2165933	-1.4982382	0.8696003	0.0	40.8125	-15.0625	-16.8125	-0.30110994	-0.14079848	1.0546868
1277320608525	-10.841797	6.891896	1.3756552	3.1136904	0.0	40.5625	-16.8125	-14.8125	-0.6421968	0.106674254	1.004555
1277320608555	-9.765789	4.671779	-3.0645783	1.4444742	0.0	40.3125	-19.125	-12.5	-0.005960743	-0.2758654	1.1245921
1277320608585	-9.00305	2.3699405	-3.7864566	0.24366188	0.0	41.3125	-21.1875	-9.6875	0.36552352	-0.3862854	1.3133981
1277320608625	-14.056199	2.1792557	2.9147544	4.71305	0.0	41.0625	-22.1875	-8.1875	1.6223882	0.20211814	1.4169822
1277320608665	-9.915613	0.53119355	-0.9125633	0.16502571	0.0	41.0625	-22.9375	-7.9375	1.0539904	-0.091643766	1.517276
1277320608705	-8.539958	1.4573772	-4.903325	0.14811897	0.0	41.3125	-22.6875	-8.1875	0.48764038	-0.5150294	1.4017707
1277320608735	-9.765789	2.2201166	-1.9477097	0.39595318	0.0	40.8125	-22.9375	-8.4375	0.6688937	-0.19208218	1.3472594
1277320608765	-10.147159	1.0760075	-0.61291564	0.4157896	0.0	40.125	-23.75	-8.6875	1.04636	-0.059993844	1.4651508
1277320608795	-8.730643	1.8387469	-1.9477097	-0.6743622	0.0	39.375	-24.75	-7.375	0.77292967	-0.21492821	1.3632215
1277320608825	-7.8180795	2.7240696	-2.0294318	-1.2824774	0.0	38.875	-26.0	-6.625	0.5994607	-0.24038814	1.235519
1277320608865	-8.880466	3.759216	-0.27240697	-0.15944386	0.0	37.875	-27.3125	-5.875	0.96740055	-0.02824063	1.1703556
1277320608905	-9.493382	2.8738933	-0.7218784	0.13843346	0.0	37.625	-27.5625	-4.3125	1.1198727	-0.07265034	1.2768406
1277320608950	-9.656827	1.7978859	-1.4165162	0.11772442	0.0	37.4375	-28.3125	-3.0625	1.1646264	-0.14322014	1.386726
1277320608985	-8.812365	2.1792557	-2.6423476	-0.35207844	0.0	37.1875	-29.0625	-1.25	0.96919155	-0.2832507	1.328365
1277320609025	-9.152874	2.2609777	-2.070293	-0.15402222	0.0	36.4375	-29.875	-0.5	1.1279035	-0.21615912	1.3286208
1277320609058	-9.302697	1.334794	-2.1792557	-0.15931892	0.0	35.9375	-30.875	0.5	1.2471638	-0.22785868	1.4282844
1277320609095	-9.00305	0.7218784	-2.7921712	-0.3529606	0.0	35.6875	-31.125	1.5	1.2357749	-0.2998245	1.490786
1277320609135	-8.812365	1.1168685	-3.3642259	-0.3080616	0.0	34.9375	-31.625	2.3125	1.1672086	-0.36203885	1.4447297
1277320609175	-9.084772	1.1441092	-3.1463003	-0.12464237	0.0	34.5	-32.125	3.5625	1.2532588	-0.33097324	1.4455189
1277320609205	-9.193735	1.7978859	-2.4108016	-0.13353634	0.0	33.75	-32.9375	4.3125	1.3554438	-0.25188205	1.3776779
1277320609245	-9.343558	2.8330324	-1.607201	0.08836079	0.0	32.75	-34.1875	4.5625	1.4763114	-0.16314818	1.2764
1277320609285	-10.079058	3.486809	-0.84446156	0.8918705	0.0	31.5625	-35.4375	5.625	1.6713806	-0.07901475	1.2377378
1277320609315	-10.038197	3.5276701	2.4516625	1.1121635	0.0	31.3125	-35.6875	5.625	2.136056	0.22646646	1.2328528
1277320609355	-10.378705	3.568531	4.2495484	1.9624023	0.0	31.3125	-35.6875	5.125	2.2660792	0.36942384	1.2396269
1277320609385	-11.795221	2.6423476	4.140586	2.9704266	0.0	31.5625	-35.1875	4.5625	2.1199524	0.33002177	1.3504163
1277320609425	-13.1708765	3.6774938	1.1441092	3.9157743	0.0	32.25	-34.1875	1.8125	1.7805098	0.08347206	1.2985166
1277320609465	-11.114203	2.3018389	-0.040861044	1.5434885	0.0	32.75	-33.1875	-0.25	1.5557263	-0.0036000556	1.3665757
1277320609505	-8.812365	0.84446156	-0.7627395	-0.9211197	0.0	33.5	-32.125	-1.8125	1.4011129	-0.08594639	1.4752611
1277320609535	-9.043911	1.4165162	-1.334794	-0.55567646	0.0	34.25	-30.625	-2.5625	1.2568922	-0.14479226	1.4154321
1277320609572	-9.425281	1.7297841	-1.0760075	-0.16373253	0.0	34.9375	-29.875	-1.25	1.329532	-0.11181813	1.3892901
1277320609605	-10.079058	2.3699405	-0.53119355	0.5609045	0.0	35.4375	-29.0625	0.25	1.4789504	-0.051258594	1.3398563
1277320609645	-9.724928	2.4516625	-0.6537767	0.24383736	0.0	36.4375	-28.0625	1.5	1.502734	-0.065095216	1.3238413
1277320609685	-9.152874	2.4516625	0.7218784	-0.30365753	0.0	37.4375	-27.3125	2.8125	1.9204632	0.07603652	1.3090829
1277320609725	-8.308413	3.405087	2.0294318	-0.601058	0.0	38.875	-25.0	3.3125	2.577135	0.22228236	1.1818395
1277320609755	-7.43671	3.759216	2.6423476	-1.0648909	0.0	39.625	-23.1875	3.8125	2.9818177	0.30707029	1.1027628
1277320609795	-6.973618	2.5333846	2.9147544	-1.8351274	0.0	40.5625	-21.1875	4.5625	2.8583224	0.37432662	1.222339
1277320609825	-7.8861814	0.42223078	2.8738933	-1.4025202	0.0	41.0625	-19.875	4.875	2.3920908	0.349004	1.5173068
1277320609865	-8.812365	-1.334794	2.9556155	-0.4164896	0.0	41.0625	-18.875	5.625	2.1777291	0.32020023	1.7211219
1277320609905	-9.302697	-1.6889231	4.9850473	0.88181686	0.0	41.8125	-17.375	6.375	2.3314729	0.48521098	1.7503921
1277320609945	-16.88923	-1.4982382	8.580819	9.196543	0.0	41.3125	-17.0625	7.125	2.4364543	0.46849746	1.6592745
1277320609985	-6.5513873	9.084772	-1.7297841	1.5267477	0.0	41.0625	-16.0625	7.625	-1.64932	-0.15322602	0.624773
1277320610025	2.5333846	7.504812	3.8273177	-1.0095711	0.0	41.0625	-16.3125	8.1875	-1.7585372	0.45011255	-0.32555693
1277320610055	-6.782933	7.273266	-3.405087	0.7053995	0.0	39.875	-17.0625	9.6875	-1.3634793	-0.32987234	0.7505286
1277320610085	-10.419566	6.701211	-5.7886477	3.867487	0.0	38.375	-17.375	11.25	-0.6896599	-0.4371158	0.9992607
1277320610125	-14.7916975	3.173541	-8.812365	7.7011604	0.0	36.4375	-18.625	14.0	0.9348183	-0.52745867	1.3594514
1277320610165	-15.6634	-4.3312707	0.27240697	6.446848	0.0	33.25	-19.625	17.375	2.141252	0.016760683	1.8405768
1277320610195	-11.604536	-3.0645783	-0.88532263	2.2283278	0.0	31.0625	-20.9375	19.375	2.1267695	-0.07362898	1.8289864
1277320610225	-9.425281	2.6832085	-0.5720546	0.009803772	0.0	29.125	-21.9375	21.9375	2.558957	-0.058308113	1.2934512
1277320610265	-9.152874	4.7535014	-0.19068487	0.5087385	0.0	27.375	-21.9375	24.0	2.8562913	-0.01848653	1.0917926
1277320610307	-7.9270425	2.3699405	-1.525479	-1.3934641	0.0	26.375	-21.6875	24.75	2.524346	-0.18232855	1.2802856
1277320610345	-7.9270425	2.9556155	-3.5276701	-0.64051056	0.0	25.6875	-20.9375	26.5	2.4314723	-0.3950549	1.21391
1277320610385	-8.430995	2.7240696	-1.920469	-0.74075603	0.0	24.9375	-20.6875	27.3125	2.6074479	-0.21345167	1.2582823
1277320610425	-8.771504	1.4573772	-1.4573772	-0.796257	0.0	23.9375	-20.4375	27.5625	2.5235336	-0.16245767	1.4061513
1277320610485	-8.539958	2.1111538	-1.3756552	-0.90270233	0.0	22.75	-20.4375	28.8125	2.607168	-0.1551208	1.3284463
1277320610526	-9.302697	3.445948	0.7627395	0.14304829	0.0	21.25	-20.4375	28.5625	2.773466	0.07673484	1.216043
1277320610565	-9.384419	0.53119355	-1.56634	-0.2775936	0.0	19.8125	-19.875	28.3125	2.4888766	-0.16512449	1.5142529
1277320610605	-13.0619135	-1.1168685	-2.6423476	3.5665684	0.0	19.0625	-20.125	27.5625	2.3987753	-0.19889376	1.6560946
1277320610645	-14.982383	0.08172209	-3.0645783	5.486162	0.0	19.0625	-20.125	25.25	2.37758	-0.20175943	1.5653418
1277320610685	-12.4489975	6.238119	1.3756552	4.1856365	0.0	20.0625	-20.125	22.4375	2.7956035	0.098474324	1.1062738
1277320610725	-11.182305	8.240311	-1.6889231	4.1861744	0.0	22.0	-19.875	19.375	2.9556117	-0.12099423	0.935728
1277320610755	-10.651112	8.921328	-0.23154591	4.0890284	0.0	24.4375	-19.125	16.0625	-3.0754151	-0.016663931	0.8735477
1277320610795	-9.152874	4.099725	-0.9125633	0.26388168	0.0	26.1875	-18.875	12.75	2.5560007	-0.09074167	1.1496762
1277320610825	-8.771504	0.88532263	-3.0237172	-0.48645878	0.0	27.375	-18.375	10.1875	1.5837704	-0.33040538	1.4702053
1277320610865	-7.504812	0.5720546	-4.5219555	-1.0261297	0.0	28.875	-17.875	7.9375	1.0617104	-0.54100597	1.4947184
1277320610905	-7.6546354	1.0351465	-2.0294318	-1.8201885	0.0	29.3125	-17.625	6.125	1.4199597	-0.25692636	1.4363804
1277320610945	-7.164303	1.7297841	-2.1792557	-2.1210437	0.0	31.0625	-17.375	5.375	1.1270081	-0.2874943	1.3338857
1277320610985	-8.349273	1.7978859	-0.9125633	-1.2173824	0.0	32.0	-17.875	4.5625	1.6463866	-0.106445506	1.3587005
1277320611025	-11.223166	0.9942854	-0.10896278	1.4609995	0.0	32.5	-18.375	4.5625	1.83849	-0.00967056	1.4824347
1277320611065	-10.991621	1.1441092	0.84446156	1.2765732	0.0	33.5	-19.125	4.3125	1.9931303	0.07626669	1.4670806
1277320611105	-8.853226	1.9477097	0.8036005	-0.70615864	0.0	34.0	-19.125	4.0625	2.1440253	0.08841814	1.354246
1277320611145	-9.384419	2.152015	0.8036005	-0.1451664	0.0	34.9375	-18.625	4.5625	2.212244	0.08327188	1.3453759
1277320611185	-9.193735	2.070293	0.6946377	-0.35713196	0.0	36.1875	-18.375	4.875	2.2314882	0.073576756	1.3493056
1277320611215	-7.8180795	1.879608	0.3405087	-1.7585917	0.0	36.9375	-18.125	5.625	2.254159	0.042322055	1.334856
1277320611255	-6.701211	2.3699405	-0.53119355	-2.678887	0.0	37.4375	-17.875	6.125	2.17762	-0.07459373	1.230866
1277320611295	-7.6546354	6.510526	-1.4982382	0.35332584	0.0	38.375	-18.125	6.625	-1.6169156	-0.14800449	0.8659924
1277320611325	-10.18802	8.580819	-1.1168685	3.560234	0.0	38.875	-17.875	8.1875	-1.963656	-0.083652414	0.8708211
1277320611365	-13.375181	5.434519	0.84446156	4.655113	0.0	38.625	-16.8125	10.4375	3.0612955	0.058425944	1.184859
1277320611405	-9.084772	1.607201	-0.9125633	-0.5357847	0.0	37.4375	-16.8125	13.0	2.3030386	-0.09859311	1.3956965
1277320611447	-7.43671	2.7921712	-0.95342433	-1.8060322	0.0	36.6875	-16.3125	15.8125	2.927421	-0.11945271	1.2116243
1277320611485	-8.812365	3.405087	-2.4925237	-0.03602791	0.0	34.6875	-16.5625	17.625	2.756229	-0.25795513	1.2020699
1277320611515	-9.724928	2.9556155	-3.486809	0.938941	0.0	33.75	-16.8125	19.125	2.3361666	-0.3304698	1.2757456
1277320611545	-8.62168	2.2201166	-3.0645783	-0.3910284	0.0	33.75	-16.8125	20.4375	2.3204615	-0.33151728	1.3187677
1277320611585	-8.580819	2.0294318	-2.3699405	-0.67617035	0.0	32.5	-16.8125	21.4375	2.4835346	-0.26257032	1.3385558
1277320611625	-9.193735	2.3018389	-2.7921712	0.07360554	0.0	32.0	-16.3125	22.6875	2.5455635	-0.2865047	1.3254691
1277320611665	-9.043911	2.6832085	-2.7513103	0.019927979	0.0	31.3125	-16.5625	23.5	2.6440136	-0.28378016	1.282382
1277320611705	-9.425281	2.7240696	-3.0237172	0.45976734	0.0	30.5625	-16.5625	24.0	2.6204145	-0.29895848	1.2894455
1277320611745	-9.275456	2.7649305	-3.1463003	0.37068462	0.0	30.3125	-16.3125	25.0	2.6603534	-0.31429675	1.2810918
1277320611775	-9.152874	2.7921712	-3.3642259	0.33678818	0.0	29.8125	-16.0625	25.5	2.6692529	-0.3380682	1.2747042
1277320611805	-8.921328	2.7240696	-3.5957718	0.19036007	0.0	29.5625	-15.8125	26.25	2.66797	-0.36793	1.2744445
1277320611835	-8.689782	3.255263	-3.5957718	0.14516544	0.0	29.5625	-15.0625	26.8125	2.8636527	-0.36968118	1.2123693
1277320611875	-8.499097	4.0180025	-3.336985	0.16904354	0.0	29.3125	-14.8125	26.8125	3.0812392	-0.34108692	1.1291802
1277320611915	-8.19945	4.6036777	-3.1054392	0.096307755	0.0	29.5625	-14.5625	26.5	-3.022578	-0.31896827	1.0591959
1277320611955	-8.158588	3.8681788	-3.2961242	-0.1946888	0.0	29.8125	-13.75	26.5	-3.1160982	-0.35002255	1.1280633
1277320611995	-8.662541	2.6832085	-3.5957718	-0.051199913	0.0	29.5625	-13.5	26.8125	2.833658	-0.37749293	1.2704202
1277320612035	-9.152874	2.3426998	-3.5957718	0.30240154	0.0	29.5625	-12.75	26.8125	2.791381	-0.36366105	1.3202233
1277320612065	-8.962189	2.6423476	-3.3642259	0.12415218	0.0	29.5625	-12.0	27.0625	2.9305959	-0.34560585	1.2840867
1277320612105	-8.730643	3.214402	-3.3642259	0.086504936	0.0	29.8125	-11.75	26.8125	3.0909297	-0.34697634	1.2180228
1277320612145	-8.471856	3.568531	-3.336985	-0.026966095	0.0	29.8125	-11.5	27.0625	-3.0746562	-0.34821028	1.1721301
1277320612185	-8.539958	3.405087	-3.486809	0.026118279	0.0	30.0625	-11.5	27.3125	-3.1096008	-0.36249813	1.1913904
1277320612215	-8.662541	3.1054392	-3.718355	0.11854744	0.0	30.0625	-11.5	27.8125	3.0920763	-0.3840062	1.2265776
1277320612255	-8.689782	2.9556155	-3.7864566	0.122359276	0.0	29.5625	-11.25	27.8125	3.0589316	-0.39125934	1.2429454
1277320612285	-8.689782	2.9147544	-3.568531	0.029127121	0.0	29.8125	-11.0	27.8125	3.0758057	-0.371283	1.2471662
1277320612315	-8.62168	3.1463003	-3.5957718	0.05043602	0.0	29.8125	-11.0	28.3125	3.133925	-0.37340784	1.2208842
1277320612355	-8.499097	3.2961242	-3.568531	-0.017191887	0.0	30.3125	-11.5	28.0625	-3.1249318	-0.37312582	1.2008334
1277320612395	-8.471856	3.405087	-3.445948	-0.047473907	0.0	30.5625	-11.75	28.3125	-3.108417	-0.36088058	1.1886278
1277320612425	-8.62168	3.214402	-3.336985	-0.018839836	0.0	30.8125	-12.0	28.5625	3.1107934	-0.3479089	1.2139314
1277320612485	-8.580819	3.2961242	-3.405087	-0.0041246414	0.0	30.8125	-12.0	27.8125	3.1310976	-0.3547632	1.204048
1277320612515	-8.771504	3.0645783	-3.3642259	0.07509804	0.0	30.5625	-12.0	27.5625	3.0571513	-0.34739378	1.2346749
1277320612545	-8.853226	3.1463003	-3.255263	0.13696861	0.0	30.8125	-12.0	27.0625	3.074639	-0.33352104	1.2293326
1277320612575	-8.853226	3.173541	-3.173541	0.11919212	0.0	30.8125	-12.25	26.25	3.0623133	-0.32543933	1.2266034
1277320612615	-8.771504	3.255263	-2.9147544	-0.0070667267	0.0	30.8125	-12.5	26.25	3.0759008	-0.30200657	1.2154334
1277320612655	-8.812365	3.1463003	-3.255263	0.100605965	0.0	31.3125	-12.5	26.25	3.0512166	-0.33479297	1.2278702
1277320612695	-8.730643	3.1463003	-3.718355	0.19082451	0.0	31.8125	-13.0	26.25	3.0176537	-0.38108668	1.2249093
1277320612735	-8.853226	3.1463003	-3.336985	0.16402149	0.0	32.0	-13.5	26.25	2.9900908	-0.34126568	1.2293326
1277320612765	-8.812365	3.2961242	-2.7921712	0.0075445175	0.0	32.75	-13.5	25.75	3.0616214	-0.28848833	1.2128729
1277320612795	-8.689782	3.405087	-2.6832085	-0.09549427	0.0	32.75	-13.5	25.25	3.0987382	-0.27994382	1.197336
1277320612825	-8.662541	3.405087	-2.6014864	-0.14218044	0.0	32.75	-13.75	25.25	3.086375	-0.272542	1.1962682
1277320612865	-8.689782	3.255263	-2.6832085	-0.1470089	0.0	32.75	-13.25	24.75	3.0758696	-0.28147736	1.2123692
1277320612905	-8.771504	3.214402	-2.7513103	-0.067996025	0.0	32.25	-13.25	24.75	3.0451763	-0.28641433	1.219534
1277320612985	-8.853226	3.173541	-2.7921712	0.003914833	0.0	32.0	-12.75	24.75	3.0553522	-0.28859812	1.2266034
1277320613025	-8.812365	3.255263	-2.7921712	-0.006102562	0.0	32.25	-12.75	25.0	3.0859168	-0.2889016	1.2169467
1277320613065	-8.730643	3.2961242	-2.7240696	-0.08507061	0.0	32.5	-13.0	25.5	3.0950716	-0.28401136	1.209805
1277320613105	-8.771504	3.255263	-2.8330324	-0.03106308	0.0	32.25	-13.25	25.5	3.0578196	-0.29402503	1.2154334
1277320613215	-8.771504	3.2961242	-2.7921712	-0.029128075	0.0	31.8125	-13.75	25.25	3.0246942	-0.2896016	1.2113452
1277320613245	-8.771504	3.255263	-2.8330324	-0.03106308	0.0	32.25	-14.0	25.25	3.006313	-0.29402503	1.2154334
1277320613285	-8.771504	3.255263	-2.7513103	-0.05443287	0.0	32.25	-14.5625	24.75	2.9669776	-0.28600472	1.2154334
1277320613315	-8.771504	3.2961242	-2.8330324	-0.017380714	0.0	32.25	-14.8125	24.5	2.9529366	-0.29360187	1.2113452
1277320613355	-8.771504	3.336985	-2.8738933	0.008339882	0.0	32.0	-14.3125	24.5	2.9910676	-0.2971607	1.2072694
1277320613395	-8.771504	3.3778462	-2.7921712	-0.0012760162	0.0	31.5625	-13.75	24.5	3.0332694	-0.2887553	1.2032063
1277320613435	-8.771504	3.336985	-2.7513103	-0.0268507	0.0	31.3125	-13.5	24.75	3.0372283	-0.28517547	1.2072694
1277320613465	-8.730643	3.3778462	-2.7921712	-0.037812233	0.0	31.3125	-13.5	25.25	3.0524628	-0.2898665	1.2016377
1277320613505	-8.812365	3.336985	-2.8738933	0.044872284	0.0	31.5625	-14.0	25.25	3.0065196	-0.29602534	1.2088113
1277320613535	-8.771504	3.336985	-2.8738933	0.008339882	0.0	31.8125	-14.3125	25.25	2.9945655	-0.2971607	1.2072694
1277320613605	-8.689782	3.3778462	-2.8330324	-0.0625124	0.0	32.25	-14.3125	24.5	3.0167577	-0.29500252	1.2000563
1277320613645	-8.689782	3.336985	-2.7921712	-0.088419914	0.0	32.75	-13.5	24.5	3.0768192	-0.29142007	1.2041478
1277320613685	-8.730643	3.3778462	-2.8330324	-0.026055336	0.0	32.25	-13.75	24.75	3.0541563	-0.29387	1.2016377
1277320613725	-8.689782	3.3778462	-2.7921712	-0.074313164	0.0	32.25	-13.5	25.0	3.0771468	-0.29098532	1.2000563
1277320613755	-8.689782	3.3778462	-2.8330324	-0.0625124	0.0	32.0	-14.0	25.5	3.0398502	-0.29500252	1.2000563
1277320613795	-8.730643	3.336985	-2.8738933	-0.028161049	0.0	31.8125	-14.8125	25.25	2.964484	-0.298304	1.205715
1277320613825	-8.689782	3.3778462	-2.7921712	-0.074313164	0.0	31.5625	-14.5625	25.0	2.9900103	-0.29098532	1.2000563
1277320613865	-8.730643	3.336985	-2.8330324	-0.040091515	0.0	31.8125	-14.8125	25.25	2.966507	-0.29430497	1.2057151
1277320613905	-8.730643	3.2961242	-2.7921712	-0.06576824	0.0	32.25	-14.5625	25.25	2.9841626	-0.29072264	1.209805
1277320613945	-8.771504	3.336985	-2.7921712	-0.015277863	0.0	32.25	-14.3125	25.25	3.00747	-0.28918013	1.2072694
1277320613985	-8.771504	3.2961242	-2.7921712	-0.029128075	0.0	32.75	-15.0625	25.0	2.9553554	-0.2896016	1.2113452
1277320614015	-8.771504	3.255263	-2.7513103	-0.05443287	0.0	32.25	-14.8125	24.75	2.9502053	-0.28600472	1.2154334
1277320614045	-8.771504	3.2961242	-2.7921712	-0.029128075	0.0	32.25	-14.5625	24.5	2.9724598	-0.2896016	1.2113452
1277320614075	-8.812365	3.2961242	-2.8738933	0.031106949	0.0	31.8125	-14.0	24.75	2.9971926	-0.2964521	1.2128729
1277320614115	-8.812365	3.2961242	-2.8330324	0.019248009	0.0	32.0	-13.5	25.0	3.039041	-0.292475	1.2128727
1277320614155	-8.771504	3.255263	-2.9147544	-0.0070667267	0.0	32.75	-14.0	25.25	3.0143409	-0.30200657	1.2154334
1277320614195	-8.771504	3.2961242	-2.8330324	-0.017380714	0.0	32.75	-14.0	25.25	3.0143409	-0.30200657	1.2154334
1277320614225	-8.771504	3.255263	-2.8330324	-0.03106308	0.0	33.25	-14.3125	25.0	3.004935	-0.29402503	1.2154334
1277320614255	-8.812365	3.214402	-2.8330324	-0.007863045	0.0	32.5	-13.75	25.5	3.0170379	-0.29330823	1.2210329
1277320614295	-8.812365	3.255263	-2.8330324	0.005616188	0.0	32.5	-13.5	25.5	3.0435996	-0.29289335	1.2169467
1277320614325	-8.812365	3.214402	-2.7921712	-0.01959896	0.0	32.5	-13.75	25.5	3.018445	-0.28931147	1.2210329
1277320614365	-8.812365	3.214402	-2.8330324	-0.007863045	0.0	32.75	-13.75	25.75	3.024373	-0.29330823	1.2210329
1277320614405	-8.812365	3.173541	-2.8330324	-0.021191597	0.0	33.25	-13.75	25.0	3.018665	-0.29371962	1.2251313
1277320614445	-8.812365	3.214402	-2.8330324	-0.007863045	0.0	32.5	-13.5	24.75	3.0278287	-0.29330823	1.2210329
1277320614515	-8.771504	3.214402	-2.7921712	-0.056373596	0.0	31.8125	-13.25	24.75	3.0341125	-0.29043433	1.219534
1277320614555	-8.771504	3.173541	-2.8330324	-0.057971954	0.0	31.8125	-13.25	25.0	3.024553	-0.29486096	1.2236471
1277320614585	-8.853226	3.1463003	-2.8738933	0.01872921	0.0	32.25	-13.25	25.0	3.0193543	-0.2968369	1.2293326
1277320614625	-8.880466	3.1463003	-2.8330324	0.03143692	0.0	32.25	-12.75	25.5	3.0553808	-0.29210195	1.2303008
1277320614665	-8.853226	3.173541	-2.8330324	0.015623093	0.0	31.8125	-13.0	25.25	3.0366974	-0.29258612	1.2266034
1277320614735	-8.812365	3.173541	-2.8738933	-0.009283066	0.0	31.3125	-13.25	25.25	3.0113883	-0.29771158	1.2251313
1277320614776	-8.812365	3.1463003	-2.8738933	-0.018073082	0.0	31.5625	-13.25	25.75	3.0143144	-0.2979871	1.2278702
1277320614815	-8.812365	3.173541	-2.8738933	-0.009283066	0.0	32.5	-13.25	25.5	3.0387392	-0.29771158	1.2251313
1277320614895	-8.771504	3.173541	-2.9147544	-0.033909798	0.0	33.0	-12.5	25.25	3.102788	-0.30286238	1.2236471
1277320614935	-8.771504	3.173541	-2.8330324	-0.057971954	0.0	33.0	-12.75	24.5	3.083757	-0.29486096	1.2236471
1277320614995	-8.812365	3.173541	-2.8330324	-0.021191597	0.0	32.25	-12.25	25.25	3.099425	-0.29371962	1.2251313
1277320615035	-8.812365	3.214402	-2.8738933	0.0040283203	0.0	32.25	-11.75	25.25	-3.1406908	-0.2972953	1.2210329
1277320615065	-8.812365	3.173541	-2.8738933	-0.009283066	0.0	32.0	-10.6875	25.5	-3.0873137	-0.29771158	1.2251313
1277320615095	-8.853226	3.173541	-2.8330324	0.015623093	0.0	32.5	-11.25	25.5	-3.1156251	-0.29258612	1.2266034
1277320615135	-8.853226	3.173541	-2.9147544	0.039505005	0.0	32.5	-11.75	25.25	3.1348145	-0.30053335	1.2266034
1277320615175	-8.812365	3.214402	-2.9147544	0.016076088	0.0	32.25	-12.25	25.5	3.1092267	-0.30127266	1.2210329
1277320615205	-8.812365	3.173541	-2.9147544	0.0027809143	0.0	32.5	-12.75	25.5	3.0713086	-0.30169386	1.2251313
1277320615235	-8.771504	3.255263	-2.9556155	0.0051641464	0.0	32.25	-12.25	25.5	3.122645	-0.3059826	1.2154334
1277320615275	-8.812365	3.255263	-2.8738933	0.017492294	0.0	32.25	-11.75	25.75	-3.131104	-0.29687545	1.2169467
1277320615305	-8.771504	3.214402	-2.8738933	-0.032657623	0.0	32.25	-11.25	25.5	-3.1043744	-0.29844543	1.219534
1277320615335	-8.771504	3.173541	-2.8738933	-0.0460186	0.0	32.0	-11.75	25.25	3.130093	-0.2988666	1.2236471
1277320615375	-8.771504	3.214402	-2.8738933	-0.032657623	0.0	31.8125	-12.25	25.5	3.102878	-0.29844543	1.219534
1277320615415	-8.812365	3.214402	-2.8738933	0.0040283203	0.0	31.5625	-12.75	25.25	3.0597851	-0.2972953	1.2210329
1277320615445	-8.812365	3.214402	-2.9556155	0.02827835	0.0	31.8125	-13.5	25.25	3.012402	-0.30524024	1.2210329
1277320615475	-8.853226	3.214402	-2.9147544	0.052750587	0.0	31.5625	-13.25	25.25	3.022077	-0.30011702	1.2225195
1277320615515	-8.771504	3.255263	-2.9556155	0.0051641464	0.0	31.5625	-13.0	25.25	3.0544152	-0.3059826	1.2154334
1277320615555	-8.771504	3.255263	-2.8738933	-0.019143105	0.0	31.5625	-13.0	25.0	3.0549161	-0.2980207	1.2154334
1277320615585	-8.771504	3.255263	-2.9556155	0.0051641464	0.0	31.3125	-13.0	25.5	3.0501986	-0.3059826	1.2154334
1277320615625	-8.771504	3.255263	-2.9147544	-0.0070667267	0.0	31.5625	-12.75	25.5	3.0733814	-0.30200657	1.2154334
1277320615665	-8.812365	3.214402	-2.8738933	0.0040283203	0.0	31.5625	-12.75	25.25	3.0597851	-0.2972953	1.2210329
1277320615705	-8.771504	3.214402	-2.8738933	-0.032657623	0.0	31.8125	-12.5	25.75	3.087363	-0.29844543	1.219534
1277320615735	-8.771504	3.2961242	-2.9147544	0.00658226	0.0	32.25	-12.25	25.5	3.1328833	-0.3015733	1.2113452
1277320615805	-8.812365	3.2961242	-2.9147544	0.043121338	0.0	32.0	-13.5	25.5	3.040168	-0.30041957	1.2128727
1277320615835	-8.771504	3.2961242	-2.9147544	0.00658226	0.0	31.5625	-14.0	25.5	3.0005994	-0.3015733	1.2113452
1277320615875	-8.730643	3.2961242	-2.9147544	-0.029924393	0.0	31.8125	-14.3125	25.25	2.9859	-0.302735	1.209805
1277320615915	-8.771504	3.2961242	-2.8330324	-0.017380714	0.0	31.5625	-14.0	25.25	3.001413	-0.29360187	1.2113452
1277320615956	-8.771504	3.2961242	-2.7921712	-0.029128075	0.0	32.25	-13.75	26.0	3.0395708	-0.2896016	1.2113452
1277320615995	-8.771504	3.255263	-2.7921712	-0.042826653	0.0	33.0	-13.75	26.0	3.0460126	-0.29001966	1.2154334
1277320616035	-8.812365	3.2961242	-2.7921712	0.0075445175	0.0	32.25	-13.75	26.25	3.0379937	-0.28848833	1.2128729
1277320616075	-8.771504	3.255263	-2.7240696	-0.062083244	0.0	32.5	-14.0	26.5	3.025342	-0.28332284	1.2154334
1277320616105	-8.812365	3.255263	-2.7240696	-0.025286674	0.0	32.75	-14.0	26.0	3.0236933	-0.2822277	1.2169467
1277320616145	-8.853226	3.255263	-2.8330324	0.042330742	0.0	32.0	-13.75	26.0	3.017248	-0.29176936	1.2184478
1277320616185	-8.771504	3.2961242	-2.7513103	-0.04071808	0.0	32.5	-14.0	25.5	3.0267875	-0.28559178	1.2113452
1277320616215	-8.812365	3.2961242	-2.7240696	-0.011612892	0.0	32.25	-14.0	25.0	3.0149252	-0.28182295	1.2128729
1277320616245	-8.771504	3.2961242	-2.7513103	-0.04071808	0.0	32.0	-13.75	24.75	3.026308	-0.28559178	1.2113452
1277320616285	-8.771504	3.255263	-2.7513103	-0.05443287	0.0	32.5	-13.75	24.5	3.0253584	-0.28600472	1.2154334
1277320616315	-8.771504	3.2961242	-2.7513103	-0.04071808	0.0	32.75	-13.25	24.5	3.0765529	-0.28559178	1.2113452
1277320616355	-8.812365	3.255263	-2.6832085	-0.036587715	0.0	33.25	-13.5	24.5	3.0584636	-0.27821088	1.2169467
1277320616395	-8.771504	3.255263	-2.7513103	-0.05443287	0.0	33.5	-13.5	24.75	3.0679116	-0.28600472	1.2154334
1277320616435	-8.771504	3.255263	-2.7240696	-0.062083244	0.0	33.75	-13.75	25.0	3.0587013	-0.28332284	1.2154334
1277320616465	-8.771504	3.255263	-2.7513103	-0.05443287	0.0	33.0	-14.0	25.5	3.0276463	-0.28600472	1.2154334
1277320616495	-8.771504	3.214402	-2.8330324	-0.04459381	0.0	32.75	-13.5	25.25	3.040654	-0.2944448	1.219534
1277320616535	-8.771504	3.214402	-2.8738933	-0.032657623	0.0	32.75	-13.5	25.0	3.0376527	-0.29844543	1.219534
1277320616575	-8.771504	3.255263	-2.8738933	-0.019143105	0.0	32.0	-13.25	25.0	3.0480669	-0.2980207	1.2154334
1277320616615	-8.812365	3.214402	-2.8330324	-0.007863045	0.0	32.0	-13.0	25.5	3.055378	-0.29330823	1.2210329
1277320616655	-8.730643	3.255263	-2.7921712	-0.07951832	0.0	31.5625	-13.5	25.75	3.0325613	-0.2911456	1.2139076
1277320616695	-8.771504	3.255263	-2.8330324	-0.03106308	0.0	30.8125	-14.0	25.5	2.9785988	-0.29402503	1.2154334
1277320616735	-8.730643	3.255263	-2.9147544	-0.043624878	0.0	31.3125	-13.5	25.5	3.0214942	-0.30317336	1.2139076
1277320616765	-8.771504	3.255263	-2.8738933	-0.019143105	0.0	32.0	-13.25	24.75	3.0464206	-0.2980207	1.2154334
1277320616835	-8.812365	3.214402	-2.8330324	-0.007863045	0.0	32.25	-12.5	25.25	3.0928164	-0.29330823	1.2210329
1277320616915	-8.771504	3.255263	-2.8738933	-0.019143105	0.0	31.5625	-13.75	25.0	3.004153	-0.2980207	1.2154334
1277320616955	-8.771504	3.255263	-2.7921712	-0.042826653	0.0	31.8125	-13.25	24.75	3.0443017	-0.29001966	1.2154334
1277320616995	-8.812365	3.214402	-2.8738933	0.0040283203	0.0	32.25	-12.75	25.0	3.0742862	-0.2972953	1.2210329
1277320617035	-8.853226	3.214402	-2.9147544	0.052750587	0.0	32.25	-12.0	25.0	3.1216602	-0.30011702	1.2225195
1277320617075	-8.771504	3.255263	-2.8738933	-0.019143105	0.0	32.5	-11.75	25.25	-3.1207318	-0.2980207	1.2154334
1277320617105	-8.730643	3.255263	-2.7921712	-0.07951832	0.0	32.75	-12.25	25.0	3.1389656	-0.2911456	1.2139076
1277320617145	-8.771504	3.255263	-2.8738933	-0.019143105	0.0	32.5	-13.0	25.0	3.0770853	-0.2980207	1.2154334
1277320617185	-8.812365	3.214402	-2.8738933	0.0040283203	0.0	32.25	-13.5	25.25	3.0248647	-0.2972953	1.2210329
1277320617215	-8.812365	3.173541	-2.8330324	-0.021191597	0.0	32.25	-13.75	25.0	2.9969397	-0.29371962	1.2251313
1277320617245	-8.812365	3.214402	-2.7921712	-0.01959896	0.0	31.8125	-13.75	25.5	3.0040874	-0.28931147	1.2210329
1277320617285	-8.771504	3.214402	-2.7921712	-0.056373596	0.0	31.5625	-13.5	25.0	3.0138588	-0.29043433	1.219534
1277320617315	-8.812365	3.173541	-2.8330324	-0.021191597	0.0	32.25	-13.25	25.0	3.0308707	-0.29371962	1.2251313
1277320617355	-8.812365	3.214402	-2.8738933	0.0040283203	0.0	32.0	-12.75	25.0	3.0684505	-0.2972953	1.2210329
1277320617395	-8.771504	3.214402	-2.8330324	-0.04459381	0.0	32.25	-12.5	24.75	3.0947328	-0.2944448	1.219534
1277320617435	-8.771504	3.255263	-2.8330324	-0.03106308	0.0	32.25	-12.0	25.0	3.13948	-0.29402503	1.2154334
1277320617465	-8.771504	3.214402	-2.8330324	-0.04459381	0.0	32.0	-11.75	25.0	3.140034	-0.2944448	1.219534
1277320617505	-8.771504	3.214402	-2.7921712	-0.056373596	0.0	32.0	-12.0	25.0	3.1234808	-0.29043433	1.219534
1277320617535	-8.812365	3.214402	-2.8330324	-0.007863045	0.0	31.8125	-12.25	25.25	3.0992255	-0.29330823	1.2210329
1277320617595	-8.812365	3.173541	-2.8738933	-0.009283066	0.0	32.0	-12.5	25.5	3.0774832	-0.29771158	1.2251313
1277320617636	-8.812365	3.214402	-2.9147544	0.016076088	0.0	32.0	-12.75	25.5	3.0700867	-0.30127266	1.2210329
1277320617675	-8.730643	3.173541	-2.9147544	-0.070568085	0.0	32.0	-12.5	25.5	3.0835767	-0.30403912	1.2221506
1277320617715	-8.771504	3.214402	-2.8738933	-0.032657623	0.0	32.5	-13.0	25.25	3.067806	-0.29844543	1.219534
1277320617745	-8.771504	3.173541	-2.9147544	-0.033909798	0.0	32.25	-13.25	25.25	3.0335257	-0.30286238	1.2236471
1277320617775	-8.771504	3.173541	-2.8738933	-0.0460186	0.0	32.25	-13.25	25.25	3.0335257	-0.30286238	1.2236471
1277320617805	-8.730643	3.173541	-2.9147544	-0.070568085	0.0	32.75	-13.5	25.25	3.030939	-0.30403912	1.2221506
1277320617835	-8.730643	3.173541	-2.8738933	-0.08272362	0.0	32.5	-13.5	25.5	3.0286236	-0.30002972	1.2221506
1277320617875	-8.771504	3.1463003	-2.9147544	-0.04272175	0.0	32.75	-13.0	25.5	3.0565038	-0.30314443	1.226396
1277320617915	-8.771504	3.173541	-2.8738933	-0.0460186	0.0	32.75	-12.75	25.5	3.0812545	-0.2988666	1.2236471
1277320617995	-8.771504	3.173541	-2.9147544	-0.033909798	0.0	32.5	-12.25	26.25	3.110159	-0.30286238	1.2236471
1277320618035	-8.771504	3.173541	-2.8738933	-0.0460186	0.0	32.25	-12.25	26.25	3.1049585	-0.2988666	1.2236471
1277320618075	-8.771504	3.1463003	-2.8330324	-0.06680584	0.0	32.5	-12.0	26.5	3.1205003	-0.29513645	1.226396
1277320618115	-8.771504	3.173541	-2.8330324	-0.057971954	0.0	33.0	-11.5	26.0	-3.1135333	-0.29486096	1.2236471
1277320618155	-8.771504	3.1463003	-2.8330324	-0.06680584	0.0	33.25	-11.0	26.0	-3.0822957	-0.29513645	1.226396
1277320618195	-8.812365	3.1463003	-2.8738933	-0.018073082	0.0	33.5	-11.25	26.0	-3.0954115	-0.2979871	1.2278702
1277320618225	-8.812365	3.1463003	-2.8330324	-0.029992104	0.0	33.25	-11.25	26.0	-3.101846	-0.2939919	1.2278702
1277320618255	-8.812365	3.1054392	-2.9147544	-0.019040108	0.0	32.75	-11.25	26.0	-3.1226804	-0.3023877	1.2319889
1277320618325	-8.812365	3.1054392	-2.8738933	-0.03113079	0.0	32.0	-11.25	25.25	-3.139817	-0.2983974	1.2319889
1277320618365	-8.812365	3.0645783	-2.9556155	-0.019665718	0.0	31.8125	-11.25	25.25	3.1288745	-0.30678415	1.2361194
1277320618405	-8.771504	3.1463003	-2.9147544	-0.04272175	0.0	31.5625	-11.75	25.25	3.1128728	-0.30314443	1.226396
1277320618435	-8.771504	3.1054392	-2.9147544	-0.055811882	0.0	31.5625	-11.75	25.25	3.1128728	-0.30314443	1.226396
1277320618465	-8.812365	3.1463003	-2.9147544	-0.0059986115	0.0	31.5625	-11.5	25.5	3.126429	-0.30197263	1.2278702
1277320618505	-8.771504	3.1463003	-2.9147544	-0.04272175	0.0	32.0	-11.5	25.5	3.1401503	-0.30314443	1.226396
1277320618545	-8.771504	3.1054392	-2.9556155	-0.043519974	0.0	32.0	-11.0	25.25	-3.1191452	-0.30755824	1.2305294
1277320618575	-8.812365	3.1054392	-2.9147544	-0.019040108	0.0	32.0	-11.0	25.5	-3.1233046	-0.3023877	1.2319889
1277320618655	-8.812365	3.1054392	-2.8738933	-0.03113079	0.0	32.25	-10.4375	25.5	-3.0809815	-0.2983974	1.2319889
1277320618695	-8.853226	3.1463003	-2.9556155	0.042943	0.0	32.5	-11.0	26.0	-3.105884	-0.30477116	1.2293326
1277320618735	-8.853226	3.1054392	-2.9556155	0.029966354	0.0	32.5	-11.25	26.25	-3.131966	-0.30518615	1.2334365
1277320618765	-8.812365	3.1463003	-2.9556155	0.006231308	0.0	32.75	-11.5	26.25	-3.1291358	-0.30594826	1.2278703
1277320618805	-8.771504	3.1054392	-2.9556155	-0.043519974	0.0	33.0	-11.75	26.25	3.1372259	-0.30755824	1.2305294
1277320618835	-8.771504	3.1054392	-2.8738933	-0.06794834	0.0	33.0	-11.75	26.0	3.1372533	-0.29956043	1.2305294
1277320618875	-8.853226	3.0645783	-2.9556155	0.01714325	0.0	32.75	-11.5	26.0	3.1308305	-0.3055974	1.237552
1277320618915	-8.771504	3.1463003	-2.9147544	-0.04272175	0.0	32.75	-11.75	26.0	3.1414154	-0.30314443	1.226396
1277320618955	-8.771504	3.1054392	-2.982856	-0.03523922	0.0	32.5	-11.75	25.75	3.1251457	-0.3102152	1.2305294
1277320618995	-8.771504	3.173541	-2.9147544	-0.033909798	0.0	32.5	-11.75	26.0	-3.1410391	-0.30286238	1.2236471
1277320619025	-8.812365	3.1054392	-2.9147544	-0.019040108	0.0	32.5	-12.0	25.5	3.1048205	-0.3023877	1.2319889
1277320619055	-8.812365	3.1463003	-2.9556155	0.006231308	0.0	32.25	-12.0	25.0	3.1076615	-0.30594826	1.2278703
1277320619085	-8.812365	3.1054392	-2.9556155	-0.006793976	0.0	32.0	-11.75	25.0	3.1086712	-0.3063681	1.2319889
1277320619125	-8.771504	3.1463003	-2.9556155	-0.030446053	0.0	32.0	-11.5	24.75	3.1400554	-0.3071335	1.226396
1277320619205	-8.730643	3.1463003	-2.9147544	-0.079413414	0.0	31.5625	-11.5	25.5	3.1333027	-0.30432448	1.2249093
1277320619235	-8.730643	3.1463003	-2.982856	-0.058790207	0.0	32.5	-12.0	25.75	3.1221335	-0.31098983	1.2249093
1277320619265	-8.771504	3.1463003	-2.9556155	-0.030446053	0.0	32.5	-12.0	25.5	3.1182988	-0.3071335	1.226396
1277320619295	-8.812365	3.1054392	-2.8738933	-0.03113079	0.0	32.75	-12.0	25.0	3.1098669	-0.2983974	1.2319889
1277320619325	-8.812365	3.1463003	-2.9147544	-0.0059986115	0.0	32.75	-12.5	25.0	3.0851161	-0.30197263	1.2278702
1277320619365	-8.771504	3.1054392	-2.9147544	-0.055811882	0.0	31.8125	-12.25	24.75	3.0724216	-0.30356434	1.2305294
1277320619405	-8.771504	3.1463003	-2.9556155	-0.030446053	0.0	31.8125	-12.25	24.5	3.081151	-0.3071335	1.226396
1277320619435	-8.730643	3.1463003	-2.9556155	-0.06709194	0.0	32.0	-11.75	24.75	3.1261003	-0.30832708	1.2249093
1277320619465	-8.812365	3.1054392	-2.982856	0.0014562607	0.0	32.25	-11.5	25.5	3.132403	-0.3090161	1.2319889
1277320619505	-8.812365	3.1463003	-2.9556155	0.006231308	0.0	33.0	-11.5	26.0	-3.1229753	-0.30594826	1.2278703
1277320619545	-8.812365	3.1054392	-2.8330324	-0.04306507	0.0	32.5	-11.75	26.25	3.123027	-0.2943973	1.2319889
1277320619575	-8.812365	3.1463003	-2.8738933	-0.018073082	0.0	32.25	-12.25	26.5	3.0960577	-0.2979871	1.2278702
1277320619605	-8.771504	3.173541	-2.9147544	-0.033909798	0.0	32.0	-12.25	26.0	3.0983114	-0.30286238	1.2236471
1277320619645	-8.812365	3.173541	-2.982856	0.023230553	0.0	32.0	-12.5	26.0	3.077699	-0.30830905	1.2251313
1277320619685	-8.771504	3.1054392	-3.0237172	-0.022687912	0.0	32.25	-12.5	26.25	3.0702696	-0.3141922	1.2305294
1277320619725	-8.812365	3.1463003	-2.9147544	-0.0059986115	0.0	32.5	-12.5	25.75	3.0823417	-0.30197263	1.2278702
1277320619755	-8.812365	3.1463003	-2.8330324	-0.029992104	0.0	33.0	-12.5	25.5	3.0939543	-0.2939919	1.2278702
1277320619815	-8.771504	3.1054392	-2.7921712	-0.0917511	0.0	33.0	-12.75	25.25	3.069993	-0.29152295	1.2305294
1277320619855	-8.771504	3.0645783	-2.7921712	-0.104735374	0.0	32.75	-12.5	25.5	3.0720484	-0.29192457	1.2346749
1277320619895	-8.812365	3.0645783	-2.8738933	-0.044034004	0.0	32.0	-12.25	25.75	3.0687904	-0.29880396	1.2361194
1277320619935	-8.771504	3.1054392	-2.8330324	-0.0799284	0.0	32.0	-12.25	25.75	3.0687904	-0.29880396	1.2361194
1277320620048	-8.812365	3.1054392	-2.9147544	-0.019040108	0.0	31.8125	-12.75	25.75	3.0409985	-0.3023877	1.2319889
1277320620085	-8.771504	3.173541	-2.8738933	-0.0460186	0.0	32.0	-13.0	25.25	3.0461316	-0.2988666	1.2236471
1277320620115	-8.730643	3.173541	-2.9556155	-0.058257103	0.0	32.5	-12.75	25.0	3.0752273	-0.30803847	1.2221506
1277320620155	-8.812365	3.1463003	-2.9556155	0.006231308	0.0	32.5	-12.5	24.5	3.0761256	-0.30594826	1.2278703
1277320620196	-8.812365	3.1463003	-2.9147544	-0.0059986115	0.0	32.75	-12.25	24.75	3.1019568	-0.30197263	1.2278702
1277320620235	-8.812365	3.1054392	-2.8738933	-0.03113079	0.0	32.75	-12.0	25.5	3.11094	-0.2983974	1.2319889
1277320620265	-8.771504	3.1463003	-2.7921712	-0.07861233	0.0	32.25	-11.5	25.25	-3.1371398	-0.2911177	1.226396
1277320620305	-8.812365	3.1054392	-2.7921712	-0.05484295	0.0	32.75	-11.75	25.5	3.1279683	-0.29038742	1.2319889
1277320620335	-8.771504	3.0645783	-2.8738933	-0.080901146	0.0	32.25	-11.75	25.0	3.1084561	-0.2999718	1.2346749
1277320620375	-8.771504	3.0645783	-2.8330324	-0.09289646	0.0	32.5	-11.75	24.5	3.1136675	-0.29595312	1.2346749
1277320620415	-8.812365	3.1054392	-2.8330324	-0.04306507	0.0	32.5	-12.0	25.0	3.1044126	-0.2943973	1.2319889
1277320620485	-8.812365	3.0645783	-2.8330324	-0.055984497	0.0	32.25	-11.25	24.5	3.139163	-0.29479906	1.2361194
1277320620525	-8.812365	3.1054392	-2.7921712	-0.05484295	0.0	32.25	-11.5	25.0	3.1325786	-0.29038742	1.2319889
1277320620565	-8.812365	3.1463003	-2.9147544	-0.0059986115	0.0	32.75	-11.5	25.0	-3.1281881	-0.30197263	1.2278702
1277320620595	-8.812365	3.1054392	-2.9147544	-0.019040108	0.0	32.75	-12.25	25.75	3.0944362	-0.3023877	1.2319889
1277320620635	-8.812365	3.0645783	-2.8738933	-0.044034004	0.0	33.0	-12.25	25.5	3.0894623	-0.29880396	1.2361194
1277320620675	-8.853226	3.1054392	-2.8738933	0.005721092	0.0	32.75	-12.25	25.25	3.0899022	-0.29724243	1.2334363
1277320620755	-8.812365	3.0645783	-2.7921712	-0.06777859	0.0	32.0	-12.0	25.5	3.085389	-0.2907844	1.2361194
1277320620785	-8.853226	3.0645783	-2.7921712	-0.030788422	0.0	32.25	-12.25	25.75	3.07246	-0.28965223	1.237552
1277320620815	-8.853226	3.0645783	-2.8330324	-0.019040108	0.0	32.25	-12.0	25.5	3.0869439	-0.2936531	1.237552
1277320620845	-8.812365	3.0645783	-2.8330324	-0.055984497	0.0	32.25	-11.75	25.0	3.1054	-0.29479906	1.2361194
1277320620925	-8.812365	3.0645783	-2.8738933	-0.044034004	0.0	32.5	-12.0	24.5	3.0917675	-0.29880396	1.2361194
1277320621005	-8.812365	3.1054392	-2.8330324	-0.04306507	0.0	32.25	-12.0	25.25	3.099368	-0.2943973	1.2319889
1277320621045	-8.812365	3.1054392	-2.8738933	-0.03113079	0.0	31.8125	-12.0	25.25	3.0889897	-0.2983974	1.2319889
1277320621075	-8.771504	3.1463003	-2.8330324	-0.06680584	0.0	31.5625	-11.75	25.5	3.1139667	-0.29513645	1.226396
1277320621105	-8.812365	3.1054392	-2.8330324	-0.04306507	0.0	31.8125	-12.5	25.25	3.0564704	-0.2943973	1.2319889
1277320621145	-8.853226	3.1054392	-2.8330324	-0.006169319	0.0	32.0	-12.5	25.75	3.0600471	-0.293256	1.2334363
1277320621185	-8.812365	3.1463003	-2.7921712	-0.04175377	0.0	32.0	-12.5	26.0	3.0746276	-0.28998688	1.2278703
1277320621255	-8.853226	3.1054392	-2.7240696	-0.03711033	0.0	32.25	-12.25	25.25	3.0811956	-0.28257865	1.2334363
1277320621285	-8.853226	3.1054392	-2.7513103	-0.029479027	0.0	32.5	-12.0	24.75	3.1011794	-0.2852543	1.2334363
1277320621345	-8.853226	3.1054392	-2.7921712	-0.017902374	0.0	32.5	-12.25	25.25	3.085548	-0.28925988	1.2334363
1277320621425	-8.812365	3.1463003	-2.8330324	-0.029992104	0.0	32.0	-13.0	25.75	3.0406604	-0.2939919	1.2278702
1277320621455	-8.812365	3.1054392	-2.7921712	-0.05484295	0.0	32.0	-12.75	25.5	3.0465565	-0.29038742	1.2319889
1277320621485	-8.771504	3.173541	-2.7513103	-0.08140659	0.0	32.0	-12.75	25.0	3.064322	-0.28682044	1.2236471
1277320621525	-8.812365	3.173541	-2.7513103	-0.044537544	0.0	32.25	-12.5	25.0	3.0831254	-0.28570664	1.2251313
1277320621565	-8.812365	3.1463003	-2.7513103	-0.05335903	0.0	32.5	-12.25	25.25	3.099423	-0.28597236	1.2278703
1277320621595	-8.812365	3.173541	-2.7513103	-0.044537544	0.0	32.25	-13.0	25.0	3.0499754	-0.28570664	1.2251313
1277320621635	-8.812365	3.1463003	-2.7513103	-0.05335903	0.0	32.25	-12.75	25.5	3.0625226	-0.28597236	1.2278703
1277320621675	-8.812365	3.173541	-2.7513103	-0.044537544	0.0	32.0	-13.0	25.25	3.0461075	-0.28570664	1.2251313
1277320621715	-8.853226	3.1463003	-2.7240696	-0.02404499	0.0	32.25	-13.25	25.0	3.0243742	-0.28219086	1.2293326
1277320621755	-8.853226	3.1463003	-2.7513103	-0.01642418	0.0	32.75	-13.0	25.25	3.0523703	-0.2848633	1.2293326
1277320621785	-8.812365	3.173541	-2.7513103	-0.044537544	0.0	33.0	-13.25	24.75	3.0482714	-0.28570664	1.2251313
1277320621815	-8.771504	3.173541	-2.7921712	-0.06976795	0.0	33.75	-13.25	24.5	3.067006	-0.29084554	1.2236471
1277320621845	-8.771504	3.173541	-2.8738933	-0.0460186	0.0	33.5	-13.25	24.75	3.0603735	-0.2988666	1.2236471
1277320621885	-8.730643	3.214402	-2.7513103	-0.10478306	0.0	33.0	-13.25	25.25	3.0686684	-0.2875312	1.2180228
1277320621925	-8.771504	3.214402	-2.7513103	-0.067996025	0.0	32.75	-13.25	25.75	3.0621562	-0.28641433	1.219534
1277320621965	-8.812365	3.214402	-2.7921712	-0.01959896	0.0	32.75	-13.0	25.75	3.074014	-0.28931147	1.2210329
1277320622005	-8.812365	3.214402	-2.7513103	-0.03117752	0.0	32.75	-13.25	25.5	3.0574846	-0.28530523	1.2210329
1277320622045	-8.853226	3.173541	-2.7921712	0.003914833	0.0	32.75	-13.25	25.5	3.0574846	-0.28530523	1.2210329
1277320622085	-8.812365	3.214402	-2.6832085	-0.050126076	0.0	32.75	-13.0	25.0	3.0726902	-0.27860722	1.2210329
1277320622125	-8.812365	3.173541	-2.6832085	-0.06351185	0.0	32.5	-13.25	25.5	3.043999	-0.27900022	1.2251313
1277320622165	-8.812365	3.255263	-2.7240696	-0.025286674	0.0	32.5	-13.25	26.0	3.064947	-0.2822277	1.2169467
1277320622235	-8.771504	3.214402	-2.7513103	-0.067996025	0.0	32.5	-13.5	25.75	3.0408373	-0.28641433	1.219534
1277320622265	-8.812365	3.214402	-2.6832085	-0.050126076	0.0	32.5	-13.75	25.5	3.0220537	-0.27860722	1.2210329
1277320622295	-8.771504	3.255263	-2.6014864	-0.09563732	0.0	32.5	-14.0	24.75	3.0158486	-0.27120265	1.2154334
1277320622325	-8.771504	3.214402	-2.6014864	-0.10925865	0.0	32.5	-13.5	24.75	3.0383568	-0.27159324	1.219534
1277320622365	-8.812365	3.214402	-2.6423476	-0.061284065	0.0	32.5	-13.75	25.0	3.0194712	-0.27457604	1.2210329
1277320622405	-8.812365	3.255263	-2.7240696	-0.025286674	0.0	32.75	-13.5	25.25	3.050454	-0.2822277	1.2169467
1277320622445	-8.853226	3.255263	-2.7921712	0.030654907	0.0	33.0	-13.5	26.0	3.0552716	-0.28779122	1.2184477
1277320622475	-8.812365	3.255263	-2.7513103	-0.017665863	0.0	33.0	-14.0	26.0	3.0280478	-0.28490043	1.2169467
1277320622505	-8.853226	3.255263	-2.7513103	0.019135475	0.0	32.75	-14.3125	25.25	2.9931428	-0.28380367	1.2184477
1277320622535	-8.853226	3.255263	-2.6832085	2.8419495E-4	0.0	32.5	-14.0	25.0	3.0085666	-0.27713716	1.2184477
1277320622565	-8.812365	3.255263	-2.7513103	-0.017665863	0.0	31.8125	-14.0	24.0	2.9841	-0.28490043	1.2169467
1277320622595	-8.812365	3.214402	-2.7240696	-0.038809776	0.0	31.5625	-13.5	23.75	3.0015965	-0.28262916	1.2210329
1277320622635	-8.730643	3.255263	-2.6423476	-0.12146187	0.0	31.5625	-13.5	23.75	3.0015965	-0.28262916	1.2210329
1277320622675	-8.771504	3.255263	-2.7513103	-0.05443287	0.0	31.0625	-14.3125	24.0	2.9492378	-0.28600472	1.2154334
1277320622715	-8.812365	3.255263	-2.6832085	-0.036587715	0.0	31.0625	-14.0	24.25	2.973756	-0.27821088	1.2169467
1277320622755	-8.771504	3.255263	-2.6832085	-0.07342625	0.0	30.8125	-14.3125	24.5	2.9540396	-0.27929205	1.2154334
1277320622785	-8.812365	3.214402	-2.7240696	-0.038809776	0.0	31.3125	-13.75	24.25	2.9840534	-0.28262916	1.2210329
1277320622815	-8.812365	3.255263	-2.7240696	-0.025286674	0.0	31.5625	-13.25	24.0	3.0317092	-0.2822277	1.2169467
1277320622845	-8.771504	3.2961242	-2.7240696	-0.04835701	0.0	32.0	-13.5	23.75	3.0367143	-0.2829133	1.2113452
1277320622885	-8.812365	3.336985	-2.8330324	0.033029556	0.0	32.75	-13.5	23.75	3.059912	-0.29205328	1.2088113
1277320622925	-8.812365	3.255263	-2.7513103	-0.017665863	0.0	32.5	-14.0	24.5	3.0046806	-0.28490043	1.2169467
1277320622965	-8.771504	3.2961242	-2.7240696	-0.04835701	0.0	32.5	-14.8125	24.5	2.964254	-0.2829133	1.2113452
1277320623005	-8.730643	3.255263	-2.7240696	-0.09884834	0.0	32.5	-14.8125	25.0	2.9631398	-0.28442565	1.2139076
1277320623045	-8.771504	3.2961242	-2.7513103	-0.04071808	0.0	32.0	-15.0625	25.25	2.9452455	-0.28559178	1.2113452
1277320623085	-8.812365	3.2961242	-2.6832085	-0.02289772	0.0	31.8125	-14.8125	24.75	2.9518116	-0.27781126	1.2128729
1277320623115	-8.812365	3.336985	-2.6423476	-0.02016735	0.0	32.25	-14.5625	24.75	2.9890258	-0.27339274	1.2088113
1277320623155	-8.812365	3.255263	-2.7513103	-0.017665863	0.0	32.25	-14.5625	25.0	2.966774	-0.28490043	1.2169467
1277320623195	-8.812365	3.255263	-2.7240696	-0.025286674	0.0	32.5	-14.5625	24.75	2.9704096	-0.2822277	1.2169467
1277320623235	-8.812365	3.255263	-2.6832085	-0.036587715	0.0	33.25	-14.8125	25.25	2.9771674	-0.27821088	1.2169467
1277320623265	-8.812365	3.255263	-2.6423476	-0.047730446	0.0	32.75	-14.0	25.25	3.0205946	-0.27418482	1.2169467
1277320623295	-8.812365	3.214402	-2.7240696	-0.038809776	0.0	32.5	-14.0	25.0	3.000166	-0.28262916	1.2210329
1277320623325	-8.853226	3.214402	-2.7240696	-0.0019292831	0.0	32.25	-14.0	24.5	2.9866524	-0.281537	1.2225195
1277320623365	-8.853226	3.214402	-2.7513103	0.0056734085	0.0	32.0	-13.75	24.75	2.999521	-0.2842039	1.2225195
1277320623405	-8.771504	3.255263	-2.6832085	-0.07342625	0.0	32.25	-14.3125	24.75	2.986803	-0.27929205	1.2154334
1277320623435	-8.812365	3.214402	-2.7921712	-0.01959896	0.0	32.5	-14.3125	25.0	2.9764125	-0.28931147	1.2210329
1277320623465	-8.812365	3.214402	-2.6832085	-0.050126076	0.0	32.5	-14.0	25.5	3.0062537	-0.27860722	1.2210329
1277320623505	-8.771504	3.214402	-2.6423476	-0.09821701	0.0	32.5	-13.75	24.75	3.0207086	-0.2756478	1.219534
1277320623545	-8.812365	3.255263	-2.7513103	-0.017665863	0.0	32.25	-13.5	24.5	3.033319	-0.28490043	1.2169467
1277320623585	-8.771504	3.255263	-2.7513103	-0.05443287	0.0	32.0	-13.25	24.25	3.04645	-0.28600472	1.2154334
1277320623625	-8.771504	3.214402	-2.7513103	-0.067996025	0.0	32.25	-13.25	24.25	3.0417526	-0.28641433	1.219534
1277320623665	-8.771504	3.214402	-2.6423476	-0.09821701	0.0	32.0	-13.25	24.75	3.042573	-0.2756478	1.219534
1277320623705	-8.771504	3.255263	-2.6423476	-0.08461189	0.0	32.0	-13.75	25.5	3.0256412	-0.275252	1.2154334
1277320623745	-8.812365	3.255263	-2.6423476	-0.047730446	0.0	32.25	-13.75	25.75	3.0294929	-0.27418482	1.2169467
1277320623775	-8.853226	3.214402	-2.6423476	-0.024319649	0.0	32.0	-13.5	26.0	3.0291643	-0.27351177	1.2225195
1277320623835	-8.853226	3.214402	-2.6014864	-0.035277367	0.0	32.25	-13.25	25.75	3.0487015	-0.2694855	1.2225195
1277320623915	-8.853226	3.214402	-2.6832085	-0.013203621	0.0	32.0	-13.0	25.75	3.056965	-0.27752894	1.2225195
1277320623955	-8.812365	3.214402	-2.6832085	-0.050126076	0.0	32.25	-12.75	25.5	3.0798173	-0.27860722	1.2210329
1277320623995	-8.853226	3.214402	-2.6832085	-0.013203621	0.0	32.0	-12.25	25.5	3.1023984	-0.27752894	1.2225195
1277320624025	-8.812365	3.214402	-2.6832085	-0.050126076	0.0	32.5	-12.5	25.25	3.100381	-0.27860722	1.2210329
1277320624058	-8.853226	3.214402	-2.7240696	-0.0019292831	0.0	32.75	-12.25	24.75	3.1175838	-0.281537	1.2225195
1277320624095	-8.962189	3.1463003	-2.7240696	0.07467461	0.0	32.5	-12.5	25.0	3.0704424	-0.27929556	1.2331741
1277320624135	-8.880466	3.173541	-2.8330324	0.040183067	0.0	32.75	-13.0	24.5	3.0502825	-0.29183486	1.227578
1277320624175	-8.853226	3.1054392	-2.8330324	-0.006169319	0.0	32.75	-12.75	24.75	3.0538456	-0.293256	1.2334363
1277320624215	-8.771504	3.1463003	-2.6423476	-0.12055206	0.0	33.0	-13.25	24.75	3.0476537	-0.27630007	1.226396
1277320624275	-8.812365	3.1054392	-2.6014864	-0.10771942	0.0	33.0	-12.75	25.0	3.069302	-0.27154908	1.2319889
1277320624305	-8.771504	3.1463003	-2.5333846	-0.1497078	0.0	32.75	-12.5	24.75	3.0933952	-0.26544443	1.226396
1277320624335	-8.771504	3.1463003	-2.6423476	-0.12055206	0.0	33.0	-12.25	25.0	3.114693	-0.27630007	1.226396
1277320624375	-8.880466	3.1463003	-2.6423476	-0.021769524	0.0	32.5	-12.5	25.0	3.0783663	-0.27343866	1.2303008
1277320624415	-8.921328	3.0645783	-2.6832085	5.578995E-4	0.0	32.75	-12.75	25.0	3.0436542	-0.27712926	1.2399136
1277320624445	-8.853226	3.1463003	-2.7921712	-0.0048627853	0.0	32.5	-13.25	25.0	3.027482	-0.288864	1.2293326
1277320624475	-8.812365	3.173541	-2.7240696	-0.05218029	0.0	32.0	-13.5	25.5	3.0166304	-0.28302726	1.2251313
1277320624515	-8.771504	3.173541	-2.6014864	-0.12272549	0.0	32.5	-13.5	25.0	3.0301783	-0.27198052	1.2236471
1277320624545	-8.689782	3.255263	-2.6014864	-0.16938972	0.0	32.75	-13.25	24.25	3.0751603	-0.2733312	1.2123692
1277320624575	-8.771504	3.173541	-2.5333846	-0.14079857	0.0	33.25	-13.5	24.5	3.0448494	-0.26519385	1.2236471
1277320624606	-8.962189	3.1463003	-2.5333846	0.023816109	0.0	32.75	-13.5	24.0	3.0081244	-0.26064876	1.2331741
1277320624645	-8.962189	3.214402	-2.5606253	0.05286312	0.0	32.25	-14.0	24.75	2.9879527	-0.2627231	1.2264252
1277320624685	-9.00305	3.214402	-2.6423476	0.11147976	0.0	32.25	-14.5625	25.5	2.954719	-0.2696726	1.2278682
1277320624725	-8.962189	3.214402	-3.1054392	0.2081871	0.0	32.0	-14.3125	25.25	2.9416108	-0.3152812	1.2264252
1277320624765	-8.853226	3.173541	-3.1463003	0.110515594	0.0	32.5	-14.5625	25.25	2.9286575	-0.32283676	1.2266034
1277320624795	-8.62168	3.214402	-2.8738933	-0.16688824	0.0	32.75	-13.75	25.0	3.0333877	-0.302732	1.2139314
1277320624825	-8.62168	3.173541	-2.7513103	-0.21631908	0.0	32.75	-13.25	24.75	3.059189	-0.2909723	1.2180988
1277320624865	-8.689782	3.0645783	-2.6423476	-0.22093391	0.0	32.5	-13.25	24.5	3.0207357	-0.27927074	1.2317497
1277320624905	-8.812365	2.982856	-2.4516625	-0.18553543	0.0	32.5	-12.75	24.25	3.0283086	-0.25766262	1.2444161
1277320624945	-8.730643	3.0237172	-2.3699405	-0.26811695	0.0	32.75	-13.25	24.25	3.0197716	-0.25108972	1.2373914
1277320624985	-8.921328	3.0237172	-2.4108016	-0.083229065	0.0	32.5	-13.25	24.5	3.0018697	-0.2505508	1.244016
1277320625025	-9.084772	2.8330324	-2.6423476	0.06964207	0.0	32.75	-13.25	25.25	2.9495218	-0.2708437	1.2685091
1277320625055	-9.043911	3.0237172	-2.6832085	0.09965134	0.0	32.5	-13.5	25.0	2.9716432	-0.274285	1.2481425
1277320625085	-8.921328	3.0237172	-2.6423476	-0.023247719	0.0	32.25	-13.25	25.0	2.9929836	-0.273481	1.244016
1277320625115	-8.880466	3.0645783	-2.6014864	-0.058724403	0.0	33.0	-13.25	24.5	3.0176897	-0.2701499	1.2385005
1277320625227	-8.853226	3.1463003	-2.5606253	-0.068291664	0.0	33.25	-13.25	23.75	3.0419426	-0.26607046	1.2293326
1277320625269	-8.880466	3.0645783	-2.4925237	-0.087236404	0.0	34.0	-13.25	23.5	3.0347018	-0.25934544	1.2385005
1277320625305	-8.880466	3.1463003	-2.6832085	-0.010656357	0.0	34.0	-13.25	23.75	3.0535147	-0.27745488	1.2303008
1277320625335	-8.880466	3.1054392	-2.7240696	-0.012417793	0.0	33.5	-13.25	23.5	3.0267277	-0.28184673	1.2343948
1277320625366	-8.880466	3.1054392	-2.6423476	-0.034831047	0.0	33.5	-13.5	23.5	3.01138	-0.27381355	1.2343948
1277320625405	-8.962189	3.1463003	-2.6423476	0.052458763	0.0	33.25	-13.5	23.75	3.0124428	-0.2713277	1.2331741
1277320625435	-8.853226	3.1463003	-2.6014864	-0.057468414	0.0	33.5	-13.5	22.9375	3.0217383	-0.2701142	1.2293326
1277320625465	-8.853226	3.173541	-2.5606253	-0.059456825	0.0	33.75	-13.5	22.9375	3.037144	-0.26582342	1.2266034
1277320625495	-8.853226	3.173541	-2.4925237	-0.07712555	0.0	33.75	-13.5	22.9375	3.037144	-0.26582342	1.2266034
1277320625535	-8.853226	3.1463003	-2.4925237	-0.0859766	0.0	34.0	-13.5	23.1875	3.0395489	-0.25931108	1.2293326
1277320625607	-8.853226	3.173541	-2.5333846	-0.06657791	0.0	33.75	-14.3125	23.5	2.9846332	-0.26312488	1.2266034
1277320625645	-8.880466	3.173541	-2.6423476	-0.012975693	0.0	33.5	-13.75	23.75	3.0145388	-0.2731868	1.227578
1277320625685	-8.880466	3.1054392	-2.8330324	0.018445969	0.0	33.0	-14.0	23.75	2.9568484	-0.29249957	1.2343948
1277320625725	-8.853226	3.173541	-2.7513103	-0.0076360703	0.0	33.25	-14.5625	24.0	2.9505377	-0.28460065	1.2266034
1277320625757	-8.853226	3.173541	-2.6832085	-0.026538849	0.0	32.75	-14.3125	24.25	2.9645426	-0.27791741	1.2266034
1277320625812	-8.853226	3.173541	-2.5333846	-0.06657791	0.0	32.25	-14.5625	24.5	2.948879	-0.26312488	1.2266034
1277320625845	-8.880466	3.214402	-2.5606253	-0.021361351	0.0	32.5	-14.3125	24.5	2.9763927	-0.26476362	1.2235038
1277320625875	-8.853226	3.173541	-2.6014864	-0.048643112	0.0	32.5	-13.75	24.75	3.0057335	-0.2698638	1.2266034
1277320625915	-8.812365	3.1463003	-2.6423476	-0.08353424	0.0	32.5	-13.75	24.5	2.9982295	-0.2752207	1.2278702
1277320625945	-8.812365	3.1463003	-2.5333846	-0.112579346	0.0	33.5	-13.75	24.0	3.0193117	-0.26440334	1.2278702
1277320625985	-8.853226	3.1054392	-2.4516625	-0.10953617	0.0	33.0	-13.75	23.5	2.993053	-0.2555979	1.2334363
1277320626025	-8.880466	3.173541	-2.4108016	-0.07289314	0.0	33.25	-13.75	23.5	3.0154333	-0.25027904	1.227578
1277320626065	-8.921328	3.1054392	-2.6014864	-0.008610725	0.0	33.5	-13.5	23.5	3.0095673	-0.26873383	1.2358227
1277320626096	-8.921328	3.1054392	-2.6423476	0.0023174286	0.0	33.0	-13.5	23.75	2.9994152	-0.27275002	1.2358227
1277320626135	-8.962189	3.1054392	-2.5606253	0.017879486	0.0	33.0	-13.5	24.25	3.0043774	-0.26368082	1.2372389
1277320626175	-9.043911	3.1463003	-2.4108016	0.06773567	0.0	32.5	-13.5	23.75	2.9992301	-0.24663998	1.2360011
1277320626215	-9.00305	3.1054392	-2.4108016	0.017332077	0.0	32.5	-13.75	23.75	2.976202	-0.24793191	1.2386436
1277320626255	-9.00305	2.9147544	-2.6014864	0.007545471	0.0	32.75	-13.75	23.75	2.9236307	-0.2682805	1.2576936
1277320626295	-8.771504	2.9147544	-2.5333846	-0.22264671	0.0	33.5	-13.75	23.5	2.9543705	-0.267514	1.2499777
1277320626326	-8.580819	3.1054392	-2.4925237	-0.34689903	0.0	34.5	-13.25	23.75	3.0870984	-0.26663542	1.2235556
1277320626365	-8.689782	3.173541	-2.1792557	-0.30229187	0.0	34.6875	-12.75	24.0	3.136419	-0.23134834	1.2206417
1277320626405	-8.730643	3.1054392	-2.2201166	-0.277915	0.0	34.9375	-12.5	24.0	3.1369162	-0.23515296	1.2290578
1277320626435	-8.962189	3.0645783	-2.5333846	-0.0020341873	0.0	34.6875	-12.0	24.5	3.1323354	-0.26135206	1.2413151
1277320626465	-9.193735	2.982856	-2.4108016	0.15498447	0.0	34.25	-12.25	24.0	3.0670292	-0.2444355	1.257067
1277320626495	-9.152874	2.9147544	-2.4516625	0.10705471	0.0	34.25	-12.5	23.75	3.0336208	-0.24989304	1.2624979
1277320626535	-9.00305	2.9556155	-2.6014864	0.019758224	0.0	34.0	-12.5	23.75	3.0464196	-0.26793882	1.2535912
1277320626575	-8.771504	3.0237172	-2.6832085	-0.14840126	0.0	34.0	-13.0	23.75	3.046691	-0.28151906	1.2388326
1277320626605	-8.771504	3.0237172	-2.3426998	-0.23740768	0.0	34.0	-13.25	24.25	3.0427768	-0.24732949	1.2388326
1277320626645	-8.853226	3.0645783	-2.1792557	-0.18789768	0.0	33.5	-13.0	24.25	3.056123	-0.2285477	1.237552
1277320626685	-8.921328	3.0237172	-2.4108016	-0.083229065	0.0	33.25	-13.25	24.25	3.014083	-0.2505508	1.244016
1277320626735	-9.084772	2.982856	-2.4516625	0.06457901	0.0	33.5	-13.25	23.75	2.9908063	-0.25099143	1.2535503
1277320626775	-9.00305	2.9556155	-2.5333846	0.0019483566	0.0	33.25	-13.25	24.25	2.9866588	-0.26124343	1.2535912
1277320626805	-8.853226	2.982856	-2.6832085	-0.086740494	0.0	33.25	-13.5	24.75	2.9862323	-0.27968493	1.2458185
1277320626835	-8.812365	2.982856	-2.6423476	-0.13518715	0.0	33.5	-13.0	25.0	3.031576	-0.27672917	1.2444161
1277320626875	-8.771504	3.0237172	-2.5606253	-0.18173695	0.0	33.5	-13.0	25.0	3.031576	-0.27672917	1.2444161
1277320626915	-8.812365	3.0237172	-2.5333846	-0.15166855	0.0	33.25	-12.75	24.75	3.054593	-0.26549965	1.2402619
1277320626955	-8.921328	2.982856	-2.5333846	-0.064702034	0.0	33.5	-12.25	24.5	3.0725267	-0.26307303	1.2481301
1277320626995	-9.00305	2.9556155	-2.4925237	-0.008524895	0.0	33.5	-12.75	24.75	3.029778	-0.25721467	1.2535912
1277320627035	-9.00305	2.9556155	-2.5333846	0.0019483566	0.0	33.0	-12.75	25.25	3.022897	-0.26124343	1.2535912
1277320627075	-8.962189	2.8738933	-2.6832085	-0.019940376	0.0	33.5	-13.0	24.75	2.9888763	-0.27772504	1.260487
1277320627115	-8.962189	2.9147544	-2.7921712	0.022532463	0.0	33.25	-13.75	24.25	2.9309766	-0.2880358	1.2563583
1277320627155	-8.880466	2.982856	-2.3699405	-0.14348698	0.0	33.0	-13.75	23.5	2.9634743	-0.24778289	1.2467469
1277320627195	-8.580819	3.0645783	-2.5333846	-0.34937096	0.0	33.25	-13.5	23.1875	3.022006	-0.2711885	1.2277724
1277320627235	-8.812365	3.0237172	-2.6014864	-0.13357544	0.0	32.75	-13.25	23.5	2.9977796	-0.27229336	1.2402619
1277320627275	-9.112013	3.0645783	-2.4108016	0.10457516	0.0	32.75	-12.75	24.0	3.0304594	-0.24570428	1.2463576
1277320627315	-9.152874	3.0237172	-2.4925237	0.14978695	0.0	33.0	-13.0	24.0	3.0038323	-0.25303444	1.2517267
1277320627345	-9.043911	3.0237172	-2.7921712	0.12971783	0.0	33.0	-12.75	24.0	3.0179522	-0.28484136	1.2481425
1277320627375	-8.921328	2.982856	-2.7240696	-0.013383865	0.0	33.5	-12.75	24.5	3.0337472	-0.28187528	1.2481301
1277320627415	-8.812365	3.1054392	-2.6832085	-0.08548069	0.0	33.5	-12.75	24.5	3.0337472	-0.28187528	1.2481301
1277320627445	-8.730643	3.1054392	-2.5606253	-0.19287491	0.0	33.25	-12.25	25.0	3.114402	-0.26960385	1.2290578
1277320627475	-8.853226	2.9147544	-2.4925237	-0.15843391	0.0	33.25	-12.5	25.25	3.0449958	-0.26130384	1.2527426
1277320627505	-8.921328	2.8738933	-2.6014864	-0.07951927	0.0	33.0	-13.25	25.0	2.9724753	-0.27074194	1.2591558
1277320627545	-8.853226	3.0237172	-2.6014864	-0.09633541	0.0	33.0	-13.75	24.75	2.978841	-0.27122265	1.2416794
1277320627585	-8.853226	2.982856	-2.5333846	-0.12702847	0.0	33.25	-14.3125	25.5	2.9496946	-0.26480752	1.2458185
1277320627615	-8.853226	3.0237172	-2.5606253	-0.10720253	0.0	33.0	-14.5625	25.75	2.9413712	-0.2671639	1.2416794
1277320627655	-8.921328	3.0645783	-2.6832085	5.578995E-4	0.0	33.0	-14.0	25.75	2.9750001	-0.27712926	1.2399136
1277320627695	-8.962189	3.0237172	-2.7513103	0.04390335	0.0	32.75	-14.0	25.75	2.9549866	-0.2830704	1.2454028
1277320627725	-8.880466	3.0237172	-2.7513103	-0.030389786	0.0	32.5	-13.5	24.75	2.9769344	-0.2852816	1.242618
1277320627765	-8.812365	3.0645783	-2.7513103	-0.07941437	0.0	32.5	-13.5	24.5	2.9897144	-0.28676003	1.2361194
1277320627805	-8.853226	3.1054392	-2.6423476	-0.059580803	0.0	32.25	-13.5	24.5	2.9964323	-0.2745268	1.2334363
1277320627835	-8.853226	3.1054392	-2.8330324	-0.006169319	0.0	32.25	-13.0	25.25	3.0293674	-0.293256	1.2334363
1277320627865	-8.853226	3.0237172	-2.9556155	0.0044727325	0.0	32.0	-13.5	25.25	2.9650903	-0.30600485	1.2416794
1277320627895	-8.853226	2.982856	-2.982856	2.07901E-4	0.0	32.25	-13.75	25.75	2.9474175	-0.30905676	1.2458185
1277320627935	-8.730643	3.0237172	-2.8738933	-0.13058376	0.0	32.5	-13.75	26.25	2.9816306	-0.3015603	1.2373914
1277320627975	-8.730643	3.1054392	-2.7513103	-0.14033794	0.0	32.5	-14.0	26.0	2.9882479	-0.28861913	1.2290578
1277320628015	-8.880466	3.1054392	-2.6832085	-0.023703575	0.0	32.5	-13.5	25.75	3.0091386	-0.27783474	1.2343948
1277320628055	-9.084772	2.8738933	-2.8330324	0.13409519	0.0	32.0	-13.5	25.5	2.9243464	-0.28899804	1.2644153
1277320628095	-9.275456	2.4925237	-2.982856	0.25039768	0.0	32.0	-13.5	25.25	2.8136003	-0.30112377	1.3082756
1277320628135	-8.962189	2.8738933	-2.982856	0.066420555	0.0	32.25	-13.5	25.25	2.9231188	-0.30691624	1.260487
1277320628175	-8.771504	3.173541	-2.8738933	-0.0460186	0.0	32.25	-13.75	25.5	3.0032718	-0.2988666	1.2236471
1277320628215	-8.62168	3.2961242	-2.9147544	-0.12710476	0.0	32.5	-13.25	25.0	3.083599	-0.30587235	1.2056354
1277320628255	-8.580819	3.445948	-2.6832085	-0.1783266	0.0	32.25	-13.25	24.75	3.1218643	-0.282418	1.1889224
1277320628295	-8.689782	3.405087	-2.5606253	-0.1286478	0.0	32.25	-13.0	25.25	3.1192975	-0.26777047	1.197336
1277320628325	-8.812365	3.1463003	-2.6423476	-0.08353424	0.0	32.5	-12.75	25.75	3.0711317	-0.2752207	1.2278702
1277320628355	-8.921328	2.8738933	-2.7240696	-0.046019554	0.0	33.0	-13.0	26.0	2.9932144	-0.28284368	1.2591558
1277320628385	-8.962189	2.7240696	-2.7513103	-0.043910027	0.0	33.25	-12.75	26.8125	2.982013	-0.2856878	1.2757183
1277320628425	-8.880466	2.8330324	-2.7921712	-0.07602978	0.0	33.0	-13.25	26.25	2.9700332	-0.2910382	1.261984
1277320628465	-8.880466	3.0645783	-2.9556155	0.04169941	0.0	33.0	-13.75	26.25	2.9870458	-0.30481088	1.2385005
1277320628505	-8.962189	3.1054392	-2.8738933	0.1041441	0.0	32.5	-14.0	26.5	2.9721751	-0.29420182	1.2372389
1277320628545	-8.880466	2.982856	-2.8738933	-0.007701874	0.0	33.25	-14.0	25.75	2.9530249	-0.29766205	1.2467469
1277320628585	-9.00305	2.7921712	-2.7921712	0.024288177	0.0	33.25	-13.5	25.75	2.935078	-0.2879829	1.2700665
1277320628615	-8.921328	2.7240696	-2.7921712	-0.069768906	0.0	33.5	-13.75	25.5	2.9069903	-0.29084557	1.2744445
1277320628655	-8.853226	2.8738933	-2.7513103	-0.10054016	0.0	33.75	-13.5	25.25	2.96963	-0.28740194	1.2569124
1277320628695	-8.689782	3.1463003	-2.7240696	-0.17171001	0.0	33.25	-13.75	25.75	3.031357	-0.28663722	1.2234104
1277320628735	-8.730643	3.255263	-2.7513103	-0.0911684	0.0	33.25	-14.0	25.25	3.0348096	-0.28711683	1.2139076
1277320628775	-8.921328	2.9556155	-2.6014864	-0.05506134	0.0	33.5	-13.0	25.0	3.0179107	-0.27004588	1.2508789
1277320628815	-8.962189	2.8738933	-2.7240696	-0.008658409	0.0	33.0	-12.75	25.0	2.997178	-0.28173563	1.260487
1277320628845	-8.921328	2.8330324	-2.8738933	-0.015050888	0.0	32.75	-12.75	24.75	2.9755604	-0.29789233	1.2633108
1277320628885	-8.880466	2.7649305	-2.9147544	-0.059684753	0.0	33.5	-12.5	25.5	2.9978852	-0.30368882	1.2689598
1277320628925	-8.880466	2.7921712	-2.9147544	-0.0519228	0.0	33.5	-12.75	25.75	2.9904017	-0.30343947	1.2661657
1277320628965	-8.921328	2.8330324	-2.8738933	-0.015050888	0.0	34.0	-12.5	26.5	3.0317018	-0.29789233	1.2633108
1277320629005	-9.00305	2.7921712	-2.9556155	0.07195282	0.0	34.25	-12.75	27.0625	3.0060787	-0.3038475	1.2700665
1277320629045	-9.112013	2.5333846	-3.1054392	0.1477747	0.0	33.75	-12.75	26.5	2.9134216	-0.31726128	1.2996182
1277320629075	-9.343558	2.2609777	-3.255263	0.34277534	0.0	33.75	-13.0	26.5	2.8089767	-0.32650405	1.3333776
1277320629105	-9.234595	2.3426998	-2.8330324	0.13276958	0.0	33.75	-13.25	26.0	2.8411798	-0.28903767	1.3223503
1277320629145	-8.771504	2.6423476	-2.4516625	-0.3234043	0.0	33.5	-12.75	25.5	2.9776816	-0.26149568	1.2782003
1277320629185	-8.076866	2.8330324	-3.8273177	-0.43060684	0.0	33.75	-12.75	26.0	3.0464013	-0.4204834	1.2334456
1277320629225	-8.62168	3.405087	-2.6832085	-0.15638542	0.0	33.25	-12.75	25.75	-3.117651	-0.2817583	1.1946555
1277320629265	-9.275456	3.5957718	-2.1111538	0.36294365	0.0	33.0	-13.0	25.75	3.1307635	-0.20911546	1.2009684
1277320629305	-9.724928	2.4108016	-2.9556155	0.6394901	0.0	33.0	-13.5	26.0	2.8091834	-0.28685644	1.3277959
1277320629335	-9.302697	2.6832085	-2.6014864	0.21869373	0.0	32.75	-14.0	26.0	2.8736508	-0.2624951	1.2899846
1277320629375	-8.921328	2.9556155	-2.7513103	-0.0140275955	0.0	33.0	-14.0	26.25	2.9517808	-0.28479162	1.2508789
1277320629415	-8.539958	2.8738933	-3.5957718	-0.10511875	0.0	33.0	-14.0	26.25	2.9517808	-0.28479162	1.2508789
1277320629445	-8.662541	2.9147544	-3.173541	-0.13158989	0.0	33.25	-13.5	26.25	2.9752047	-0.33419892	1.2462182
1277320629475	-8.853226	2.8330324	-2.7921712	-0.10088444	0.0	33.25	-13.0	26.25	2.9917703	-0.29180533	1.2610934
1277320629515	-9.00305	2.7240696	-3.0645783	0.08613014	0.0	33.25	-13.0	26.25	2.9917703	-0.29180533	1.2610934
1277320629555	-9.043911	2.7921712	-2.8738933	0.08515453	0.0	33.0	-12.75	26.25	2.9783816	-0.29478353	1.2713453
1277320629595	-9.043911	2.7921712	-2.7921712	0.0617218	0.0	33.25	-13.0	25.75	2.9647832	-0.28685948	1.2713453
1277320629635	-8.921328	2.7921712	-2.982856	0.005777359	0.0	33.5	-13.0	25.75	2.9672947	-0.30887556	1.2674768
1277320629675	-8.853226	2.8738933	-3.255263	0.054162025	0.0	33.5	-13.0	25.25	2.9745703	-0.33643195	1.2569124
1277320629715	-8.962189	2.8330324	-3.1463003	0.10526657	0.0	34.0	-13.0	25.0	2.9669673	-0.3230139	1.2646265
1277320629755	-9.00305	2.7649305	-2.982856	0.072478294	0.0	33.25	-13.0	25.0	2.9406047	-0.30672187	1.272829
1277320629795	-8.962189	2.6014864	-3.1054392	0.028608322	0.0	33.0	-13.0	25.0	2.8859518	-0.3212423	1.2882866
1277320629825	-8.771504	2.6014864	-3.2961242	-0.08186436	0.0	32.75	-12.75	25.0	2.8966787	-0.34579057	1.2824765
1277320629855	-8.812365	2.7240696	-3.1054392	-0.07412338	0.0	32.5	-12.75	25.25	2.9427874	-0.32475692	1.2709945
1277320629895	-8.962189	2.7649305	-2.9556155	0.027033806	0.0	32.75	-12.0	25.25	3.0092654	-0.30528012	1.27155
1277320629935	-9.193735	2.4925237	-2.8738933	0.14305878	0.0	32.5	-11.75	25.0	2.9414978	-0.293017	1.3060492
1277320629975	-8.962189	2.5333846	-2.7513103	-0.09539032	0.0	32.75	-11.75	25.25	2.9763408	-0.28724518	1.2953091
1277320630015	-8.730643	2.4925237	-3.2961242	-0.14739323	0.0	33.0	-11.25	25.0	2.9913614	-0.34823573	1.2927027
1277320630055	-8.662541	2.4925237	-3.2961242	-0.20890331	0.0	33.0	-11.5	25.25	2.9788184	-0.35056326	1.2906287
1277320630085	-9.152874	2.4108016	-2.9147544	0.09702873	0.0	33.75	-11.25	25.0	2.9734085	-0.29873374	1.3132529
1277320630115	-9.384419	2.3699405	-2.6014864	0.21590805	0.0	33.75	-10.4375	24.75	3.0163755	-0.2625698	1.3234286
1277320630155	-9.466142	1.9477097	-2.4108016	0.15394115	0.0	34.0	-10.4375	24.5	2.923366	-0.24446164	1.367873
1277320630195	-9.697687	1.8387469	-2.1792557	0.30152893	0.0	34.25	-9.9375	24.25	2.9335384	-0.21729937	1.3834139
1277320630235	-9.765789	1.9477097	-2.2609777	0.40492344	0.0	34.25	-9.6875	24.5	2.9686356	-0.22326346	1.3739372
1277320630275	-9.575105	2.070293	-2.5333846	0.31198502	0.0	34.6875	-9.9375	24.75	2.9835339	-0.25306055	1.357858
1277320630315	-9.152874	2.4516625	-2.6423476	0.030409813	0.0	34.9375	-9.6875	25.0	3.119423	-0.2719513	1.3090829
1277320630355	-9.152874	2.7649305	-2.7921712	0.15408134	0.0	35.4375	-9.6875	25.5	-3.0730193	-0.28412527	1.2774293
1277320630395	-8.962189	2.9147544	-2.8330324	0.034217834	0.0	35.9375	-8.9375	25.0	-2.9475176	-0.29201698	1.2563583
1277320630435	-8.812365	3.0645783	-2.5606253	-0.1316204	0.0	36.1875	-8.1875	24.75	-2.855333	-0.26785475	1.2361194
1277320630475	-8.880466	2.982856	-2.5333846	-0.10210705	0.0	36.1875	-7.625	24.5	-2.8451993	-0.26411122	1.2467469
1277320630515	-9.043911	2.7649305	-2.4108016	-0.047083855	0.0	36.4375	-7.125	23.75	-2.8719504	-0.24960306	1.2740974
1277320630555	-9.00305	2.6832085	-2.0294318	-0.1955576	0.0	36.4375	-8.1875	23.5	-2.9736345	-0.21275662	1.2811449
1277320630595	-8.921328	2.6832085	-1.8387469	-0.31082535	0.0	36.9375	-8.1875	22.6875	-2.9565928	-0.19486839	1.2786393
1277320630625	-9.043911	2.6832085	-1.920469	-0.17959785	0.0	37.625	-8.9375	22.1875	-2.9907799	-0.20083408	1.282382
1277320630665	-9.193735	2.7649305	-1.8387469	-0.031651497	0.0	38.125	-9.1875	21.6875	-2.9862885	-0.18923452	1.27866
1277320630705	-9.234595	2.6832085	-1.6480621	-0.049936295	0.0	38.625	-8.9375	20.9375	-2.9855518	-0.16972944	1.288022
1277320630745	-9.343558	2.4925237	-1.4982382	-0.020973206	0.0	39.125	-9.4375	20.4375	-3.0728893	-0.15370978	1.3101032
1277320630785	-9.275456	2.4516625	-1.3756552	-0.11453152	0.0	40.125	-9.4375	19.375	-3.0570683	-0.14241639	1.3123887
1277320630825	-9.275456	2.3699405	-1.2666923	-0.14977646	0.0	41.3125	-10.1875	18.875	-3.1144373	-0.1315491	1.3206418
1277320630855	-9.00305	2.3699405	-1.1849703	-0.4217863	0.0	42.5625	-11.0	18.125	-3.1257184	-0.1266019	1.3133981
1277320630885	-8.730643	2.4516625	-0.88532263	-0.6951971	0.0	43.75	-11.5	17.625	-3.0841331	-0.09731946	1.2970356
1277320630925	-8.853226	2.4516625	-0.27240697	-0.6161957	0.0	44.75	-11.75	17.375	-3.1029143	-0.029644549	1.3006431
1277320630965	-9.765789	2.3426998	0.53119355	0.25024033	0.0	45.9375	-12.25	16.3125	3.0780516	0.05284346	1.3353568
1277320631005	-10.460427	2.4925237	1.56634	1.0601177	0.0	47.4375	-12.25	15.5625	3.1006215	0.14464423	1.3368771
1277320631045	-10.7192135	2.4516625	2.2201166	1.4112415	0.0	49.125	-12.0	15.0625	3.1115248	0.1992238	1.3459471
1277320631085	-10.038197	2.070293	1.879608	0.6137352	0.0	51.125	-12.0	14.3125	3.0811105	0.18137072	1.3674066
1277320631115	-8.921328	2.2201166	0.7218784	-0.5849304	0.0	53.3125	-10.4375	13.5	-2.9877362	0.07836041	1.3268956
1277320631155	-8.921328	1.9885708	0.42223078	-0.6566353	0.0	55.5	-8.6875	12.75	-2.911135	0.046161756	1.3514808
1277320631195	-9.697687	1.1168685	-0.14982383	-0.04371071	0.0	57.1875	-7.375	11.75	3.0695863	-0.015346783	1.456133
1277320631235	-10.841797	-0.040861044	-1.3075534	1.1137857	0.0	58.9375	-4.5625	11.5	2.3100848	-0.1200225	1.5745652
1277320631275	-10.760075	3.214402	-1.2666923	1.494504	0.0	59.625	-1.8125	10.6875	-1.8356886	-0.11232124	1.2805012
1277320631315	-10.106298	4.1814466	0.3405087	1.1358223	0.0	58.9375	1.0	9.9375	-2.0305867	0.031123102	1.1784959
1277320631345	-9.275456	4.0588636	2.5333846	0.6301365	0.0	57.6875	4.875	8.9375	-2.2219048	0.24518527	1.1583089
1277320631385	-8.308413	4.9850473	2.3699405	0.16816998	0.0	56.0	7.625	6.875	-2.0226083	0.23988643	1.0303769
1277320631425	-9.302697	2.6423476	0.38136974	-0.12844658	0.0	54.0625	10.1875	5.125	-1.8506072	0.039415214	1.2940444
1277320631455	-9.534244	1.607201	-0.14982383	-0.13673115	0.0	52.8125	12.0	3.0625	-1.6812594	-0.015494425	1.403795
1277320631495	-9.00305	1.6889231	0.08172209	-0.64618874	0.0	51.8125	13.5	0.75	-1.622546	0.0089212945	1.385357
1277320631535	-8.19945	1.9885708	0.88532263	-1.323185	0.0	50.625	15.0625	-2.0625	-1.6725358	0.10454896	1.3328654
1277320631575	-7.9270425	1.7978859	1.7297841	-1.4962626	0.0	49.375	15.5625	-4.5625	-1.7543025	0.20968032	1.3477653
1277320631615	-8.076866	1.607201	2.4108016	-1.22581	0.0	48.1875	16.0625	-6.375	-1.8153851	0.28478563	1.3743738
1277320631655	-9.80665	0.6537767	3.255263	0.5468302	0.0	47.1875	16.0625	-7.9375	-1.9178705	0.31983766	1.5042281
1277320631695	-10.18802	-1.4982382	3.0645783	0.9372835	0.0	45.9375	15.5625	-9.1875	-2.0746455	0.28925475	1.7168086
1277320631735	-9.00305	-1.56634	2.7649305	-0.25923252	0.0	45.25	15.0625	-10.1875	-2.0748572	0.29380873	1.7430509
1277320631775	-8.008764	0.23154591	2.8738933	-1.2947073	0.0	45.0	14.5625	-11.5	-1.8309119	0.34439868	1.5418928
1277320631815	-17.052675	6.510526	2.6423476	8.63685	0.0	44.25	13.25	-12.5	-1.322974	0.14376183	1.2060869
1277320631845	-7.7772183	3.759216	-0.3405087	-1.1618385	0.0	43.25	12.25	-12.75	-1.1305062	-0.039398987	1.120547
1277320631875	-0.84446156	3.0645783	-1.0351465	-6.4635553	0.0	42.5625	11.0	-12.5	-1.302105	-0.3148114	0.26888263
1277320631915	-6.973618	5.7477865	-5.366417	0.70366955	0.0	42.0625	9.6875	-12.0	-0.9643005	-0.5358656	0.8814613
1277320631955	-13.102775	3.5957718	-6.742072	5.3613367	0.0	42.0625	8.4375	-11.25	-0.6178141	-0.46060878	1.3029617
1277320631995	-11.304889	-1.6480621	3.0237172	2.0111113	0.0	42.8125	6.875	-10.1875	-2.6749997	0.25873938	1.7155597
1277320632035	-9.493382	2.1111538	0.6537767	-0.05940914	0.0	43.0	5.625	-9.4375	-1.147302	0.0671234	1.3519754
1277320632075	-9.425281	1.6480621	-1.920469	-0.047540665	0.0	43.25	4.5625	-8.6875	-0.6195281	-0.1980801	1.3976909
1277320632105	-8.049625	0.84446156	-1.1441092	-1.6323881	0.0	43.25	4.0625	-7.9375	-0.55416375	-0.1404259	1.4662718
1277320632145	-8.267551	2.8330324	-1.4165162	-0.95312023	0.0	43.25	3.8125	-7.375	-0.9126349	-0.16068509	1.2406675
1277320632185	-8.853226	3.759216	-0.9125633	-0.14517593	0.0	43.5	3.8125	-6.375	-1.1176456	-0.09459485	1.1692514
1277320632225	-9.275456	2.2201166	-1.1168685	-0.20402527	0.0	43.5	3.3125	-5.125	-0.9316034	-0.11657251	1.3358624
1277320632265	-9.534244	2.5606253	-1.920469	0.25052643	0.0	43.5	2.5625	-3.3125	-0.8898535	-0.19213505	1.3084165
1277320632305	-9.656827	1.9885708	-1.1849703	0.12375164	0.0	43.5	1.25	-1.25	-1.0088693	-0.119612545	1.3677113
1277320632335	-10.378705	1.0760075	1.2666923	0.7042875	0.0	43.5	-0.25	0.0	-2.4595098	0.12080545	1.4674909
1277320632375	-11.032481	0.23154591	1.8387469	1.3804073	0.0	43.75	-1.5	1.5	3.0746355	0.16511297	1.5498117
1277320632415	-14.628253	-0.8036005	-0.88532263	4.870384	0.0	44.5	-2.0625	1.8125	1.3810776	-0.060356904	1.625676
1277320632455	-13.715691	-1.6889231	-0.7627395	4.0336676	0.0	44.25	-1.5	0.25	1.2672019	-0.0551379	1.6933175
1277320632486	-12.026767	3.636633	3.7864566	3.3160572	0.0	44.5	-0.0	-2.0625	-2.2460983	0.29270408	1.2771591
1277320632525	-12.980191	8.62168	-0.42223078	5.7817116	0.0	44.75	2.0625	-5.875	-1.3175812	-0.027089596	0.9844907
1277320632565	-9.888372	6.66035	-3.445948	2.6036167	0.0	44.25	3.8125	-9.1875	-0.98684186	-0.28136697	0.97804093
1277320632595	-9.302697	0.92618364	-2.6832085	-0.08052063	0.0	44.75	5.125	-11.0	-0.39731905	-0.27950126	1.4715626
1277320632635	-10.228881	-2.5333846	-3.0645783	1.1678514	0.0	44.5	6.125	-12.5	0.19179222	-0.28300807	1.8135806
1277320632675	-10.269742	1.3075534	-2.7921712	0.91592026	0.0	44.25	7.125	-13.0	-0.48967412	-0.26343784	1.4441568
1277320632715	-6.6331096	4.2904096	-2.982856	-1.3625288	0.0	43.5	8.4375	-14.5625	-0.8893513	-0.36103904	0.99666184
1277320632755	-5.5571017	2.9556155	-1.0351465	-3.4278908	0.0	42.8125	9.4375	-16.0625	-0.92870617	-0.16300108	1.0819846
1277320632795	-6.2108784	3.336985	1.2258313	-2.6503143	0.0	42.0625	9.4375	-17.875	-1.1678793	0.17214206	1.0777708
1277320632825	-6.238119	3.255263	3.0237172	-2.1480775	0.0	41.3125	9.4375	-19.625	-1.380469	0.40586615	1.0898345
1277320632855	-6.5922484	2.9147544	3.2961242	-1.8808713	0.0	41.3125	8.4375	-20.125	-1.4081496	0.4289035	1.1544907
1277320632885	-7.8589406	1.334794	3.486809	-1.1059341	0.0	41.5625	7.375	-20.6875	-1.3611703	0.41233492	1.4025577
1277320632925	-12.980191	-2.9147544	4.372132	4.196803	0.0	42.0625	7.375	-20.4375	0.31989235	0.31752697	1.7916863
1277320632965	-12.762266	-4.903325	3.3778462	4.276243	0.0	41.8125	6.875	-19.875	0.7428196	0.24221605	1.9376125
1277320633005	-6.8237944	-3.5276701	2.5333846	-1.7179747	0.0	41.8125	6.875	-19.875	0.7428196	0.24221605	1.9376125
1277320633045	-15.472715	2.7240696	2.6423476	6.1246862	0.0	41.5625	6.375	-19.875	-0.803938	0.16662851	1.3965259
1277320633085	-8.240311	9.384419	0.6537767	2.6992474	0.0	41.3125	5.625	-20.4375	-1.0659591	0.052301314	0.72057414
1277320633115	4.862464	8.076866	-1.7570249	-0.21673584	0.0	41.0625	5.875	-21.1875	-1.1083493	-0.18425675	-0.5419061
1277320633155	-2.6832085	7.504812	-4.5900574	-0.6093445	0.0	41.3125	5.625	-20.6875	-1.0719558	-0.52251995	0.3433688
1277320633195	-12.408136	8.853226	-5.5162406	6.4035435	0.0	42.0625	5.625	-19.375	-0.7897394	-0.3472301	0.9510662
1277320633235	-13.252599	3.9090397	-6.469665	5.4501038	0.0	42.8125	5.125	-17.625	-0.47934192	-0.4379154	1.2839661
1277320633275	-11.75436	-2.5606253	-0.29964766	2.2271175	0.0	44.5	2.8125	-15.0625	0.39439386	-0.024903143	1.7852899
1277320633315	-12.299174	-3.486809	2.5333846	3.22583	0.0	45.5	0.5	-12.75	1.2494601	0.19563559	1.8470471
1277320633355	-10.106298	-0.10896278	-0.6537767	0.32135868	0.0	46.1875	-0.75	-9.9375	0.09645506	-0.06459627	1.5815775
1277320633395	-8.349273	2.6832085	-1.1441092	-0.9625025	0.0	47.4375	-1.25	-6.625	-0.81884193	-0.12972698	1.2598509
1277320633435	-8.308413	2.4108016	-1.2666923	-1.0632992	0.0	48.1875	-1.0	-3.5625	-0.88177	-0.14538655	1.2883877
1277320633475	-8.008764	2.4108016	-2.6014864	-1.0476551	0.0	48.875	-0.5	-0.5	-0.756465	-0.30155712	1.2784036
1277320633515	-9.275456	2.982856	-2.5606253	0.26749134	0.0	49.125	-0.5	2.0625	-0.972306	-0.2569977	1.2596555
1277320633555	-10.228881	0.84446156	0.14982383	0.45812225	0.0	48.875	-0.75	4.0625	-2.5404809	0.014596442	1.4884266
1277320633595	-9.956474	0.42223078	1.0760075	0.21669483	0.0	48.625	-1.25	5.375	-3.0649467	0.1075574	1.528414
1277320633635	-11.372991	1.6480621	0.61291564	1.7014637	0.0	49.125	-1.5	5.375	-2.5323062	0.05328465	1.4268879
1277320633675	-16.358038	0.61291564	2.3018389	6.723913	0.0	49.125	-1.0	3.8125	-3.0626276	0.13970141	1.5333451
1277320633715	-13.293459	3.7864566	-0.6537767	4.031006	0.0	48.875	-0.25	0.0	-1.4032316	-0.047263794	1.2933089
1277320633755	-13.402422	9.193735	-3.1463003	6.7477703	0.0	48.625	1.8125	-4.0625	-1.1958247	-0.19122125	0.9695448
1277320633795	-10.691973	5.9793324	-2.7513103	2.7488422	0.0	46.9375	4.875	-7.625	-1.0413716	-0.22092476	1.0608901
1277320633835	-11.141444	-0.84446156	0.53119355	1.3793707	0.0	45.75	7.375	-10.1875	-0.45404354	0.047505133	1.6464463
1277320633865	-10.501288	0.92618364	-3.255263	1.2265549	0.0	44.75	10.1875	-11.25	-0.5372198	-0.29949987	1.4828268
1277320633905	-6.932757	2.3699405	-2.7921712	-1.9659896	0.0	43.75	12.5	-12.5	-0.8049532	-0.36410627	1.2414033
1277320633945	-4.3312707	2.5333846	-0.84446156	-4.718324	0.0	43.0	13.75	-14.3125	-1.0531337	-0.16673201	1.0415496
1277320633985	-3.1054392	2.6423476	-0.53119355	-5.694726	0.0	42.3125	15.0625	-16.0625	-1.1198983	-0.12954573	0.8657932
1277320634015	-3.9771416	2.3426998	0.08172209	-5.190096	0.0	41.3125	15.3125	-17.875	-1.1001711	0.01770289	1.0384738
1277320634045	-5.9793324	1.4165162	1.9477097	-3.360527	0.0	40.5625	14.8125	-18.375	-1.2990377	0.3069495	1.3381826
1277320634075	-9.152874	-0.7627395	4.8216033	0.5666199	0.0	40.5625	13.75	-18.375	-1.8577988	0.4834204	1.6539376
1277320634105	-13.715691	-3.718355	6.2789803	5.729499	0.0	41.3125	12.5	-18.125	-2.17053	0.41605258	1.8355353
1277320634145	-14.015338	-3.405087	5.597963	5.6646624	0.0	42.3125	11.25	-17.375	-1.2062848	0.3702286	1.8091328
1277320634185	-12.176591	0.95342433	7.3958488	4.471898	0.0	42.8125	10.4375	-17.0625	-2.0469804	0.5444752	1.492656
1277320634225	-16.698545	3.2961242	2.9556155	7.468811	0.0	43.0	10.4375	-17.0625	-1.0792958	0.17193334	1.3759117
1277320634265	-1.334794	4.671779	-1.0351465	-4.838882	0.0	42.5625	10.1875	-17.625	-1.1874534	-0.20991069	0.27829966
1277320634305	-1.3075534	4.944186	-2.3699405	-4.1700473	0.0	42.0625	10.4375	-17.625	-1.2116103	-0.43394727	0.25854373
1277320634335	-10.95076	6.782933	-5.284695	4.116544	0.0	42.5625	9.9375	-16.8125	-0.8465014	-0.38932124	1.016232
1277320634375	-13.525005	5.325556	-7.8180795	6.698187	0.0	42.8125	8.6875	-15.8125	-0.6496723	-0.4934693	1.1956841
1277320634416	-11.795221	-0.9942854	3.1054392	2.4309807	0.0	43.75	6.625	-14.0	-0.8968178	0.25656703	1.6548932
1277320634455	-11.985906	-0.95342433	1.3756552	2.295555	0.0	45.25	4.3125	-11.75	-0.10879809	0.11391601	1.6501746
1277320634485	-9.384419	3.3778462	-0.38136974	0.17446232	0.0	45.75	3.0625	-9.4375	-1.0299643	-0.038218442	1.2252921
1277320634525	-9.193735	3.173541	-0.27240697	-0.07678223	0.0	46.1875	2.0625	-7.625	-1.0924354	-0.028000643	1.2384173
1277320634565	-8.430995	1.334794	-1.2666923	-1.1771736	0.0	46.1875	1.8125	-6.125	-0.6166818	-0.14731899	1.4137797
1277320634595	-8.539958	1.5390993	-2.4925237	-0.77822876	0.0	45.75	1.25	-4.3125	-0.51494396	-0.27970824	1.3924872
1277320634625	-8.430995	2.1792557	-1.6480621	-0.94397926	0.0	45.5	0.75	-2.3125	-0.85995644	-0.1870442	1.3178512
1277320634665	-9.193735	2.3426998	-0.040861044	-0.31904316	0.0	45.5	0.75	-0.5	-1.5132527	-0.0043067946	1.3212912
1277320634705	-9.084772	1.56634	-1.334794	-0.4917059	0.0	45.75	0.75	1.25	-1.0219796	-0.14379096	1.4000611
1277320634745	-8.267551	1.879608	-2.1792557	-1.052537	0.0	45.75	0.75	2.3125	-0.88905096	-0.25158647	1.3472486
1277320634785	-8.730643	2.070293	-2.3426998	-0.5331135	0.0	45.75	0.5	3.3125	-0.94315445	-0.25538924	1.3379673
1277320634825	-10.528529	0.84446156	-0.42223078	0.7641268	0.0	45.75	-0.5	5.625	-2.4476545	-0.03995384	1.4907607
1277320634855	-13.865514	0.040861044	-2.7513103	4.329256	0.0	45.5	-2.3125	7.375	0.9304423	-0.19588304	1.5678494
1277320634895	-14.519291	-2.2201166	-5.597963	5.9119987	0.0	45.9375	-3.0625	8.1875	0.873257	-0.36412853	1.7225292
1277320634925	-13.402422	1.920469	7.8180795	5.8277826	0.0	45.75	-3.0625	7.625	-3.0247798	0.5236625	1.4284725
1277320634965	-11.413852	6.66035	6.701211	5.010317	0.0	45.9375	-1.8125	5.625	-2.395925	0.46930447	1.0425735
1277320635005	-12.14935	6.1291566	-4.5628166	4.5457907	0.0	46.1875	0.75	3.3125	-1.1402682	-0.32352665	1.1035677
1277320635045	-12.176591	5.9793324	-3.5957718	4.2272854	0.0	46.1875	2.8125	0.75	-1.1743159	-0.25910938	1.1143332
1277320635075	-11.604536	1.879608	1.607201	2.0584784	0.0	46.4375	4.3125	-1.25	-1.9663168	0.13587354	1.4102191
1277320635105	-10.800936	1.5390993	-2.070293	1.2980852	0.0	46.1875	5.375	-2.8125	-0.8154279	-0.18753058	1.4292524
1277320635145	-10.337844	2.4516625	-2.1111538	1.0256462	0.0	45.9375	6.375	-4.3125	-0.92531615	-0.19614978	1.3379439
1277320635185	-6.782933	3.2961242	-2.4925237	-1.8640251	0.0	45.75	7.9375	-5.625	-1.0067619	-0.31920955	1.1184567
1277320635225	-4.7943625	2.152015	-0.84446156	-4.4840384	0.0	45.5	9.4375	-7.9375	-1.1016293	-0.15932873	1.1488878
1277320635265	-4.9850473	1.9477097	-0.8036005	-4.3946223	0.0	44.75	10.6875	-9.9375	-1.038972	-0.14903527	1.1983238
1277320635305	-4.862464	1.9477097	0.95342433	-4.48254	0.0	44.75	11.25	-12.25	-1.3753406	0.18004794	1.189807
1277320635335	-5.407278	0.42223078	3.445948	-3.380805	0.0	44.5	11.0	-13.5	-2.2619116	0.5660043	1.4928688
1277320635365	-9.152874	-2.2609777	5.829509	1.2780371	0.0	44.75	10.1875	-14.5625	3.070074	0.5537805	1.812972
1277320635395	-14.47843	-5.47538	6.66035	7.044609	0.0	45.25	8.9375	-14.8125	2.090164	0.40633285	1.9323477
1277320635435	-13.593107	-3.255263	6.782933	5.729678	0.0	45.25	8.1875	-14.5625	2.786323	0.4517997	1.8058486
1277320635465	-18.196785	2.6014864	5.6252036	9.416607	0.0	45.5	7.375	-15.0625	-1.4600314	0.29697075	1.4287945
1277320635505	-7.5865335	7.5456724	-5.7477865	2.339531	0.0	45.0	6.875	-15.8125	-0.94004077	-0.49293965	0.7880984
1277320635545	4.630918	6.8237944	-0.27240697	-1.5553608	0.0	44.75	7.375	-16.8125	-1.1236093	-0.033019867	-0.5962479
1277320635585	-5.434519	6.701211	-4.0180025	-0.28905773	0.0	44.5	7.625	-17.0625	-1.0086085	-0.4358332	0.6813977
1277320635625	-14.246883	8.771504	-7.8180795	8.660492	0.0	44.75	6.875	-16.0625	-0.7880869	-0.43714073	1.0189279
1277320635665	-12.026767	2.6832085	-6.932757	4.332155	0.0	45.75	5.875	-13.75	-0.4410386	-0.51247454	1.3512882
1277320635705	-12.871228	-2.1792557	6.6331096	4.836294	0.0	46.9375	3.8125	-10.1875	2.818367	0.4701165	1.7385179
1277320635745	-10.269742	0.92618364	-0.42223078	0.5134125	0.0	47.9375	1.8125	-7.125	-0.5931129	-0.040925007	1.4808539
1277320635785	-9.343558	1.3075534	-0.46309182	-0.3606863	0.0	48.4375	0.5	-4.0625	-0.84425545	-0.049045023	1.4317576
1277320635825	-7.6273947	1.607201	-2.1383946	-1.7237682	0.0	48.875	-0.75	-1.5	-0.58392143	-0.267746	1.3631201
1277320635855	-7.5456724	2.070293	-2.070293	-1.712862	0.0	49.375	-1.25	0.25	-0.7785453	-0.2586626	1.3030175
1277320635895	-8.499097	1.4982382	-2.0294318	-0.9411011	0.0	49.375	-2.0625	2.3125	-0.630467	-0.23096001	1.396307
1277320635925	-8.962189	1.2666923	-1.607201	-0.61380386	0.0	49.375	-2.8125	4.0625	-0.7292627	-0.17573483	1.4303889
1277320635965	-10.269742	2.2609777	-0.0	0.70903397	0.0	48.875	-3.8125	6.125	-2.305095	-0.0	1.3540943
1277320636005	-11.454713	0.3405087	-0.46309182	1.6624756	0.0	48.625	-5.375	7.625	2.5340915	-0.040388234	1.5410786
1277320636045	-11.75436	-0.7627395	2.2609777	2.1874638	0.0	48.875	-6.375	8.4375	2.6407301	0.18964197	1.6355954
1277320636085	-15.4046135	0.8036005	1.5390993	5.6955013	0.0	48.625	-6.625	7.125	2.8122404	0.09944678	1.5186774
1277320636115	-14.137921	0.50395286	0.7627395	4.360797	0.0	49.125	-5.625	3.5625	2.5842154	0.053863514	1.5351659
1277320636155	-13.947236	2.6014864	-2.3699405	4.5777073	0.0	48.875	-3.8125	-1.0	-0.5242332	-0.16551284	1.386392
1277320636195	-14.9006605	9.724928	-3.9499009	8.419859	0.0	48.875	-1.0	-5.625	-1.0606148	-0.21844502	0.99255985
1277320636235	-10.378705	5.284695	-0.8036005	1.8677359	0.0	48.4375	1.5	-8.4375	-1.1180434	-0.06888897	1.0998267
1277320636275	-11.223166	-0.95342433	-1.7570249	1.5931578	0.0	47.6875	3.8125	-10.1875	0.013633247	-0.15474443	1.6555443
1277320636315	-9.193735	2.4516625	-5.434519	1.1509686	0.0	47.1875	6.375	-12.25	-0.5141043	-0.5189377	1.3101939
1277320636355	-4.2495484	2.7649305	-1.7978859	-4.4274406	0.0	45.75	8.1875	-14.8125	-0.89923483	-0.34078673	0.99397063
1277320636395	-2.1383946	3.405087	-0.38136974	-5.7677402	0.0	44.75	9.6875	-18.375	-1.1403668	-0.0945648	0.5607537
1277320636435	-2.5333846	3.1463003	-0.5720546	-5.7268844	0.0	43.5	10.4375	-20.6875	-1.0504024	-0.14068109	0.67790043
1277320636475	-4.0588636	2.3018389	-0.040861044	-5.140334	0.0	42.3125	9.9375	-22.1875	-0.92021954	-0.008756707	1.0549086
1277320636515	-8.689782	0.84446156	6.5513873	1.1087561	0.0	42.3125	8.9375	-22.1875	-2.0657825	0.64374655	1.4739219
1277320636555	-18.850561	-6.5922484	6.973618	11.345955	0.0	42.5625	7.9375	-21.4375	0.81911784	0.335966	1.9072137
1277320636595	-12.217452	-2.7921712	6.1700177	4.1622963	0.0	43.5	7.125	-21.4375	1.6431435	0.4574874	1.7954773
1277320636625	-16.43976	2.070293	7.3958488	8.338608	0.0	44.0	6.625	-21.6875	-1.3786614	0.4198147	1.4455237
1277320636665	-10.800936	5.175732	-5.47538	3.362564	0.0	43.75	6.875	-22.6875	-0.6115592	-0.42879063	1.1239325
1277320636705	4.903325	7.5865335	2.2201166	-0.5046606	0.0	43.0	7.375	-23.1875	-0.8266207	0.24099723	-0.5737836
1277320636745	-3.486809	6.1700177	-4.2495484	-1.5431395	0.0	42.5625	7.375	-23.1875	-0.9788705	-0.54013824	0.51437855
1277320636785	-10.079058	8.008764	-5.8158884	4.319647	0.0	43.5	7.375	-21.4375	-0.8034857	-0.42432588	0.8993601
1277320636825	-15.4046135	5.597963	-9.234595	9.006033	0.0	44.25	6.625	-19.875	-0.52763176	-0.5130889	1.2222383
1277320636865	-11.9450445	-1.1849703	1.6480621	2.3096342	0.0	45.9375	4.0625	-17.375	0.04495331	0.13644339	1.6696746
1277320636895	-11.917805	-2.070293	4.862464	3.2303638	0.0	47.4375	1.5	-13.5	2.2163115	0.38221198	1.7427942
1277320636925	-10.310603	-0.29964766	-0.61291564	0.52649975	0.0	47.6875	-0.75	-10.4375	0.15981504	-0.059350304	1.5998503
1277320636965	-8.117727	1.334794	-0.84446156	-1.5366869	0.0	48.875	-3.0625	-6.875	-0.39373928	-0.10229017	1.4078251
