#timestamp	accel_x	accel_y	accel_z	accel_mag	temperature	mag_x	mag_y	mag_z	azimuth	pitch	roll
1276888624086	0.42223078	2.3426998	9.112013	-0.3888321	0.0	-20.5	-7.4375	-50.0625	1.4623032	1.3152647	-0.17831819
1276888624135	0.46309182	2.3018389	9.384419	-0.13296223	0.0	-20.0	-6.4375	-50.5625	1.4447694	1.3256319	-0.1985332
1276888624185	0.38136974	2.152015	9.575105	0.014716148	0.0	-20.0	-4.9375	-51.3125	1.3985418	1.346388	-0.17539422
1276888624216	0.23154591	2.1792557	9.575105	0.016048431	0.0	-19.0	-3.875	-52.125	1.2610192	1.3457943	-0.10585286
1276888624256	0.10896278	2.152015	9.534244	-0.031946182	0.0	-19.0	-3.375	-52.375	1.199547	1.3485272	-0.050589707
1276888624285	-0.040861044	2.070293	9.466142	-0.11667442	0.0	-19.0	-2.875	-52.625	1.1379473	1.3554404	0.019734278
1276888624315	-0.040861044	2.0294318	9.193735	-0.39150143	0.0	-18.25	-3.375	-52.875	1.1379141	1.3534971	0.020131508
1276888624345	0.08172209	2.152015	9.00305	-0.54961205	0.0	-18.25	-3.125	-52.875	1.128064	1.3360043	-0.037956446
1276888624375	0.040861044	2.070293	9.112013	-0.46231747	0.0	-18.5	-2.875	-52.875	1.1362679	1.3473425	-0.01973428
1276888624415	-0.08172209	1.9477097	9.302697	-0.30189228	0.0	-18.5	-2.875	-52.875	1.1362679	1.3473425	-0.01973428
1276888624445	-0.040861044	1.920469	9.615966	-6.990433E-4	0.0	-19.0	-2.125	-52.375	1.1477506	1.3736295	0.021273386
1276888624475	-0.14982383	1.879608	9.847511	0.21975803	0.0	-18.75	-2.375	-52.625	1.1244583	1.3816094	0.07954197
1276888624506	-0.14982383	1.8387469	9.765789	0.13186455	0.0	-19.0	-2.125	-52.375	1.1239374	1.3840882	0.081301875
1276888624545	-0.0	1.879608	9.507003	-0.11562157	0.0	-18.75	-1.625	-52.375	1.1423386	1.3756058	0.0
1276888624585	-0.0	1.8387469	9.425281	-0.20368671	0.0	-18.75	-1.0625	-52.625	1.1218193	1.3781296	0.0
1276888624625	0.040861044	1.7297841	9.302697	-0.34440994	0.0	-19.5	-0.5625	-52.125	1.1582597	1.3869014	-0.023617657
1276888624665	-0.040861044	1.6480621	9.112013	-0.5467062	0.0	-19.25	-1.0625	-52.625	1.142709	1.3918099	0.02478831
1276888624706	0.040861044	1.607201	9.043911	-0.62094975	0.0	-19.5	-1.0625	-52.625	1.1951593	1.3948656	-0.025418255
1276888624745	0.27240697	1.4573772	8.812365	-0.87043667	0.0	-19.5	-1.3125	-53.125	1.3620867	1.404115	-0.18478362
1276888624775	0.6537767	1.6889231	8.430995	-1.1833353	0.0	-19.5	-1.625	-52.875	1.4163051	1.3592039	-0.36933368
1276888624815	1.2666923	1.5390993	8.308413	-1.2624674	0.0	-19.0	-1.0625	-52.375	1.593628	1.3353306	-0.6886141
1276888624855	1.334794	1.4982382	8.049625	-1.5106955	0.0	-18.5	-0.8125	-52.625	1.5557938	1.326498	-0.7277698
1276888624895	1.0760075	1.5390993	8.499097	-1.1025553	0.0	-18.0625	-0.0625	-52.625	1.4898285	1.3533338	-0.6101318
1276888624935	0.7627395	1.920469	8.281172	-1.2715588	0.0	-17.3125	0.4375	-53.625	1.154921	1.3262608	-0.3780584
1276888624979	0.92618364	2.3018389	7.6273947	-1.7858381	0.0	-16.8125	0.1875	-54.375	0.95789325	1.256294	-0.38254505
1276888625035	-1.0760075	1.1168685	9.847511	0.16223526	0.0	-16.0625	0.1875	-54.9375	0.5262676	1.4145906	0.7667668
1276888625075	-2.2201166	1.1441092	11.141444	1.6113043	0.0	-15.125	1.1875	-55.4375	0.22401945	1.3502716	1.0949541
1276888625115	-1.8387469	0.88532263	10.691973	1.0783424	0.0	-14.125	3.75	-55.1875	0.11197796	1.3821944	1.1220729
1276888625145	-0.7218784	-0.46309182	9.275456	-0.49162674	0.0	-14.625	7.3125	-54.9375	-0.80973023	1.4785942	2.1411796
1276888625186	0.6946377	-0.42223078	9.112013	-0.6584492	0.0	-15.8125	10.125	-54.625	3.1099064	1.4818207	-2.116963
1276888625221	-1.4573772	0.42223078	11.563675	1.8561459	0.0	-16.8125	12.4375	-54.125	-0.26782236	1.4403281	1.2887975
1276888625255	-0.23154591	-1.4165162	9.697687	-0.003320694	0.0	-18.25	13.4375	-54.125	-1.6833935	1.4238571	2.9795642
1276888625285	1.1441092	-0.46309182	8.812365	-0.908268	0.0	-19.0	13.1875	-54.125	2.810726	1.4316396	-1.9554011
1276888625325	-0.14982383	0.50395286	11.536434	1.7417574	0.0	-18.5	12.1875	-54.375	0.63356483	1.5252564	0.28897542
1276888625365	-1.3075534	1.5390993	11.75436	2.119938	0.0	-17.5625	9.625	-54.9375	0.25236484	1.4006461	0.70423716
1276888625395	-2.1383946	2.3018389	11.073342	1.703785	0.0	-15.3125	7.3125	-55.9375	0.20218423	1.2943316	0.74860495
1276888625443	-1.9477097	2.4108016	10.95076	1.5742416	0.0	-13.625	5.3125	-56.6875	0.25674173	1.2949893	0.6795453
1276888625475	-1.8387469	2.4108016	9.534244	0.19808674	0.0	-13.125	4.8125	-57.1875	0.25735307	1.2628992	0.6515871
1276888625506	-1.3756552	3.486809	9.043911	-0.016727448	0.0	-14.625	4.5	-57.4375	0.37000453	1.1778841	0.3757831
1276888625545	-0.84446156	2.982856	8.390134	-0.8621044	0.0	-17.3125	3.75	-57.1875	0.5150016	1.2168632	0.27588567
1276888625585	0.08172209	2.152015	7.9679036	-1.5528431	0.0	-19.75	3.5	-56.9375	0.8484474	1.3068236	-0.037956443
1276888625615	0.27240697	1.8387469	9.534244	-0.092897415	0.0	-21.9375	2.75	-56.4375	1.134194	1.3782498	-0.14707837
1276888625655	0.88532263	1.920469	9.997335	0.41189766	0.0	-23.4375	2.5	-55.6875	1.3872299	1.3623414	-0.43195793
1276888625695	1.1849703	2.0294318	8.894087	-0.60732746	0.0	-24.625	3.0	-55.4375	1.3689113	1.3124734	-0.5284916
1276888625725	0.7218784	2.3426998	9.724928	0.2224865	0.0	-25.625	3.0	-54.625	1.2364218	1.3238667	-0.29890743
1276888625755	0.27240697	2.4108016	10.760075	1.2235527	0.0	-27.0625	3.5	-54.125	1.1462486	1.3490285	-0.1125171
1276888625796	4.9850473	1.0351465	6.510526	-1.5417137	0.0	-28.5625	4.0	-53.625	0.69571066	0.9071129	-1.3660557
1276888625835	-0.84446156	1.7978859	9.915613	0.30596066	0.0	-30.0	4.8125	-52.875	0.7461117	1.3730896	0.43911266
1276888625875	3.636633	1.6889231	8.62168	-0.29818344	0.0	-31.75	5.3125	-52.875	1.6685662	1.1354812	-1.1360161
1276888625905	2.2201166	1.920469	8.390134	-0.91781044	0.0	-32.1875	5.3125	-52.625	1.662973	1.2342333	-0.8576406
1276888625935	2.3426998	1.607201	9.084772	-0.28801537	0.0	-32.6875	5.0625	-52.375	1.8847625	1.2677094	-0.96949667
1276888625966	2.6832085	1.7570249	9.575105	0.29133892	0.0	-33.1875	4.5	-51.3125	1.9079025	1.2475805	-0.9910385
1276888626005	2.7921712	1.4982382	8.894087	-0.36494923	0.0	-33.9375	4.8125	-50.5625	1.9906967	1.2285419	-1.0783106
1276888626045	3.255263	1.3756552	9.425281	0.25938606	0.0	-35.375	5.5625	-49.5625	2.101287	1.2120701	-1.1709652
1276888626075	3.0645783	1.1441092	9.997335	0.7122536	0.0	-36.625	6.5625	-49.0625	2.2457085	1.2545712	-1.2134876
1276888626115	3.214402	0.92618364	9.697687	0.45177746	0.0	-37.375	7.5625	-48.5625	2.3123922	1.2386312	-1.2902596
1276888626155	4.2086873	0.7627395	8.349273	-0.42554283	0.0	-38.3125	9.125	-47.25	2.159669	1.0973655	-1.3915124
1276888626195	3.9499009	-0.14982383	7.273266	-1.5286942	0.0	-39.0625	10.375	-46.5	2.5212224	1.0729868	-1.6087092
1276888626225	4.0588636	0.88532263	9.275456	0.35663033	0.0	-40.0625	11.4375	-45.75	2.2147336	1.1497062	-1.3560392
1276888626257	4.862464	1.334794	9.507003	0.9547777	0.0	-41.0	13.1875	-44.9375	2.000057	1.0831394	-1.3028859
1276888626296	5.2165933	0.6946377	8.853226	0.49262047	0.0	-41.5	14.5	-44.4375	2.0771778	1.034481	-1.4384158
1276888626336	6.6331096	-1.4165162	7.246025	0.118546486	0.0	-41.75	15.75	-43.4375	1.932035	0.81841505	-1.7811884
1276888626375	5.597963	-1.334794	7.1234417	-0.6490145	0.0	-41.75	17.3125	-42.9375	2.39473	0.8912677	-1.8048685
1276888626415	4.1814466	-0.29964766	10.310603	1.323616	0.0	-42.25	17.5625	-42.9375	2.5987241	1.1846235	-1.6423353
1276888626461	4.140586	0.8036005	8.730643	-0.11054993	0.0	-42.0	16.75	-42.9375	2.1380413	1.120753	-1.3791006
1276888626505	2.9147544	0.88532263	7.7772183	-1.4541225	0.0	-43.0	16.0	-42.6875	2.1556594	1.197476	-1.2759134
1276888626545	3.5957718	0.7627395	7.8180795	-1.1675692	0.0	-43.9375	15.5	-41.625	2.2160156	1.1313012	-1.3617734
1276888626586	4.8216033	0.23154591	8.19945	-0.29179668	0.0	-44.6875	16.0	-39.875	2.3407614	1.0387142	-1.5228106
1276888626625	6.4424243	-0.42223078	7.9270425	0.41690636	0.0	-45.6875	17.8125	-38.5625	2.2484372	0.8873013	-1.6362418
1276888626655	6.510526	-0.50395286	8.499097	0.91135216	0.0	-45.6875	19.8125	-37.3125	2.3034701	0.915675	-1.6480482
1276888626695	6.4015636	-0.61291564	8.281172	0.6782665	0.0	-45.875	21.625	-35.5	2.3189614	0.9105116	-1.66625
1276888626725	5.8976107	-0.5720546	7.014479	-0.62449455	0.0	-46.375	22.625	-34.25	2.2587402	0.8693739	-1.6674916
1276888626766	6.2789803	-0.6946377	6.701211	-0.5971794	0.0	-47.625	23.375	-32.4375	2.2341263	0.8148802	-1.6809773
1276888626805	6.5513873	-0.88532263	7.082581	-0.11812973	0.0	-48.5625	23.9375	-31.9375	2.3111038	0.8198275	-1.7051178
1276888626845	6.782933	-0.6537767	6.973618	-0.05642128	0.0	-49.0625	24.1875	-31.1875	2.223006	0.7969476	-1.666885
1276888626885	7.3549876	-0.88532263	7.6954966	0.87512493	0.0	-49.5625	24.4375	-30.6875	2.296537	0.8044256	-1.6905904
1276888626915	6.782933	-1.1441092	7.0553403	0.047029495	0.0	-49.5625	24.4375	-30.6875	2.296537	0.8044256	-1.6905904
1276888626945	6.4015636	-1.0760075	7.082581	-0.19932175	0.0	-49.0625	23.9375	-29.625	2.447087	0.82892597	-1.7373248
1276888626985	6.5513873	-1.1441092	7.43671	0.17003822	0.0	-49.0625	23.375	-29.625	2.493807	0.84114766	-1.743689
1276888627016	6.8237944	-1.7570249	7.014479	0.13589573	0.0	-49.0625	23.6875	-29.625	2.5713172	0.7831303	-1.8228072
1276888627057	6.8237944	-0.9942854	6.742072	-0.16256905	0.0	-48.8125	23.6875	-29.625	2.3106658	0.7741228	-1.7154866
1276888627095	6.973618	-0.53119355	7.246025	0.26401997	0.0	-49.3125	23.9375	-29.625	2.2459826	0.8031076	-1.6468214
1276888627125	7.0553403	-1.7978859	6.4424243	-0.08476448	0.0	-49.5625	24.9375	-29.625	2.4260416	0.7243814	-1.8203121
1276888627165	6.973618	-2.0294318	6.5513873	-0.025513649	0.0	-49.5625	24.9375	-29.625	2.4260416	0.7243814	-1.8203121
1276888627195	6.2789803	-1.1168685	7.668256	0.1670723	0.0	-49.3125	24.9375	-29.125	2.5166261	0.8770343	-1.7468294
1276888627226	6.5513873	-1.607201	8.240311	0.84259796	0.0	-48.5625	25.1875	-29.125	2.624904	0.8848069	-1.8113675
1276888627265	5.829509	-2.2201166	9.112013	1.2360344	0.0	-47.625	24.9375	-28.875	2.916378	0.9704904	-1.9346781
1276888627305	2.7649305	-3.7864566	10.841797	2.0054893	0.0	-46.625	24.6875	-30.4375	-2.5082622	1.1626348	-2.510874
1276888627345	1.334794	-3.759216	12.598822	3.4086313	0.0	-44.6875	24.1875	-33.25	-2.222424	1.2641541	-2.800406
1276888627385	0.040861044	-1.6889231	11.727119	2.0415335	0.0	-42.5	22.625	-37.0625	-1.9786166	1.4277201	-3.1174037
1276888627433	0.6946377	1.1168685	12.639683	2.9012804	0.0	-39.8125	19.5625	-41.125	1.5738459	1.4671117	-0.55640393
1276888627475	2.5606253	3.255263	9.534244	0.5883169	0.0	-36.875	15.5	-44.1875	1.3695165	1.1609901	-0.66652334
1276888627506	4.630918	4.372132	9.084772	1.2881241	0.0	-34.6875	11.9375	-46.0	1.2045455	0.9593759	-0.81413454
1276888627546	5.434519	4.2904096	9.425281	1.8885422	0.0	-32.6875	7.875	-46.75	1.178613	0.93721205	-0.9025069
1276888627585	4.9850473	3.9499009	8.771504	1.0280952	0.0	-30.5	5.3125	-48.25	1.1040761	0.9434223	-0.9007376
1276888627615	4.2904096	3.1054392	7.504812	-0.62114143	0.0	-28.0625	4.0	-48.8125	1.0427226	0.9562365	-0.94426894
1276888627645	4.5628166	1.9477097	6.851035	-1.3479528	0.0	-25.375	3.25	-49.8125	0.8513219	0.94404936	-1.1673465
1276888627685	5.134871	1.1849703	6.510526	-1.4306126	0.0	-23.1875	3.75	-51.0625	0.5275623	0.8903309	-1.3439975
1276888627725	3.9499009	0.7218784	6.8237944	-1.8891382	0.0	-21.1875	4.8125	-51.3125	0.7702862	1.0389278	-1.3900326
1276888627755	3.568531	-0.08172209	7.3141265	-1.668006	0.0	-19.0	6.8125	-51.875	0.85536146	1.1167758	-1.5936931
1276888627785	3.2961242	-0.9942854	7.3549876	-1.6857586	0.0	-16.8125	8.375	-52.625	0.5186142	1.1329979	-1.8637688
1276888627826	1.920469	-1.4982382	6.932757	-2.4584508	0.0	-14.125	10.375	-52.875	-0.47064826	1.2329279	-2.2333107
1276888627866	-0.08172209	-1.607201	8.471856	-1.1833029	0.0	-11.9375	12.4375	-53.125	-1.7048924	1.3830771	3.0907888
1276888627905	-1.0351465	-1.8387469	7.8861814	-1.6430492	0.0	-10.4375	12.6875	-53.375	-1.0863464	1.3093516	2.6288514
1276888627935	-1.1849703	-0.53119355	10.147159	0.4232645	0.0	-10.1875	12.4375	-53.375	-0.95626074	1.4435129	1.9922155
1276888627975	-1.9477097	-0.3405087	10.760075	1.133584	0.0	-10.4375	11.6875	-53.375	-0.64263463	1.3890656	1.7438724
1276888628015	-1.4982382	-0.38136974	9.997335	0.3095188	0.0	-11.6875	9.625	-53.625	-0.6217105	1.4173691	1.8200485
1276888628045	-1.3075534	0.27240697	10.18802	0.4685459	0.0	-12.875	8.625	-54.375	-0.26651806	1.4404414	1.3654009
1276888628085	-2.0294318	0.6537767	11.495573	1.8849802	0.0	-13.875	7.3125	-54.125	-0.10755365	1.3874056	1.2591465
1276888628116	-2.1111538	0.53119355	12.176591	2.5630102	0.0	-14.625	5.8125	-54.125	-0.082925424	1.3938835	1.3243002
1276888628145	-1.7570249	0.7627395	11.645397	1.9952221	0.0	-14.875	5.5625	-54.125	0.033582196	1.4077754	1.161236
1276888628186	-1.56634	1.1168685	10.760075	1.1240416	0.0	-15.125	4.25	-53.625	0.21826068	1.3938794	0.9513699
1276888628241	-1.0760075	0.84446156	9.575105	-0.1343422	0.0	-15.3125	3.75	-53.875	0.28948307	1.428905	0.9053863
1276888628275	-0.53119355	0.61291564	8.62168	-1.146904	0.0	-16.0625	3.5	-54.625	0.4953698	1.4769993	0.7140907
1276888628305	-0.46309182	0.6537767	8.853226	-0.9172468	0.0	-16.8125	2.75	-54.375	0.62495565	1.4805466	0.61629695
1276888628335	-0.6537767	0.7627395	8.812365	-0.9372101	0.0	-17.0625	2.25	-54.625	0.5458553	1.4572885	0.70862633
1276888628365	-0.84446156	0.92618364	8.812365	-0.9055996	0.0	-17.0625	2.0	-54.625	0.501568	1.4295157	0.73927706
1276888628396	-1.1441092	0.8036005	9.234595	-0.46681595	0.0	-16.5625	1.75	-53.875	0.34563336	1.4205369	0.9584742
1276888628435	-1.6480621	0.6946377	9.724928	0.081365585	0.0	-15.125	0.6875	-54.625	0.21630557	1.3889228	1.1719044
1276888628465	-1.7570249	0.6946377	8.853226	-0.75406647	0.0	-14.125	0.6875	-54.625	0.18381515	1.3605415	1.194306
1276888628495	-1.6889231	0.50395286	9.384419	-0.25815487	0.0	-12.625	0.4375	-55.4375	0.14245394	1.3851469	1.2808199
1276888628535	-1.7978859	0.46309182	9.847511	0.21434402	0.0	-11.4375	0.1875	-55.9375	0.12480017	1.384452	1.3187003
1276888628565	-2.070293	0.3405087	10.228881	0.6351919	0.0	-11.1875	0.6875	-56.4375	0.051037915	1.3684863	1.4077821
1276888628605	-1.6480621	0.5720546	9.234595	-0.40871906	0.0	-10.9375	0.6875	-56.4375	0.13993935	1.3840849	1.2367008
1276888628645	-1.7297841	1.3075534	8.117727	-1.4043083	0.0	-10.9375	0.4375	-56.1875	0.2631709	1.3097745	0.92352635
1276888628675	-1.6889231	1.1168685	8.430995	-1.1359224	0.0	-10.1875	0.1875	-55.6875	0.25030488	1.3350979	0.98652506
1276888628705	-1.4573772	3.0237172	10.732834	1.438817	0.0	-9.0	-0.0625	-54.625	0.38663313	1.2676911	0.44912958
1276888628745	-4.5219555	3.7864566	9.302697	1.2081356	0.0	-7.25	-1.625	-54.375	0.17730467	1.0057514	0.8736926
1276888628775	-3.1463003	4.671779	10.269742	1.9062624	0.0	-6.0625	-2.875	-54.125	0.24175651	1.0691416	0.59269744
1276888628815	-3.9499009	2.5606253	8.812365	0.18416023	0.0	-6.8125	-3.875	-54.625	0.23608486	1.0801892	0.99563414
1276888628855	-2.4925237	0.040861044	6.469665	-2.873331	0.0	-8.0	-3.625	-55.4375	0.13650881	1.2030132	1.5544044
1276888628895	-2.7921712	-0.29964766	9.615966	0.2109747	0.0	-9.0	-1.625	-56.1875	0.026736207	1.2866623	1.6777042
1276888628925	-2.4925237	-0.27240697	10.61025	1.0958405	0.0	-9.9375	0.1875	-56.1875	-0.056168463	1.338738	1.6796539
1276888628985	-1.1441092	0.23154591	9.888372	0.150383	0.0	-10.1875	2.0	-56.4375	0.0035759332	1.4532923	1.3711125
1276888629031	-0.42223078	0.08172209	9.384419	-0.41238117	0.0	-11.6875	2.5	-55.6875	-0.016121864	1.5249991	1.3796118
1276888629068	-0.0	-0.27240697	10.119919	0.3169346	0.0	-14.625	3.25	-54.9375	-1.6912737	1.5438846	3.1415927
1276888629106	0.08172209	-0.19068487	10.501288	0.6966877	0.0	-17.8125	4.25	-54.375	-2.1610649	1.5510433	-2.7367008
1276888629167	0.19068487	0.23154591	9.956474	0.1543417	0.0	-20.5	5.0625	-53.625	1.9462227	1.5406797	-0.68892443
1276888629215	1.0760075	0.14982383	8.894087	-0.8464594	0.0	-21.4375	6.0625	-53.125	2.5658374	1.4492513	-1.4324454
1276888629245	1.0760075	0.3405087	7.8861814	-1.8401203	0.0	-20.5	7.3125	-53.125	2.2030106	1.4286498	-1.2643118
1276888629275	0.42223078	0.9942854	7.205164	-2.5209608	0.0	-17.8125	8.375	-54.125	1.1516728	1.4219812	-0.4015805
1276888629305	-4.4810944	1.5390993	10.310603	1.5404892	0.0	-13.625	8.875	-54.9375	-0.10606664	1.1400449	1.2399551
1276888629335	-8.008764	0.8036005	12.258313	4.8580112	0.0	-8.75	8.625	-55.9375	-0.19660911	0.9897857	1.4707909
1276888629366	-4.2904096	1.1849703	11.876944	2.8769436	0.0	-4.5625	7.875	-56.6875	-0.2407168	1.2122333	1.3013237
1276888629408	-2.6014864	1.0760075	9.956474	0.5401802	0.0	-1.875	7.875	-56.4375	-0.31816	1.295236	1.1786103
1276888629470	-2.5606253	0.19068487	8.62168	-0.81073284	0.0	-0.4375	9.125	-56.1875	-0.48742813	1.2813401	1.4964654
1276888629526	-3.486809	0.0	9.888372	0.67846966	0.0	0.5625	10.875	-55.6875	-0.5437654	1.2317921	1.5707964
1276888629569	-4.440233	-0.27240697	9.575105	0.7514038	0.0	0.8125	12.1875	-55.1875	-0.5064393	1.1358687	1.6320692
1276888629612	-5.366417	-0.42223078	9.193735	0.8470564	0.0	1.75	13.1875	-55.1875	-0.47197428	1.0411012	1.6493148
1276888629645	-4.5219555	-1.2666923	10.079058	1.3127022	0.0	3.0	12.9375	-54.625	-0.59293056	1.1347837	1.8439168
1276888629675	-4.372132	-1.1168685	11.686258	2.720583	0.0	3.75	12.9375	-54.9375	-0.71333677	1.202295	1.8208994
1276888629705	-4.2904096	-1.6889231	11.604536	2.680356	0.0	5.4375	13.4375	-55.1875	-0.75810564	1.1925911	1.9458174
1276888629736	-4.8216033	-1.4573772	7.205164	-1.0153933	0.0	7.375	15.0	-54.125	-0.5136511	0.96068275	1.8643252
1276888629793	-4.7943625	-2.2201166	3.7864566	-3.30649	0.0	9.375	17.3125	-53.375	-0.33155015	0.6218225	2.0044644
1276888629825	-6.0882955	-1.879608	8.158588	0.5452976	0.0	11.5625	19.3125	-52.375	-0.66861546	0.90775037	1.8702382
1276888629855	-5.47538	-1.56634	7.1234417	-0.68652725	0.0	13.25	21.375	-50.8125	-0.77714634	0.8963753	1.8494245
1276888629910	-5.202973	-2.6014864	7.5865335	-0.24662113	0.0	14.25	22.375	-50.5625	-0.8206353	0.91665065	2.0344439
1276888629955	-4.944186	-3.336985	7.205164	-0.45278358	0.0	15.6875	23.125	-49.5625	-0.7294488	0.8792914	2.1644986
1276888629989	-6.742072	-1.3756552	6.8237944	-0.11582279	0.0	17.9375	23.125	-48.25	-0.7971531	0.78122514	1.7720739
1276888630025	-9.043911	0.23154591	7.273266	1.8013792	0.0	20.8125	22.375	-47.25	-0.7588965	0.67714685	1.5451995
1276888630055	-8.308413	1.7978859	5.8567495	0.51631546	0.0	23.75	21.625	-45.5	-0.77155703	0.60328597	1.3576887
1276888630098	-5.09401	-1.525479	6.510526	-1.4005232	0.0	26.0	21.125	-44.4375	-1.2584774	0.8859207	1.8617624
1276888630141	-7.014479	-2.7240696	5.6660647	-0.3871088	0.0	27.6875	21.375	-43.1875	-0.6049568	0.64540535	1.9412191
1276888630176	-8.158588	-3.0237172	4.2086873	-0.1413269	0.0	29.375	21.125	-41.125	-0.41429335	0.45052916	1.9257195
1276888630215	-8.962189	-3.173541	3.1463003	0.20790863	0.0	30.875	19.8125	-40.125	-0.30196342	0.31958506	1.911122
1276888630251	-7.9270425	-6.3607025	5.8567495	1.9235697	0.0	31.625	18.0625	-40.625	0.3195426	0.522776	2.2470024
1276888630285	-9.534244	-7.164303	5.597963	3.3678036	0.0	32.3125	15.0	-41.125	0.3195475	0.43886292	2.2152112
1276888630315	-4.1814466	8.430995	-1.4165162	-0.28968143	0.0	32.3125	11.4375	-42.125	-0.67784345	-0.14939623	0.46041137
1276888630345	-7.5456724	0.3405087	5.9793324	-0.17308712	0.0	32.3125	8.625	-42.4375	-0.6417406	0.6696061	1.5257006
1276888630386	-10.310603	2.7240696	5.407278	2.1502619	0.0	32.8125	6.0625	-41.875	-0.54108936	0.4692644	1.3124975
1276888630425	-8.853226	3.636633	5.09401	1.0355654	0.0	33.0625	4.8125	-41.625	-0.6320496	0.4890994	1.1810408
1276888630465	-8.117727	1.7570249	5.2165933	0.0013809204	0.0	32.5625	5.5625	-41.625	-0.57670367	0.5608068	1.3576413
1276888630505	-7.6546354	-0.6946377	7.273266	0.77523804	0.0	31.875	6.3125	-42.9375	-0.36265695	0.75780886	1.6612958
1276888630545	-8.962189	2.4108016	5.407278	0.9344597	0.0	30.625	6.3125	-44.1875	-0.527535	0.5275511	1.3080196
1276888630585	-8.662541	4.140586	4.671779	0.87087727	0.0	28.4375	5.8125	-46.0	-0.51089984	0.4528542	1.1249133
1276888630615	-6.2789803	1.920469	5.2165933	-1.4205523	0.0	24.5	5.0625	-48.25	-0.46179017	0.6713614	1.273975
1276888630645	-5.202973	0.50395286	7.7772183	-0.43595028	0.0	18.875	3.75	-51.0625	-0.3983675	0.97901917	1.4742389
1276888630675	-3.7864566	0.61291564	11.454713	2.2732248	0.0	11.8125	2.5	-53.375	-0.6071354	1.2476709	1.4103178
1276888630715	-2.7921712	3.2961242	12.871228	3.7701378	0.0	4.4375	0.9375	-55.4375	-0.2505493	1.246992	0.7028124
1276888630755	-2.7921712	5.09401	6.4424243	-1.1319752	0.0	-1.375	-1.3125	-57.1875	0.048380665	0.8370493	0.50140506
1276888630795	1.920469	3.8681788	11.836082	2.7927094	0.0	-7.5	-4.375	-56.9375	0.35938022	1.2209325	-0.46082675
1276888630835	1.334794	4.2904096	10.269742	1.4030285	0.0	-12.625	-6.6875	-55.6875	0.65767723	1.1583664	-0.30161902
1276888630877	1.334794	2.9556155	8.894087	-0.3397541	0.0	-16.3125	-9.25	-54.375	1.1922101	1.2211485	-0.42419437
1276888630915	-0.46309182	1.56634	11.34575	1.6560688	0.0	-18.5	-12.8125	-52.625	1.5460534	1.4278162	0.2874632
1276888630955	-1.9885708	1.2258313	11.264028	1.6970615	0.0	-18.25	-15.625	-50.8125	0.9177506	1.366306	1.0183774
1276888630995	-2.9147544	1.9477097	9.084772	-0.06896782	0.0	-17.8125	-19.1875	-49.8125	0.8700935	1.2025224	0.9817161
1276888631035	-1.1168685	1.2258313	9.847511	0.17951775	0.0	-18.0625	-22.5	-48.5625	1.443117	1.4039605	0.73892003
1276888631075	-0.46309182	2.6423476	10.337844	0.8735876	0.0	-18.75	-25.0625	-46.0	1.9546928	1.316901	0.17349571
1276888631115	-0.61291564	4.7535014	9.275456	0.6339216	0.0	-18.75	-27.875	-43.6875	1.6775857	1.093859	0.1282323
1276888631145	-1.1441092	5.597963	12.912089	4.3131313	0.0	-18.5	-30.1875	-41.125	1.8533564	1.1541914	0.2016031
1276888631175	-1.879608	6.973618	14.015338	5.9602127	0.0	-18.25	-31.6875	-39.0625	1.764758	1.0949622	0.2632749
1276888631215	-3.486809	8.580819	12.299174	5.5900373	0.0	-17.8125	-32.1875	-39.625	1.3852048	0.9253303	0.3859678
1276888631255	-2.5333846	6.66035	12.789507	4.8340397	0.0	-16.3125	-31.4375	-40.875	1.5975711	1.0624673	0.36346862
1276888631295	-3.3642259	6.932757	15.431854	7.442213	0.0	-12.4375	-30.1875	-42.6875	1.5859472	1.1076677	0.45179045
1276888631335	-4.7126403	4.7126403	13.021052	4.820918	0.0	-3.625	-26.625	-44.4375	1.3073351	1.0977225	0.7853982
1276888631375	-1.1168685	2.5606253	8.62168	-0.7436724	0.0	7.625	-20.75	-44.9375	2.9606354	1.2574508	0.41129375
1276888631415	-0.29964766	0.84446156	12.830367	3.0549679	0.0	17.9375	-12.8125	-44.1875	-2.4405308	1.5010707	0.34097895
1276888631455	-0.23154591	-2.3426998	12.9529505	3.3584852	0.0	26.25	-2.875	-41.875	1.2848777	1.3910148	3.0430753
1276888631495	-2.5333846	-1.4982382	5.6252036	-3.4579754	0.0	30.625	5.5625	-38.8125	2.2005613	1.0887406	2.1048667
1276888631535	-6.66035	0.6946377	-0.53119355	-3.08914	0.0	33.8125	10.875	-34.0	-0.3743041	-0.0791586	1.4668776
1276888631575	-4.862464	1.7570249	-5.134871	-2.5198407	0.0	37.6875	13.9375	-27.125	-0.56494844	-0.7819724	1.224051
1276888631615	-2.9556155	0.5720546	-7.8180795	-1.4289846	0.0	41.625	14.25	-20.5	-0.4712831	-1.203231	1.3796118
1276888631645	-1.6889231	-0.46309182	-8.158588	-1.4622221	0.0	44.5625	13.6875	-15.125	-0.02905816	-1.3593525	1.8384126
1276888631675	-1.8387469	0.3405087	-9.275456	-0.34456635	0.0	45.75	13.4375	-12.0625	-0.45456594	-1.3718547	1.3876855
1276888631715	-0.42223078	1.3075534	-9.493382	-0.21434689	0.0	45.3125	12.9375	-12.8125	-1.4980658	-1.4270581	0.31234643
1276888631755	2.3699405	0.6946377	-4.7126403	-4.4861126	0.0	44.8125	11.9375	-17.6875	-3.1066382	-1.088097	-1.2856786
1276888631795	5.8567495	2.2201166	0.88532263	-3.4809704	0.0	42.875	9.625	-24.0625	-0.20427936	0.1404179	-1.2084625
1276888631835	14.750836	1.8387469	17.474907	13.135464	0.0	37.6875	7.0625	-32.6875	0.046586923	0.8659261	-1.4467822
1276888631875	16.317177	-1.6889231	19.463476	15.64781	0.0	29.875	4.0	-41.625	0.14232054	0.8704812	-1.6739349
1276888631915	3.405087	-0.5720546	19.463476	9.960716	0.0	21.8125	1.75	-48.0	0.1803888	1.3952239	-1.737242
1276888631945	-0.42223078	-0.5720546	18.237646	8.444849	0.0	16.4375	1.1875	-51.3125	2.1786127	1.5318322	2.5057542
1276888631985	0.46309182	-0.6946377	10.651112	0.87712955	0.0	15.25	1.4375	-51.875	0.87361026	1.4925752	-2.55359
1276888632025	0.10896278	-1.3075534	4.9850473	-4.6518207	0.0	16.6875	2.75	-51.5625	0.95952713	1.3134292	-3.0584514
1276888632066	0.040861044	0.3405087	9.466142	-0.33429813	0.0	17.9375	3.75	-50.8125	-1.1535609	1.5345825	-0.119428925
1276888632105	0.88532263	2.1792557	15.241169	5.6149645	0.0	17.6875	3.75	-51.0625	-0.6993958	1.4176705	-0.38588268
1276888632145	1.1441092	1.3756552	13.211738	3.5256948	0.0	16.9375	3.5	-51.875	-0.48709068	1.4361868	-0.6937636
1276888632185	0.313268	0.7627395	9.234595	-0.53531456	0.0	15.9375	2.5	-51.875	-0.816978	1.4817415	-0.3897086
1276888632225	-0.95342433	1.2258313	9.534244	-0.14675999	0.0	15.25	2.25	-52.375	-1.501445	1.4093322	0.66104317
1276888632273	-0.29964766	0.6946377	10.269742	0.49091816	0.0	15.25	3.0	-52.625	-1.5320281	1.4972646	0.40725586
1276888632305	1.3756552	0.27240697	12.721405	2.9918175	0.0	15.0	3.0	-52.625	0.001389393	1.4610027	-1.3753055
1276888632345	1.4982382	0.19068487	10.760075	1.0589046	0.0	15.4375	4.25	-52.625	0.09819608	1.4313438	-1.4442042
1276888632375	-1.920469	0.14982383	7.082581	-2.4667864	0.0	16.1875	5.8125	-51.875	-1.7833374	1.3052422	1.4929398
1276888632405	0.14982383	0.14982383	3.2961242	-6.5037227	0.0	17.1875	6.3125	-51.0625	-0.3694496	1.506601	-0.7853982
1276888632445	1.4982382	-0.08172209	15.023244	5.291339	0.0	17.9375	6.5625	-50.5625	0.3230519	1.4712495	-1.6252878
1276888632475	-2.4925237	-0.6537767	12.571581	3.0263052	0.0	18.125	6.0625	-50.5625	-2.9942772	1.3686234	1.827313
1276888632515	-1.6889231	-1.2258313	9.697687	0.11303997	0.0	19.125	5.8125	-50.8125	2.4432971	1.3588341	2.198633
1276888632555	-1.1441092	-0.7627395	8.62168	-1.0760069	0.0	19.375	6.8125	-50.5625	2.7316668	1.4126407	2.158799
1276888632595	-0.50395286	-1.7978859	8.580819	-1.025032	0.0	19.375	9.125	-50.3125	1.753838	1.3565371	2.868303
1276888632625	-0.23154591	-2.2609777	9.425281	-0.11121082	0.0	19.375	10.375	-49.5625	1.5891209	1.3341748	3.0395389
1276888632665	-1.2258313	-2.4516625	10.419566	0.9674244	0.0	18.375	10.625	-49.5625	1.9405682	1.3135577	2.6779451
1276888632705	-1.7297841	-1.3756552	10.119919	0.5517931	0.0	17.6875	10.125	-49.8125	2.8131993	1.3557801	2.24265
1276888632745	1.1441092	-1.4165162	6.5922484	-2.9675531	0.0	15.9375	8.375	-50.8125	0.8073779	1.3013043	-2.462179
1276888632785	2.7240696	-4.372132	9.507003	1.0062675	0.0	13.75	5.0625	-52.125	0.48165223	1.074236	-2.5843947
1276888632825	-1.1849703	0.84446156	5.284695	-4.3252935	0.0	11.0625	0.1875	-52.625	-0.8840378	1.3021148	0.951635
1276888632865	1.4165162	0.7627395	8.281172	-1.3706503	0.0	7.375	-5.9375	-53.375	-0.5640817	1.3789124	-1.076855
1276888632905	1.56634	3.3778462	7.164303	-1.7325859	0.0	3.75	-11.5625	-52.625	-0.46785027	1.0915073	-0.43419623
1276888632945	4.372132	1.3075534	6.3607025	-1.9782548	0.0	-1.1875	-15.375	-52.375	-0.50505185	0.9484566	-1.2801971
1276888632985	3.3778462	2.9556155	7.273266	-1.2599611	0.0	-6.3125	-16.875	-52.125	-0.5519028	1.0178939	-0.8519663
1276888633025	7.5456724	6.3607025	8.240311	3.0501938	0.0	-10.1875	-17.4375	-51.5625	-0.24224563	0.6957065	-0.8704034
1276888633065	7.668256	6.851035	9.575105	4.2440243	0.0	-12.875	-16.375	-51.0625	-0.154088	0.7497686	-0.841624
1276888633105	8.049625	3.6774938	8.812365	2.6824732	0.0	-11.4375	-13.0625	-51.5625	-0.2739518	0.78327394	-1.1422583
1276888633145	0.7218784	3.7864566	-1.6889231	-5.5982275	0.0	-6.3125	-8.5	-52.625	0.08835843	-0.41295725	-0.1883868
1276888633185	3.718355	5.6252036	2.9556155	-2.444263	0.0	-2.625	-4.375	-53.875	-0.004708401	0.4130973	-0.58408105
1276888633225	4.944186	6.0201936	17.011814	8.90403	0.0	1.5	-3.625	-55.1875	-0.16105723	1.141367	-0.68757474
1276888633265	2.1111538	7.3958488	12.026767	4.4691563	0.0	6.1875	-5.1875	-54.125	-0.27247605	1.0018294	-0.2780564
1276888633306	2.0294318	3.0237172	11.563675	2.3168821	0.0	8.875	-7.6875	-52.375	-0.6816687	1.2657086	-0.59111464
1276888633345	0.6537767	3.759216	11.223166	2.0474043	0.0	15.25	-10.5	-49.0625	-1.1042793	1.2430766	-0.17219082
1276888633385	-6.932757	2.5606253	4.399372	-1.2058134	0.0	21.8125	-11.8125	-45.1875	0.13332993	0.5369355	1.2169868
1276888633425	-4.944186	0.5720546	13.143636	4.247793	0.0	25.25	-13.8125	-42.6875	2.3080742	1.2088073	1.455606
1276888633465	5.7477865	4.671779	11.372991	3.7656555	0.0	26.6875	-17.125	-40.875	-0.77736163	0.99352634	-0.8883014
1276888633505	2.9147544	2.9556155	4.630918	-3.5875783	0.0	23.5625	-21.5	-40.375	-0.8523054	0.8399829	-0.77843773
1276888633545	3.718355	-4.440233	17.011814	8.163982	0.0	17.1875	-26.875	-40.625	-0.09444451	1.2426621	-2.4444454
1276888633585	19.57244	-10.882658	19.463476	19.863867	0.0	10.3125	-28.125	-42.125	-0.39702424	0.7154897	-2.0782492
1276888633625	18.0061	-2.1792557	19.463476	16.79778	0.0	2.0	-28.125	-44.1875	-0.6825945	0.820648	-1.6912392
1276888633655	8.894087	9.275456	19.463476	13.516424	0.0	-5.5625	-22.25	-47.5	-0.8724583	0.98725355	-0.76441175
1276888633685	2.4108016	11.836082	18.727978	12.478815	0.0	-12.4375	-11.8125	-50.8125	0.5585826	0.99796057	-0.20093381
1276888633725	-2.1792557	11.604536	13.715691	8.2912655	0.0	-19.0	-1.0625	-50.8125	0.4942572	0.8600271	0.18563141
1276888633765	-3.8681788	8.158588	7.9270425	2.2084808	0.0	-23.875	11.1875	-47.75	0.32806534	0.7204926	0.44273302
1276888633805	-4.0588636	5.434519	-0.50395286	-3.0050077	0.0	-27.3125	21.375	-42.4375	0.22437023	-0.07416077	0.6414931
1276888633845	-2.4925237	3.173541	-4.5628166	-3.7153997	0.0	-29.75	29.25	-36.5625	2.4749775	-0.84666806	0.66577965
1276888633885	-1.8387469	1.7978859	-4.630918	-4.509596	0.0	-30.75	33.875	-33.0	-3.0281723	-1.0638764	0.79663366
1276888633925	-8.499097	4.372132	-0.8036005	-0.21519756	0.0	-30.0	35.875	-31.6875	-0.57637894	-0.08388131	1.0956769
1276888633955	-5.597963	5.053149	-3.636633	-1.4342785	0.0	-29.75	35.875	-31.9375	-0.6540843	-0.44932887	0.83650446
1276888633995	-1.4982382	2.152015	-0.9125633	-7.030203	0.0	-29.0625	33.875	-34.25	0.24807161	-0.33490583	0.6081728
1276888634035	0.6537767	1.0351465	1.6480621	-7.7535887	0.0	-29.5	30.8125	-36.8125	0.940201	0.93186575	-0.5633162
1276888634075	4.0588636	-1.0351465	10.56939	1.5625153	0.0	-29.25	25.9375	-41.125	2.3348446	1.1934726	-1.8205068
1276888634115	7.9679036	-7.5865335	18.918663	12.078478	0.0	-26.125	19.0625	-46.25	-2.3860428	1.0440611	-2.331681
1276888634145	9.193735	-12.721405	19.463476	15.197065	0.0	-21.9375	11.9375	-50.3125	-0.65484196	0.8921503	-2.515795
1276888634188	8.008764	-12.9529505	19.463476	14.90663	0.0	-16.8125	5.5625	-53.125	-0.47630054	0.90685815	-2.5878284
1276888634227	0.5720546	-7.082581	16.467001	8.128017	0.0	-11.6875	0.1875	-54.375	-0.51604605	1.1634262	-3.0609984
1276888634265	-2.3426998	-4.5628166	10.923519	2.2611094	0.0	-8.0	-2.375	-54.125	-0.21054812	1.1318079	2.6672566
1276888634305	0.040861044	-6.2108784	9.847511	1.8359509	0.0	-5.3125	-3.625	-53.375	-0.16775578	1.008095	-3.1350138
1276888634349	0.50395286	-5.7886477	10.760075	2.4220705	0.0	-2.875	-4.125	-53.375	-0.11157098	1.0756558	-3.0547528
1276888634385	-0.5720546	-3.9771416	9.152874	0.18934917	0.0	-1.875	-3.875	-53.375	-0.051684905	1.1571313	2.9987369
1276888634425	-1.2666923	-2.7513103	7.9270425	-1.3206482	0.0	-1.875	-3.625	-53.875	-0.008124664	1.2058183	2.710127
1276888634466	0.23154591	-1.4573772	7.9679036	-1.7032528	0.0	-1.375	-3.125	-54.9375	-0.14311211	1.3876712	-2.984031
1276888634505	-0.88532263	-0.50395286	5.8567495	-3.8619652	0.0	-0.1875	-2.875	-55.4375	0.21415323	1.3985821	2.088284
1276888634545	-5.09401	0.92618364	5.243834	-2.437488	0.0	2.75	-2.625	-54.9375	0.057470106	0.79176104	1.3909428
1276888634585	-2.3018389	-0.23154591	7.082581	-2.3558092	0.0	6.4375	-3.375	-53.625	0.35241526	1.2550818	1.6710508
1276888634615	-1.7978859	-0.19068487	9.234595	-0.3967352	0.0	10.5625	-4.375	-52.375	1.5327544	1.3774599	1.6764619
1276888634655	-2.8738933	0.61291564	7.43671	-1.8104272	0.0	15.25	-6.1875	-50.3125	0.6985605	1.1944884	1.3606741
1276888634695	-4.140586	2.4108016	0.61291564	-4.9763207	0.0	18.875	-8.75	-48.25	-0.042765837	0.12723199	1.0435404
1276888634735	-5.6660647	6.238119	2.7649305	-0.93741894	0.0	20.8125	-12.5625	-45.75	-0.18989368	0.31702805	0.7373802
1276888634775	-4.099725	7.668256	5.6252036	0.54964256	0.0	21.8125	-18.4375	-41.875	-0.47026667	0.5742053	0.49097088
1276888634805	-6.2789803	8.730643	4.440233	1.8280134	0.0	21.5625	-24.8125	-36.8125	-0.13925134	0.3915681	0.62348855
1276888634845	-10.337844	9.275456	6.238119	5.4189615	0.0	19.875	-31.1875	-30.9375	0.6302172	0.42213857	0.839512
1276888634885	-17.461287	8.962189	14.709975	14.7209	0.0	19.625	-36.5625	-24.3125	1.6144305	0.6431671	1.0965967
1276888634915	-15.854085	5.938472	4.944186	7.8303127	0.0	20.625	-38.8125	-17.4375	1.3184147	0.28413883	1.2124023
1276888634955	-13.143636	0.27240697	2.8738933	3.6502676	0.0	21.8125	-40.125	-12.3125	1.3913862	0.21522017	1.5500739
1276888634995	-10.7192135	0.88532263	1.5390993	1.0586233	0.0	24.5	-39.625	-8.5	1.4514548	0.14213112	1.4883913
1276888635025	-5.9793324	0.38136974	-1.2666923	-3.6827326	0.0	26.6875	-38.8125	-6.4375	1.2496972	-0.20834754	1.5071013
1276888635065	-6.510526	0.27240697	-1.6889231	-3.075111	0.0	28.4375	-38.5625	-4.625	1.2596029	-0.2536068	1.5289797
1276888635095	-9.466142	2.070293	-1.525479	0.00258255	0.0	29.125	-37.3125	-2.375	1.3117455	-0.15614839	1.3554815
1276888635135	-10.760075	3.568531	-2.4925237	1.8005161	0.0	29.875	-37.3125	-0.0625	1.2489763	-0.21642569	1.2505655
1276888635166	-9.888372	4.7126403	-2.4516625	1.4183016	0.0	30.125	-36.5625	2.5	1.2376935	-0.22018673	1.1260564
1276888635195	-9.888372	5.175732	-2.6423476	1.662879	0.0	30.375	-36.3125	4.0	1.2411937	-0.23246793	1.0885918
1276888635238	-12.026767	5.597963	-2.6832085	3.727747	0.0	30.625	-36.8125	5.0625	1.3955044	-0.19957323	1.1351616
1276888635311	-6.0882955	2.7649305	0.61291564	-3.0919018	0.0	29.875	-36.8125	6.0625	2.0086887	0.091406256	1.144506
1276888635350	-4.7943625	3.0645783	-0.88532263	-4.0480614	0.0	29.625	-37.0625	5.8125	1.4947972	-0.15435167	1.0020477
1276888635385	-5.6252036	2.8738933	-1.4573772	-3.3238945	0.0	28.9375	-37.5625	5.0625	1.343014	-0.22674629	1.0984701
1276888635415	-6.4015636	1.9477097	-2.9147544	-2.5080624	0.0	28.1875	-37.8125	3.75	1.1737916	-0.41081724	1.2754402
1276888635445	-4.372132	3.405087	-2.3699405	-3.7794805	0.0	27.9375	-38.0625	1.4375	0.66096205	-0.4041197	0.9091065
1276888635485	-5.6252036	6.3198414	-2.9147544	-0.8579569	0.0	27.6875	-38.3125	-0.3125	0.2977395	-0.3317715	0.7273108
1276888635525	-8.880466	8.240311	-3.214402	2.7272158	0.0	27.6875	-37.8125	-3.125	0.54002696	-0.25935516	0.8227713
1276888635565	-7.8861814	7.5865335	-0.29964766	1.1403646	0.0	27.6875	-37.8125	-6.6875	0.79203194	-0.027375964	0.80476195
1276888635605	-10.691973	10.147159	-1.1441092	4.9782104	0.0	26.9375	-37.8125	-10.75	0.55765104	-0.07746128	0.811536
1276888635645	-11.836082	12.53072	-0.95342433	7.456629	0.0	26.0	-37.8125	-15.125	0.38153785	-0.055256575	0.75689834
1276888635685	-7.7363577	9.507003	-0.3405087	2.4550905	0.0	23.3125	-38.3125	-18.4375	0.30079308	-0.027773583	0.68307114
1276888635725	-7.43671	7.014479	0.23154591	0.41886616	0.0	19.125	-38.8125	-21.75	0.6277048	0.022645868	0.81460756
1276888635765	-4.5628166	4.372132	0.5720546	-3.4614096	0.0	13.75	-39.0625	-24.8125	0.7184046	0.09027749	0.8067364
1276888635805	5.09401	7.0553403	-2.3018389	-0.8052492	0.0	7.875	-39.375	-28.125	-0.7110073	-0.2585925	-0.62534404
1276888635845	2.7240696	5.5571017	1.4165162	-3.4577565	0.0	3.25	-39.0625	-30.1875	-0.7424058	0.22500609	-0.45577377
1276888635875	0.50395286	4.903325	-1.1849703	-4.7370625	0.0	0.8125	-39.0625	-31.1875	-0.12131926	-0.23592345	-0.10241816
1276888635915	-1.56634	6.66035	1.1849703	-2.8627434	0.0	0.3125	-39.375	-31.1875	0.34578055	0.17148823	0.23097669
1276888635945	-3.0645783	10.038197	4.6036777	1.654191	0.0	2.875	-41.375	-28.125	0.77520627	0.4133589	0.2963045
1276888635985	-5.434519	11.536434	7.5456724	5.0109234	0.0	4.125	-41.875	-27.875	1.3075458	0.53429925	0.4402405
1276888636025	-5.597963	11.686258	8.662541	5.780057	0.0	4.8125	-41.625	-28.625	1.44119	0.5892825	0.44672397
1276888636065	-3.7864566	8.281172	6.4424243	1.3477163	0.0	6.9375	-41.25	-28.625	1.5676285	0.6157485	0.42885572
1276888636105	-4.630918	7.6273947	4.399372	0.14206982	0.0	8.1875	-39.75	-29.625	0.9539238	0.45805544	0.5456551
1276888636135	-3.5276701	9.724928	5.012288	1.6886415	0.0	9.4375	-38.6875	-30.4375	0.4031405	0.4511821	0.3479836
1276888636168	-2.9147544	9.425281	0.19068487	0.060875893	0.0	10.625	-38.1875	-29.9375	0.038777333	0.019325688	0.29991993
1276888636205	-1.3075534	4.1814466	-0.19068487	-5.421385	0.0	11.625	-37.9375	-29.9375	0.007186243	-0.0434968	0.30307034
1276888636245	-0.8036005	4.372132	1.5390993	-5.102382	0.0	12.8125	-37.9375	-29.375	-0.3703343	0.3333081	0.18177181
1276888636286	-8.308413	10.310603	-3.445948	3.8759232	0.0	15.8125	-38.8125	-27.25	0.31878436	-0.25459075	0.6782751
1276888636326	-7.8180795	10.991621	0.27240697	3.6845436	0.0	19.25	-37.8125	-26.1875	0.24112178	0.020192837	0.6182539
1276888636365	-3.9090397	8.580819	-1.1168685	-0.31147003	0.0	22.9375	-37.3125	-24.4375	-0.18193701	-0.11789773	0.42746428
1276888636395	-4.7535014	7.8861814	-2.2201166	-0.3347683	0.0	25.625	-37.3125	-22.375	-0.082810484	-0.2365913	0.5424489
1276888636425	-5.053149	7.164303	-0.14982383	-1.0382977	0.0	27.5	-38.125	-21.0625	-0.022779915	-0.017087715	0.6142897
1276888636455	-1.4573772	4.6036777	0.53119355	-4.9486704	0.0	27.75	-38.875	-19.5	-0.7959865	0.10956361	0.30658665
1276888636495	-2.3018389	4.0180025	0.9942854	-5.0704694	0.0	26.75	-39.9375	-18.25	-0.4076658	0.21150747	0.52024066
1276888636535	0.88532263	-0.61291564	2.6423476	-6.9533253	0.0	25.5625	-40.6875	-18.0	-0.37727067	1.1838326	-2.176341
1276888636575	-3.5957718	8.812365	-11.727119	5.296749	0.0	23.8125	-41.4375	-17.75	-0.13251074	-0.88902175	0.38741568
1276888636615	-7.164303	9.80665	-2.0294318	2.5066032	0.0	19.875	-43.9375	-15.75	0.40048048	-0.16557233	0.6309401
1276888636645	-5.597963	12.789507	3.214402	4.5195866	0.0	16.4375	-46.125	-12.625	1.19812	0.22629824	0.41257802
1276888636675	-2.9556155	16.08563	3.1463003	6.8481503	0.0	13.0	-48.375	-9.0625	-1.7017694	0.19005461	0.1817157
1276888636715	-3.568531	17.474907	2.1111538	8.15341	0.0	10.3125	-50.1875	-5.75	-2.944273	0.11781954	0.20143926
1276888636756	-4.630918	13.865514	1.0760075	4.851306	0.0	8.875	-50.9375	-4.1875	1.5160223	0.07347383	0.3223398
1276888636795	-4.7535014	12.176591	2.982856	3.6009064	0.0	8.375	-50.6875	-4.75	2.1230721	0.22435312	0.37218615
1276888636835	-6.1291566	9.384419	1.9885708	1.5770359	0.0	6.9375	-50.4375	-6.5	1.6459526	0.17558686	0.5785658
1276888636875	-4.9850473	7.164303	-0.7627395	-1.0453882	0.0	4.875	-49.9375	-9.25	1.082483	-0.08716853	0.6079134
1276888636905	-1.525479	11.032481	-4.5628166	2.2292137	0.0	3.6875	-49.1875	-13.8125	0.097777866	-0.38882536	0.13740037
1276888636935	-1.4573772	16.88923	-7.6273947	8.782251	0.0	2.4375	-48.0625	-17.4375	0.04776644	-0.4228047	0.0860771
1276888636965	-0.9942854	15.4046135	0.6537767	5.643856	0.0	1.6875	-46.3125	-20.5	0.07002145	0.042326894	0.06445525
1276888636996	-1.920469	12.14935	5.2165933	3.5540295	0.0	0.8125	-45.8125	-24.1875	0.9490516	0.4011135	0.15677458
1276888637035	-3.336985	11.34575	-0.7627395	2.0442266	0.0	-0.1875	-44.5	-25.9375	0.4185952	-0.064405955	0.28605142
1276888637065	-1.1849703	8.158588	-6.428804	0.6478338	0.0	-1.625	-43.25	-27.5	0.16204941	-0.66230065	0.1442335
1276888637095	-1.334794	6.238119	-5.053149	-1.6684608	0.0	-2.375	-42.75	-29.0	0.2288113	-0.6699134	0.2107951
1276888637125	-2.0294318	5.053149	-1.525479	-4.151564	0.0	-3.875	-41.9375	-29.5	0.4629817	-0.27313697	0.38189977
1276888637155	-0.3405087	3.5957718	-1.3756552	-5.9416857	0.0	-5.5625	-40.9375	-29.8125	0.2192088	-0.36390865	0.09441542
1276888637185	0.7218784	2.3699405	-2.1111538	-6.5517006	0.0	-7.0	-40.4375	-29.25	-0.10411888	-0.7057409	-0.29566953
1276888637225	1.6480621	2.4516625	-1.334794	-6.5649786	0.0	-9.0	-40.1875	-28.25	-0.3454453	-0.42438573	-0.5918389
1276888637255	1.334794	5.134871	2.5333846	-3.9273124	0.0	-9.5	-40.9375	-26.1875	-0.19722028	0.44548574	-0.25431836
1276888637285	1.7297841	8.430995	7.5865335	1.6663322	0.0	-9.5	-42.5	-24.1875	3.0699286	0.7224866	-0.20236139
1276888637315	-0.9942854	12.9529505	15.854085	10.690168	0.0	-9.9375	-43.5	-23.125	2.5154316	0.8843292	0.07661107
1276888637345	-6.3198414	16.126492	10.923519	10.6708355	0.0	-9.6875	-44.0	-22.625	1.6039084	0.56266284	0.37349713
1276888637375	-6.0882955	13.184497	6.510526	6.108288	0.0	-9.6875	-43.5	-23.9375	1.3053622	0.4214486	0.43260428
1276888637415	-2.1792557	9.00305	5.6660647	1.0519114	0.0	-10.4375	-42.75	-24.6875	1.5381254	0.5489669	0.2374895
1276888637455	3.1463003	6.66035	4.0180025	-1.4159527	0.0	-10.4375	-41.9375	-24.6875	-1.4094145	0.4993602	-0.44131884
1276888637485	-1.1168685	7.4639506	1.9885708	-2.0020127	0.0	-9.6875	-42.1875	-25.1875	0.84327537	0.25763413	0.14853299
1276888637525	3.636633	8.471856	-7.246025	1.919488	0.0	-8.0	-42.5	-25.4375	-0.20149167	-0.66611725	-0.40547374
1276888637565	0.19068487	11.836082	2.152015	2.2249908	0.0	-7.0	-43.0	-25.1875	0.35387197	0.17983067	-0.01610908
1276888637605	-4.5900574	12.871228	-9.888372	7.0609837	0.0	-5.0625	-43.75	-25.9375	0.4150243	-0.6264018	0.34255463
1276888637635	-2.9556155	12.639683	-5.053149	4.1228704	0.0	-3.875	-43.75	-25.6875	0.33803603	-0.37123382	0.22970879
1276888637665	-2.7513103	8.921328	5.053149	0.80909824	0.0	-4.5625	-43.75	-24.4375	1.4421971	0.49610645	0.2991425
1276888637705	-2.1383946	9.507003	-0.14982383	-0.060970306	0.0	-4.5625	-44.0	-23.125	0.5356665	-0.015373964	0.22124626
1276888637745	-2.5606253	8.430995	0.88532263	-0.9510155	0.0	-6.3125	-44.75	-20.625	0.8591427	0.10014009	0.29486215
1276888637785	-2.8738933	4.6036777	2.1792557	-3.9583797	0.0	-8.5	-45.8125	-17.3125	1.4675204	0.38184422	0.55806726
1276888637825	-1.607201	3.9499009	1.0760075	-5.408627	0.0	-9.25	-46.8125	-13.9375	1.4283763	0.247166	0.38643748
1276888637865	-1.0351465	6.510526	-0.040861044	-3.2142186	0.0	-9.0	-47.3125	-10.125	1.0031177	-0.0061982144	0.157676
1276888637895	-1.4165162	8.812365	-0.7627395	-0.84863377	0.0	-8.5	-47.5625	-6.5625	0.9917441	-0.085249245	0.15937856
1276888637925	-1.7978859	11.032481	-0.5720546	1.385994	0.0	-7.75	-47.8125	-4.0	1.1786993	-0.05113215	0.16154292
1276888637965	-1.4165162	13.0619135	0.8036005	3.3563995	0.0	-8.25	-48.3125	-1.75	1.6549504	0.06108771	0.108024135
1276888637995	-2.3426998	15.636159	-1.7297841	6.0983763	0.0	-9.25	-48.0625	-1.75	1.1769967	-0.108972624	0.14871956
1276888638025	-3.405087	14.206022	-0.46309182	4.809099	0.0	-9.9375	-47.5625	-2.5	1.38544	-0.031689744	0.23525487
1276888638065	-2.8738933	12.299174	5.5571017	3.9922743	0.0	-10.1875	-47.3125	-3.0	2.1942074	0.41448644	0.22954696
1276888638095	-3.759216	11.536434	4.7126403	3.209878	0.0	-10.4375	-46.5625	-5.3125	1.9571513	0.37046665	0.3150059
1276888638125	-4.399372	9.234595	-0.7627395	0.450737	0.0	-11.1875	-46.0625	-7.3125	1.2473496	-0.074428715	0.44459096
1276888638155	-4.0180025	11.686258	-4.399372	3.3107986	0.0	-11.9375	-45.25	-10.375	0.85038894	-0.34201196	0.3311612
1276888638195	-1.607201	16.317177	-6.0882955	7.683367	0.0	-12.625	-43.5	-14.5	0.53752667	-0.35554484	0.0981808
1276888638235	2.7921712	15.554437	-2.4108016	6.17924	0.0	-12.4375	-41.9375	-17.5625	0.19934325	-0.15138566	-0.17761792
1276888638265	2.4925237	9.847511	6.5513873	2.280816	0.0	-11.4375	-40.6875	-20.375	2.952728	0.5728133	-0.2479055
1276888638305	-1.879608	8.921328	-0.5720546	-0.67153835	0.0	-10.6875	-39.6875	-22.375	0.647935	-0.06266253	0.20765013
1276888638335	-1.9885708	6.742072	-5.9793324	-0.5783043	0.0	-10.6875	-39.1875	-23.9375	0.48359215	-0.7048651	0.2868169
1276888638375	-0.7627395	5.09401	-4.7126403	-2.8252687	0.0	-11.1875	-38.625	-25.1875	0.37017268	-0.741005	0.14862844
1276888638415	0.19068487	3.5957718	-2.9147544	-5.1739697	0.0	-12.4375	-38.375	-25.9375	0.22841017	-0.6804879	-0.052980673
1276888638455	1.6889231	2.4108016	-2.1111538	-6.1843033	0.0	-13.625	-38.625	-25.4375	-0.24685162	-0.6221872	-0.611105
1276888638495	1.879608	3.486809	1.334794	-5.6266456	0.0	-14.375	-39.1875	-23.9375	-0.5593149	0.32502067	-0.49440715
1276888638535	1.5390993	8.539958	11.264028	4.412282	0.0	-14.375	-40.1875	-22.125	2.80168	0.91438144	-0.1783092
1276888638575	0.6537767	15.894946	15.4046135	12.337849	0.0	-13.875	-40.9375	-20.375	2.4330413	0.76931137	-0.041107934
1276888638615	-0.88532263	14.560152	7.082581	6.408922	0.0	-12.625	-41.6875	-20.0625	1.5570682	0.45201218	0.060729723
1276888638655	2.5333846	7.5456724	3.990762	-0.90264034	0.0	-12.875	-41.6875	-20.375	-2.469338	0.46474883	-0.32391503
1276888638695	2.9147544	8.049625	5.284695	0.25417805	0.0	-12.875	-41.1875	-20.875	-2.767372	0.55303746	-0.34741178
1276888638735	-0.7627395	9.724928	2.3018389	0.21604729	0.0	-12.1875	-41.4375	-21.875	0.90767336	0.23173101	0.07827115
1276888638775	6.1291566	6.4424243	-7.246025	1.6640196	0.0	-11.4375	-40.9375	-21.875	-0.45562622	-0.68374455	-0.7604846
1276888638815	-2.4108016	9.956474	0.5720546	0.45349598	0.0	-9.25	-41.4375	-21.875	0.7600509	0.055783946	0.23756184
1276888638846	-3.7864566	12.340035	-11.141444	7.2446117	0.0	-7.25	-42.5	-21.375	0.43873847	-0.7120787	0.2977231
1276888638885	-4.2904096	13.293459	-6.0882955	5.4311647	0.0	-5.8125	-43.25	-19.8125	0.50676894	-0.4110278	0.31219178
1276888638925	-3.636633	9.765789	5.09401	1.7926893	0.0	-5.0625	-45.0	-16.75	1.7018758	0.45466772	0.35647607
1276888638955	-3.8681788	7.9679036	-0.5720546	-0.9309788	0.0	-4.8125	-46.8125	-12.6875	1.0192989	-0.06449669	0.45195627
1276888638985	-1.7570249	6.5922484	-0.14982383	-2.982625	0.0	-5.0625	-48.0625	-8.875	1.0518472	-0.021957109	0.26047376
1276888639015	0.23154591	6.3198414	1.4165162	-3.325869	0.0	-5.8125	-49.125	-4.5	2.5808501	0.22035067	-0.03662155
1276888639055	0.040861044	7.5456724	1.7978859	-2.0496378	0.0	-5.8125	-49.375	-2.0	2.6135051	0.23390254	-0.0054151095
1276888639085	-3.445948	8.240311	0.19068487	-0.87280273	0.0	-6.0625	-49.375	0.3125	1.6208626	0.021345714	0.3960814
1276888639115	-3.0645783	8.921328	-2.9556155	0.07856083	0.0	-6.5625	-49.125	2.875	1.1280308	-0.30363792	0.33088273
1276888639145	-1.1168685	8.499097	-2.9147544	-0.75248814	0.0	-7.0	-48.3125	5.1875	0.91345596	-0.32776126	0.13066158
1276888639193	-1.9477097	9.888372	2.6014864	0.6020584	0.0	-7.75	-47.5625	7.4375	2.4041886	0.25261173	0.19448012
1276888639225	-3.8273177	11.917805	-3.636633	3.2282085	0.0	-8.0	-47.0625	8.5	1.4061546	-0.2827452	0.31073928
1276888639265	-0.7218784	12.912089	-3.718355	3.6495495	0.0	-8.25	-47.5625	9.25	1.2103482	-0.2799736	0.055849034
1276888639295	0.10896278	13.715691	0.6537767	3.925045	0.0	-8.0	-48.0625	8.75	2.5372217	0.047628783	-0.007944222
1276888639325	-2.6423476	13.865514	1.4573772	4.3834314	0.0	-8.25	-49.625	7.6875	2.1937258	0.10288534	0.18831179
1276888639355	-6.0201936	11.264028	0.7218784	2.9856186	0.0	-8.5	-50.625	5.9375	1.8271967	0.056460828	0.49083555
1276888639385	-7.8589406	8.308413	2.3018389	1.8591604	0.0	-8.75	-50.875	3.125	1.7891951	0.19861826	0.7576041
1276888639415	-3.9499009	9.847511	-0.50395286	0.81545734	0.0	-8.75	-51.375	-0.4375	1.4776721	-0.04746159	0.38145992
1276888639455	-1.9885708	14.437569	-6.238119	6.04617	0.0	-8.25	-51.125	-4.5	0.5702016	-0.40443802	0.13687462
1276888639495	0.42223078	15.28203	-6.8237944	6.9350014	0.0	-7.75	-51.125	-9.125	0.21328719	-0.41981754	-0.027622206
1276888639535	-1.4982382	10.691973	6.1291566	2.608243	0.0	-7.25	-50.625	-13.6875	2.2865107	0.51633227	0.13922088
1276888639575	-2.1792557	8.771504	-2.1111538	-0.5251951	0.0	-7.25	-49.875	-17.8125	0.59841096	-0.22946787	0.24351667
1276888639615	-0.14982383	5.7886477	-4.140586	-2.6879888	0.0	-8.5	-48.3125	-21.375	0.21170697	-0.62075853	0.025876578
1276888639645	-0.42223078	4.7126403	-3.718355	-3.7888913	0.0	-10.1875	-46.3125	-23.6875	0.29755715	-0.6660651	0.08935679
1276888639678	-0.53119355	4.944186	-3.0237172	-3.9868555	0.0	-11.6875	-44.75	-25.4375	0.35529068	-0.54633284	0.10702746
1276888639715	2.3426998	5.175732	-0.23154591	-4.1206975	0.0	-13.875	-43.75	-26.4375	-0.18873781	-0.040733714	-0.4250402
1276888639755	1.5390993	6.66035	-0.7627395	-2.928361	0.0	-15.3125	-43.25	-26.75	0.16232459	-0.1111194	-0.22709756
1276888639795	2.7240696	7.273266	4.862464	-0.6434355	0.0	-15.3125	-43.5	-26.75	-2.668842	0.5593678	-0.35836014
1276888639835	-0.040861044	4.2904096	15.472715	6.2499447	0.0	-15.5625	-43.75	-26.1875	2.7135031	1.3002917	0.009523521
1276888639865	-0.88532263	13.184497	13.715691	9.238951	0.0	-15.3125	-43.75	-25.9375	2.179846	0.80401856	0.06704811
1276888639895	-0.3405087	11.372991	6.701211	3.3981628	0.0	-15.8125	-44.0	-25.1875	1.5927504	0.53226054	0.029931178
1276888639925	1.7978859	6.5513873	7.273266	0.14591026	0.0	-17.5625	-44.0	-24.6875	2.8487785	0.81948364	-0.2678346
1276888639955	4.0180025	7.164303	4.7535014	-0.31626797	0.0	-19.5	-44.5	-23.9375	-2.2047887	0.52461016	-0.5111249
1276888639995	2.4108016	11.114203	0.53119355	1.578412	0.0	-20.75	-44.75	-22.375	0.49264798	0.046674002	-0.21360274
1276888640035	6.0474343	8.539958	-6.66035	2.5974865	0.0	-20.25	-45.0	-23.375	-0.20443875	-0.56681263	-0.61616415
1276888640075	3.8273177	6.8237944	0.040861044	-1.9826994	0.0	-19.5	-45.25	-22.875	-0.2229536	0.0052225827	-0.5111567
1276888640115	-0.6537767	8.076866	-8.730643	2.1049957	0.0	-18.25	-45.0	-22.375	0.43452403	-0.82264864	0.08076826
1276888640145	-4.1814466	14.9006605	-11.727119	9.610855	0.0	-16.5625	-46.3125	-21.375	0.6037767	-0.64844245	0.273585
1276888640177	-5.706926	15.173067	-6.66035	7.71908	0.0	-15.5625	-47.8125	-18.3125	0.7780439	-0.3898316	0.3597541
1276888640215	-3.336985	9.302697	5.9793324	1.7444563	0.0	-13.375	-49.625	-15.75	1.8485197	0.5440921	0.34441453
1276888640255	-3.718355	7.8589406	2.3426998	-0.80235386	0.0	-11.1875	-51.6875	-12.6875	1.5292438	0.26320425	0.4419271
1276888640285	-3.336985	8.049625	-0.14982383	-1.0914688	0.0	-9.6875	-52.4375	-10.375	1.2043109	-0.01719198	0.39298758
1276888640315	-3.1054392	7.7772183	-0.29964766	-1.4269924	0.0	-8.0	-52.9375	-7.5625	1.2427577	-0.03576656	0.37990233
1276888640345	-2.8330324	8.008764	-0.8036005	-1.2736464	0.0	-7.5	-53.4375	-5.3125	1.1958045	-0.094315335	0.34000412
1276888640385	-2.7513103	8.308413	-1.1849703	-0.9746866	0.0	-7.0	-53.1875	-3.5	1.1683007	-0.13457422	0.31978205
1276888640425	0.46309182	8.812365	3.2961242	-0.38663673	0.0	-6.8125	-53.4375	-0.6875	2.9247756	0.35747132	-0.052501943
1276888640455	-2.5606253	9.575105	-0.7627395	0.13423538	0.0	-7.25	-53.4375	1.0625	1.4390341	-0.076803	0.26131052
1276888640495	-5.175732	12.299174	-3.0237172	3.8754826	0.0	-7.25	-53.1875	2.375	1.289359	-0.22283714	0.39832437
1276888640535	-3.7864566	12.680544	-1.9477097	3.5697098	0.0	-7.0	-53.4375	2.875	1.3768878	-0.14612785	0.29017523
1276888640575	-6.66035	11.686258	5.9793324	4.9134483	0.0	-6.3125	-53.6875	1.875	2.1146407	0.41829377	0.51801574
1276888640615	-6.6331096	12.53072	3.7864566	4.868305	0.0	-4.8125	-53.9375	0.0625	1.9508474	0.260974	0.4868493
1276888640645	-0.6537767	13.252599	-3.445948	3.9022293	0.0	-3.625	-54.1875	-3.25	0.36014023	-0.25409144	0.049292002
1276888640685	-0.53119355	16.08563	-7.43671	7.922827	0.0	-2.625	-53.9375	-7.5625	0.14848007	-0.43284437	0.033010866
1276888640725	0.08172209	15.704261	-2.9556155	6.1735296	0.0	-1.875	-53.6875	-13.1875	0.06959036	-0.18602616	-0.0052037695
1276888640765	-0.8036005	11.985906	3.636633	2.7445574	0.0	-1.375	-52.4375	-18.8125	1.0387163	0.293959	0.06694526
1276888640805	-3.3642259	7.246025	-6.4015636	0.43067932	0.0	-1.1875	-50.375	-23.125	0.44865024	-0.67553616	0.4346702
1276888640845	-8.117727	4.440233	-3.336985	0.029438972	0.0	-1.1875	-48.875	-27.25	0.91778356	-0.34612942	1.0702748
1276888640885	0.23154591	2.2201166	-4.8216033	-4.4934225	0.0	-2.375	-46.8125	-29.5	-0.045418277	-1.1372261	-0.10391878
1276888640915	3.5957718	2.3426998	-3.9499009	-3.9740238	0.0	-4.5625	-45.0	-31.3125	-0.6946483	-0.74396133	-0.9933567
1276888640945	2.7240696	3.718355	-2.5606253	-4.533746	0.0	-7.5	-45.0	-32.0625	-0.4058521	-0.50707173	-0.63227224
1276888640975	3.0645783	3.9090397	-1.1849703	-4.7001457	0.0	-9.9375	-45.25	-31.0625	-0.46658915	-0.23418587	-0.6648911
1276888641005	1.4573772	5.8976107	1.7570249	-3.4826565	0.0	-10.6875	-46.0625	-30.3125	-0.042198844	0.28153932	-0.24225979
1276888641045	0.88532263	13.824653	13.824653	9.764395	0.0	-10.6875	-47.8125	-28.25	2.6493666	0.784375	-0.06395209
1276888641085	-4.7943625	15.28203	14.519291	11.81131	0.0	-9.9375	-48.0625	-27.5	1.9102209	0.736408	0.30400094
1276888641115	-1.3075534	5.47538	6.973618	-0.84446144	0.0	-9.9375	-48.3125	-27.75	2.263607	0.89166003	0.23441567
1276888641145	1.2666923	6.1291566	4.5628166	-2.0613055	0.0	-10.6875	-48.3125	-28.0	3.0364163	0.62995005	-0.2037975
1276888641178	0.6537767	11.686258	2.1792557	2.0990305	0.0	-11.1875	-48.0625	-29.0	0.40834725	0.18408121	-0.0558858
1276888641215	-1.920469	12.489859	0.53119355	2.8411531	0.0	-11.1875	-48.875	-28.75	0.6043884	0.042011235	0.15256739
1276888641245	4.1814466	8.730643	-0.95342433	-0.07948971	0.0	-9.5	-49.125	-28.5	-0.3650137	-0.09817434	-0.4466574
1276888641275	5.706926	4.5628166	-4.5219555	-1.2138405	0.0	-7.5	-49.375	-28.25	-0.6636182	-0.554183	-0.8963465
1276888641315	-0.23154591	8.62168	-10.18802	3.5418606	0.0	-5.5625	-50.375	-27.25	0.12298207	-0.8683017	0.026849786
1276888641355	-6.510526	13.6748295	-9.956474	8.318451	0.0	-4.125	-51.6875	-24.9375	0.5182029	-0.5815498	0.4443419
1276888641395	-5.09401	10.61025	4.862464	2.9279451	0.0	-4.125	-53.1875	-22.375	1.4570936	0.39177665	0.44760346
1276888641435	-1.8387469	8.049625	-0.5720546	-1.5298929	0.0	-2.875	-55.75	-18.8125	0.5950929	-0.06917094	0.22457333
1276888641465	-3.2961242	7.8180795	-1.1168685	-1.2489519	0.0	-1.625	-57.0	-15.5	0.8181804	-0.13088374	0.39898968
1276888641495	-3.486809	7.3958488	-0.38136974	-1.6211843	0.0	-0.9375	-57.5	-13.4375	1.0129815	-0.04660796	0.44055188
1276888641525	-3.214402	6.5922484	-0.46309182	-2.4578695	0.0	0.0625	-58.3125	-10.875	1.0639715	-0.06305793	0.45368114
1276888641555	-3.486809	7.205164	-1.1168685	-1.7245951	0.0	0.0625	-57.75	-8.625	1.0109911	-0.1386348	0.45071074
1276888641595	-3.1463003	8.240311	-0.27240697	-0.981905	0.0	-0.4375	-58.0625	-6.0625	1.219965	-0.03087344	0.3647348
1276888641625	-1.7297841	8.921328	-0.14982383	-0.71793747	0.0	-0.4375	-58.5625	-4.0	1.1670477	-0.01648535	0.19151673
1276888641655	-0.88532263	9.534244	-0.23154591	-0.22859097	0.0	-0.1875	-58.8125	-1.75	1.0582736	-0.02417697	0.09259163
1276888641695	-4.8216033	10.61025	-0.08172209	1.8480463	0.0	-0.6875	-59.3125	-0.9375	1.5186224	-0.0070120017	0.4265308
1276888641735	-6.5922484	12.408136	-2.3018389	4.431258	0.0	-0.6875	-59.5625	-0.6875	1.261307	-0.16238241	0.48836073
1276888641775	-1.920469	11.304889	2.5606253	1.942627	0.0	-0.6875	-59.0625	-0.1875	2.4389725	0.21970217	0.16827306
1276888641815	-7.04172	10.61025	4.372132	3.6573305	0.0	-0.4375	-58.5625	-2.0	1.9715501	0.33072415	0.5859261
1276888641855	-5.9793324	12.571581	-0.84446156	4.1400404	0.0	0.3125	-57.75	-5.0625	1.2473961	-0.060586303	0.4439565
1276888641885	-2.4108016	15.636159	-5.706926	7.012102	0.0	1.3125	-56.0	-10.125	0.24972036	-0.3461931	0.1529766
1276888641915	-0.95342433	17.011814	-4.7943625	7.8935413	0.0	2.75	-54.4375	-16.5	0.009803891	-0.27429155	0.055986267
1276888641945	0.61291564	14.709975	-2.6423476	5.151326	0.0	3.5	-52.1875	-21.625	-0.18396533	-0.1775833	-0.04164258
1276888641985	0.7218784	11.141444	4.6036777	2.270052	0.0	4.1875	-49.875	-25.4375	-1.0102519	0.39109743	-0.064701736
1276888642025	-3.6774938	7.082581	-6.973618	0.7913809	0.0	4.1875	-47.8125	-28.75	0.34579596	-0.7181739	0.47891358
1276888642065	-7.5456724	4.5219555	-3.1463003	-0.46403503	0.0	3.0	-45.0	-31.5625	0.76792514	-0.343483	1.0309079
1276888642095	0.3405087	3.9499009	-4.862464	-3.5327978	0.0	0.5625	-42.75	-34.125	-0.07744609	-0.8867727	-0.085994296
1276888642125	2.6014864	3.759216	-4.5219555	-3.3764467	0.0	-3.125	-40.6875	-36.4375	-0.3857674	-0.77994	-0.6053562
1276888642155	1.7297841	3.173541	-2.9556155	-5.137691	0.0	-6.8125	-38.625	-36.4375	-0.23712014	-0.6854678	-0.49904594
1276888642185	1.6889231	2.6014864	-1.334794	-6.429985	0.0	-10.1875	-37.875	-36.1875	-0.24657688	-0.4063939	-0.57582295
1276888642215	0.6537767	3.486809	1.3075534	-6.0257826	0.0	-11.4375	-38.375	-34.625	0.21920547	0.35312772	-0.18534796
1276888642245	0.6946377	9.656827	10.038197	4.1397552	0.0	-11.6875	-39.1875	-32.3125	2.190045	0.80347013	-0.07180861
1276888642275	-1.920469	18.087822	18.38747	16.057545	0.0	-11.9375	-40.6875	-31.0625	1.9274083	0.7908108	0.10577841
1276888642305	-5.5162406	13.824653	13.824653	10.507654	0.0	-11.6875	-41.9375	-29.5	1.6443471	0.7484964	0.37965673
1276888642335	0.23154591	5.09401	6.973618	-1.1675587	0.0	-12.1875	-41.9375	-29.0	2.6019275	0.9394212	-0.04542328
1276888642405	0.50395286	14.9006605	0.08172209	5.1027536	0.0	-12.4375	-41.4375	-29.0	0.3660911	0.005481272	-0.033807952
1276888642437	-1.0351465	11.264028	-3.1054392	1.9233799	0.0	-10.4375	-41.1875	-29.25	0.34989718	-0.26793703	0.09164103
1276888642477	3.0237172	4.903325	-5.5571017	-1.802474	0.0	-8.25	-40.6875	-29.0	-0.2906448	-0.7674125	-0.55258435
1276888642515	-1.3756552	8.349273	-10.691973	3.8286371	0.0	-5.5625	-41.1875	-28.5	0.24446326	-0.9013089	0.16329636
1276888642555	-6.469665	14.982383	-9.534244	9.0938835	0.0	-3.125	-42.75	-26.1875	0.4428419	-0.5287369	0.4076315
1276888642585	-4.5900574	8.894087	5.053149	1.4052954	0.0	-2.875	-44.0	-23.125	1.4130887	0.46754187	0.47642845
1276888642616	-0.9942854	7.205164	3.759216	-1.6191788	0.0	-1.625	-46.0625	-19.8125	1.9605817	0.4770297	0.13713014
1276888642645	-1.607201	7.8589406	-0.50395286	-1.7692375	0.0	-0.9375	-47.3125	-17.0	0.48229688	-0.06274204	0.20172453
1276888642675	-1.7978859	7.5865335	0.14982383	-2.008552	0.0	-0.1875	-48.625	-15.5	0.6631021	0.01921405	0.23269115
1276888642715	-4.7126403	6.8237944	-1.525479	-1.3745546	0.0	1.0625	-49.375	-14.25	0.90221	-0.18191509	0.60440207
1276888642745	-7.3549876	7.3958488	-0.88532263	0.66131115	0.0	0.3125	-49.625	-13.1875	1.1363382	-0.084675655	0.78262806
1276888642785	-4.7943625	7.273266	-0.9942854	-1.0388165	0.0	-0.1875	-49.625	-11.6875	1.0352628	-0.11364596	0.58279884
1276888642825	1.2666923	9.343558	-1.0351465	-0.32097054	0.0	-0.4375	-49.875	-8.875	-0.4150407	-0.10934505	-0.13474701
1276888642865	-2.7921712	9.997335	3.214402	1.059597	0.0	-0.4375	-49.875	-6.3125	2.1028109	0.30030885	0.27235165
1276888642895	-7.9270425	12.14935	-4.1814466	5.290674	0.0	0.3125	-50.125	-4.5	1.0379721	-0.28063524	0.57810706
1276888642925	-4.0180025	12.762266	-4.099725	4.187189	0.0	0.8125	-50.625	-3.5	0.68765885	-0.2973279	0.30501032
1276888642955	-5.243834	13.33432	1.1168685	4.565172	0.0	0.8125	-50.375	-4.25	1.5385184	0.07779081	0.3746812
1276888642995	-9.997335	11.223166	5.9793324	6.369215	0.0	1.0625	-50.875	-5.0625	1.8535086	0.37862724	0.72769594
1276888643025	-3.636633	9.656827	2.2609777	0.7570343	0.0	1.5	-50.875	-7.3125	1.7597545	0.21570185	0.36016107
1276888643065	-1.4165162	14.519291	-0.08172209	4.781805	0.0	2.0	-50.875	-10.125	0.27609986	-0.005601862	0.097253196
1276888643105	-1.1441092	17.120777	-7.273266	8.8301525	0.0	3.5	-49.125	-14.25	-0.0067005632	-0.40091786	0.066726565
1276888643145	-0.38136974	14.1787815	-2.3426998	4.5694246	0.0	4.0	-47.0625	-19.8125	-0.100032136	-0.16368823	0.026890732
1276888643175	-4.140586	10.378705	4.5219555	2.2478123	0.0	4.4375	-45.0	-23.9375	1.1318533	0.38453385	0.37960103
1276888643215	-4.140586	8.662541	-3.445948	0.39426327	0.0	4.6875	-42.1875	-27.75	0.33854967	-0.3445868	0.445883
1276888643245	-4.9850473	7.164303	-5.5162406	0.5184088	0.0	4.6875	-40.4375	-30.5625	0.4041995	-0.56362915	0.60791343
1276888643275	-3.445948	4.2495484	-3.7864566	-3.1530442	0.0	3.75	-38.875	-31.8125	0.44975343	-0.6053907	0.68135047
1276888643305	1.4573772	2.0294318	-2.6832085	-6.1402965	0.0	2.0	-37.125	-33.625	-0.4854256	-0.8210278	-0.6227843
1276888643345	4.399372	0.5720546	-1.920469	-4.9724054	0.0	0.0625	-36.125	-34.375	-0.8209232	-0.40853304	-1.4414909
1276888643385	1.334794	1.607201	-1.9885708	-6.922351	0.0	-2.875	-36.375	-34.375	-0.43327105	-0.7607249	-0.6930688
1276888643415	-0.50395286	3.2961242	-0.6537767	-6.4087353	0.0	-4.3125	-36.625	-34.125	0.23834811	-0.1936126	0.15171765
1276888643455	-1.4573772	6.0201936	5.053149	-1.8128405	0.0	-5.3125	-38.375	-32.0625	1.4268616	0.68430257	0.23751213
1276888643495	-3.173541	16.317177	14.601013	12.318249	0.0	-5.3125	-40.4375	-30.0625	1.7942456	0.7207333	0.1920927
1276888643535	-4.862464	11.114203	10.378705	6.158518	0.0	-5.3125	-41.1875	-28.75	1.6315444	0.70769536	0.4124104
1276888643575	-1.7570249	5.5162406	5.9793324	-1.483882	0.0	-5.0625	-41.6875	-27.5	2.0143952	0.8015437	0.30835852
1276888643615	2.3018389	14.206022	4.0180025	5.1350327	0.0	-4.8125	-41.4375	-27.5	-0.122240126	0.27226356	-0.16063651
1276888643645	-6.8237944	18.34661	8.281172	11.447527	0.0	-4.5625	-41.4375	-28.0	1.0287426	0.40022504	0.35608318
1276888643675	0.46309182	6.3607025	-4.7943625	-1.8279972	0.0	-3.375	-41.9375	-28.0	0.0067324084	-0.644625	-0.07267691
1276888643705	7.5456724	2.1111538	-5.7886477	-0.06485462	0.0	-1.375	-42.1875	-28.0	-0.9293783	-0.63627994	-1.2979885
1276888643745	5.175732	7.3141265	-3.255263	-0.27347755	0.0	0.8125	-43.0	-26.75	-0.6038734	-0.3484772	-0.6158318
1276888643785	-2.9147544	13.756551	-12.5579605	9.04649	0.0	2.25	-43.5	-24.6875	0.14379595	-0.7289594	0.20879324
1276888643825	-6.2108784	12.367276	-5.175732	4.9687595	0.0	3.0	-44.25	-21.875	0.45838755	-0.3578846	0.46540812
1276888643865	-4.903325	8.390134	5.8976107	1.560792	0.0	3.0	-46.0625	-18.3125	1.8429351	0.5454654	0.52888155
1276888643895	-4.2086873	7.246025	-2.5606253	-1.0445309	0.0	3.25	-47.3125	-15.5	0.655373	-0.2965663	0.52620244
1276888643925	-5.243834	7.6273947	-1.2666923	-0.46430302	0.0	3.0	-48.3125	-13.4375	0.92044145	-0.13600498	0.6022874
1276888643955	-4.7943625	7.3549876	0.61291564	-1.00566	0.0	3.0	-49.375	-11.6875	1.230223	0.06969809	0.577676
1276888643985	-4.0588636	7.9679036	-0.84446156	-0.82472515	0.0	3.25	-49.875	-9.625	0.95737016	-0.09415695	0.47114062
1276888644025	-3.9499009	8.349273	-1.6480621	-0.4243164	0.0	2.5	-49.875	-7.3125	0.8944301	-0.17657198	0.44188327
1276888644055	-4.2495484	8.008764	-1.0351465	-0.68138313	0.0	3.0	-50.125	-4.25	1.1469498	-0.1136821	0.48783642
1276888644085	-2.5333846	7.1234417	1.6480621	-2.0685902	0.0	3.0	-50.375	-1.75	2.1206355	0.21462527	0.3416909
1276888644125	-2.4516625	7.43671	1.3756552	-1.8563213	0.0	3.0	-50.375	0.0625	2.1527183	0.17390649	0.31845024
1276888644155	-2.6014864	10.651112	-2.3018389	1.3965797	0.0	2.75	-51.125	1.0625	0.79395354	-0.20693584	0.2395554
1276888644185	-2.8738933	11.917805	-3.6774938	2.992463	0.0	2.25	-51.375	1.0625	0.63120747	-0.29143196	0.2366253
1276888644215	-3.214402	11.604536	-0.84446156	2.2644205	0.0	2.75	-51.125	1.625	1.4017358	-0.07001466	0.27022028
1276888644245	-4.2086873	9.80665	10.038197	4.844249	0.0	2.5	-50.875	1.0625	2.6537323	0.7548222	0.40539455
1276888644275	-6.3198414	9.084772	6.510526	3.0331488	0.0	3.25	-50.625	-0.6875	2.255386	0.5317683	0.607802
1276888644305	-8.19945	12.489859	-3.1463003	5.4618387	0.0	3.75	-50.875	-3.75	1.0922585	-0.20755188	0.5809231
1276888644335	-7.7772183	19.109348	-7.6954966	12.213182	0.0	4.1875	-50.625	-7.875	0.55879873	-0.3570163	0.38651338
1276888644365	-1.6480621	18.959524	-5.09401	9.894329	0.0	5.1875	-50.375	-12.9375	-0.031470638	-0.26153776	0.08670734
1276888644395	1.2258313	17.2025	-1.0760075	7.4730034	0.0	6.1875	-49.125	-16.5	-0.460262	-0.062310517	-0.07113866
1276888644435	0.5720546	14.601013	0.61291564	4.8184137	0.0	7.875	-47.0625	-19.8125	-0.49857008	0.041920856	-0.03915908
1276888644475	-1.9885708	10.991621	-4.372132	2.1885853	0.0	8.875	-45.5625	-22.875	-0.016269922	-0.373084	0.17898099
1276888644505	-5.6252036	5.47538	-4.9850473	-0.5075426	0.0	8.875	-44.25	-25.4375	0.552077	-0.5657843	0.7988943
1276888644545	-1.4573772	2.152015	-3.486809	-5.457748	0.0	8.125	-42.5	-28.75	0.33552116	-0.930247	0.5952699
1276888644585	3.5276701	2.3699405	-3.5957718	-4.2397256	0.0	6.1875	-41.4375	-31.5625	-0.81453085	-0.702224	-0.9792382
1276888644625	2.7240696	1.334794	-3.336985	-5.2969165	0.0	3.75	-40.6875	-33.875	-0.85006535	-0.8329986	-1.1151807
1276888644665	1.0760075	1.4982382	-1.9477097	-7.124099	0.0	2.0	-40.4375	-34.125	-0.49715623	-0.81258345	-0.6228246
1276888644705	-1.2258313	6.8237944	3.486809	-2.0461946	0.0	1.0625	-41.9375	-32.3125	0.5565651	0.4659869	0.1777449
1276888644745	-5.9793324	18.087822	16.589584	15.454704	0.0	0.3125	-43.0	-30.3125	1.8661859	0.71645844	0.31926352
1276888644785	-5.175732	8.894087	9.888372	4.4647503	0.0	0.3125	-43.75	-29.0	1.8142537	0.76547605	0.5270264
1276888644825	-1.1849703	4.7126403	4.1814466	-3.3959074	0.0	0.0625	-43.75	-29.0	2.0640595	0.71055716	0.2463383
1276888644865	-0.5720546	17.270601	7.014479	8.84285	0.0	-0.4375	-43.5	-30.0625	0.16170551	0.38560694	0.033110924
1276888644895	-4.5628166	11.645397	-0.9942854	2.7401886	0.0	0.3125	-43.25	-30.8125	0.42835593	-0.079329066	0.37342864
1276888644925	5.325556	3.0237172	-9.152874	1.206047	0.0	1.75	-42.5	-31.3125	-0.8446241	-0.981119	-1.0544088
1276888644955	6.5513873	5.938472	-2.9147544	-0.4963379	0.0	3.5	-43.0	-31.0625	-0.73650455	-0.31842098	-0.8344319
1276888644986	2.7921712	9.915613	-9.888372	4.4725485	0.0	5.4375	-43.0	-30.0625	-0.3298639	-0.76495135	-0.27448568
1276888645025	-1.9477097	13.0619135	-12.026767	8.055328	0.0	6.1875	-43.75	-28.25	0.006567197	-0.7386855	0.148023
1276888645065	-6.428804	11.75436	-4.372132	4.2862577	0.0	5.6875	-45.8125	-25.1875	0.42788026	-0.31544158	0.50048256
1276888645105	-4.440233	7.8180795	7.504812	1.9048929	0.0	5.1875	-47.5625	-21.375	2.124565	0.69554603	0.51651555
1276888645135	-5.243834	7.6273947	-0.46309182	-0.5389967	0.0	5.4375	-49.125	-17.8125	0.86333966	-0.049989432	0.60228735
1276888645165	-5.8567495	7.3958488	1.6480621	-0.2297926	0.0	5.9375	-50.625	-14.25	1.3300478	0.17294888	0.66978043
1276888645205	-4.140586	7.9270425	0.08172209	-0.8629856	0.0	6.4375	-51.9375	-11.6875	1.021007	0.009137555	0.48135695
1276888645245	-4.440233	8.349273	-1.1849703	-0.2761631	0.0	6.9375	-51.9375	-9.875	0.8542664	-0.1246573	0.48877123
1276888645275	-3.1054392	6.2789803	-0.95342433	-2.737112	0.0	5.9375	-52.9375	-8.125	0.88644224	-0.13527595	0.45929977
1276888645305	-0.9125633	6.5922484	-0.27240697	-3.1459656	0.0	5.1875	-52.9375	-6.3125	0.24499914	-0.040909152	0.13755554
1276888645335	-0.38136974	8.281172	-0.08172209	-1.5162992	0.0	5.1875	-52.4375	-3.75	-0.57557416	-0.009857654	0.046020113
1276888645375	-3.445948	10.691973	-2.8738933	1.7886982	0.0	5.6875	-53.1875	-1.75	0.6389579	-0.25045913	0.31178156
1276888645405	-6.66035	12.108489	-2.982856	4.3310013	0.0	6.1875	-52.6875	-0.4375	1.075188	-0.21258424	0.50288635
1276888645445	-5.8567495	10.800936	1.3756552	2.5567703	0.0	6.6875	-52.9375	-0.1875	1.8403	0.111499056	0.4968695
1276888645485	-7.8180795	11.304889	5.09401	4.851857	0.0	6.6875	-53.4375	-1.4375	2.1203406	0.35491663	0.6050433
1276888645525	-3.336985	12.489859	3.486809	3.5832663	0.0	6.9375	-52.9375	-3.75	2.5410228	0.26344225	0.26107743
1276888645565	0.23154591	16.86199	-6.469665	8.255379	0.0	8.125	-52.4375	-7.875	-0.3267924	-0.36633015	-0.013730963
1276888645605	-0.19068487	15.4046135	-4.0180025	6.1144943	0.0	9.125	-50.875	-12.9375	-0.32291144	-0.25512767	0.012377794
1276888645635	-3.1054392	11.304889	3.2961242	2.3715553	0.0	10.5625	-49.125	-18.0625	0.63842225	0.2740761	0.26808617
1276888645665	-2.3699405	10.95076	-0.9125633	1.4347258	0.0	11.5625	-46.8125	-23.125	-0.051844254	-0.0812684	0.21313103
1276888645705	-1.56634	9.275456	-3.173541	0.121032715	0.0	11.8125	-44.75	-26.75	-0.10431392	-0.32537678	0.16729103
1276888645745	-2.3699405	8.240311	-5.09401	0.16672802	0.0	11.3125	-43.0	-29.8125	0.020962514	-0.5360694	0.28004524
1276888645785	-2.2201166	5.09401	-1.56634	-4.0333257	0.0	10.0625	-41.1875	-32.3125	0.16878629	-0.2747501	0.41100696
1276888645825	0.7627395	2.6832085	-2.4925237	-6.0657873	0.0	7.625	-39.9375	-34.125	-0.35230163	-0.7292311	-0.2769583
1276888645865	0.7218784	2.3426998	-1.2258313	-7.065845	0.0	4.9375	-39.1875	-35.625	-0.3268242	-0.46369085	-0.29890743
1276888645895	-0.14982383	2.4516625	0.14982383	-7.345849	0.0	3.0	-39.9375	-35.125	-0.017113743	0.06092184	0.061035212
1276888645925	-0.040861044	4.140586	3.6774938	-4.2685924	0.0	1.75	-40.9375	-34.125	-2.4658976	0.72620964	0.0098681
1276888645955	-1.607201	9.997335	10.732834	4.9488077	0.0	2.0	-42.75	-32.3125	2.639294	0.8144971	0.15939906
1276888645985	-6.2789803	17.62473	16.698545	15.271191	0.0	2.25	-44.25	-30.5625	1.9757491	0.7286574	0.34224042
1276888646015	-5.284695	10.651112	10.95076	6.3579197	0.0	2.0	-44.5	-29.8125	1.8765967	0.74429643	0.46057385
1276888646055	2.6014864	4.5628166	6.4424243	-1.4944992	0.0	1.0625	-44.0	-30.3125	-1.9878321	0.88681173	-0.51818115
1276888646095	0.23154591	16.43976	6.742072	7.9634056	0.0	0.3125	-43.5	-31.5625	-0.07270314	0.3891546	-0.014083575
1276888646125	-6.2789803	8.662541	-7.3549876	3.1764565	0.0	0.3125	-42.1875	-32.8125	0.48507792	-0.6022578	0.6272051
1276888646155	4.3312707	3.405087	-7.164303	-0.76885414	0.0	1.0625	-40.9375	-33.625	-0.68873376	-0.915233	-0.9045494
1276888646195	4.3312707	9.724928	-7.1234417	3.0026264	0.0	3.25	-41.1875	-33.125	-0.39198902	-0.589705	-0.41900375
1276888646235	-3.5957718	17.052675	-13.402422	12.178532	0.0	5.4375	-41.9375	-30.3125	0.06690981	-0.65557057	0.20781824
1276888646275	-4.5628166	13.021052	1.2666923	4.048732	0.0	6.9375	-44.0	-26.1875	0.3478749	0.09155023	0.33704755
1276888646305	-4.099725	8.689782	1.0351465	-0.14271832	0.0	8.375	-46.3125	-21.875	0.62530726	0.10732032	0.4408234
1276888646345	-2.6423476	8.158588	-1.4165162	-1.1146374	0.0	9.125	-48.625	-16.75	0.25150532	-0.16369769	0.31321234
1276888646385	-3.445948	6.4015636	0.7218784	-2.500784	0.0	9.625	-50.375	-13.1875	1.0770572	0.09896955	0.49381447
1276888646415	-4.140586	7.082581	-0.6946377	-1.5731869	0.0	9.625	-51.375	-10.625	0.8741903	-0.08446803	0.52903044
1276888646455	-4.9850473	5.5571017	-1.8387469	-2.1181479	0.0	9.625	-52.1875	-8.375	0.9703007	-0.2414959	0.73118776
1276888646485	-4.630918	6.0474343	-1.0760075	-2.1141438	0.0	9.375	-52.6875	-6.5625	1.0798261	-0.14033756	0.6535151
1276888646525	-2.9147544	7.9679036	-0.46309182	-1.3097248	0.0	9.125	-52.6875	-4.8125	0.8929833	-0.05452812	0.35069117
1276888646565	-1.7978859	10.147159	-1.0351465	0.5504122	0.0	9.375	-52.6875	-2.5	-0.004996746	-0.1001131	0.17536128
1276888646605	-7.04172	12.108489	-0.38136974	4.2057295	0.0	9.125	-52.9375	-0.6875	1.46135	-0.027219992	0.5267446
1276888646635	-4.630918	10.991621	1.6889231	2.2396603	0.0	9.375	-52.9375	1.0625	2.1850183	0.14066595	0.398744
1276888646665	-2.5333846	10.460427	6.1291566	2.579033	0.0	8.875	-52.9375	2.125	3.0070949	0.5176716	0.2376123
1276888646705	-8.771504	9.915613	4.7943625	4.273285	0.0	9.125	-53.1875	1.3125	2.1063912	0.34745955	0.72425
1276888646745	-8.62168	12.9529505	-5.9793324	6.862625	0.0	9.8125	-53.1875	-1.75	0.8304167	-0.3668789	0.58727425
1276888646785	-2.4108016	17.733692	-5.366417	8.877413	0.0	11.0625	-51.375	-6.8125	-0.18516372	-0.2913222	0.13511641
1276888646825	1.9477097	18.850561	0.14982383	9.144859	0.0	13.0	-49.625	-12.6875	-0.97187567	0.007905723	-0.102958344
1276888646865	0.19068487	13.756551	0.50395286	3.9604492	0.0	15.0	-47.0625	-19.0625	-0.73439294	0.036613774	-0.0138604995
1276888646895	-6.1291566	11.795221	-4.903325	4.361497	0.0	16.6875	-44.5	-23.375	0.14817826	-0.35339063	0.47922838
1276888646935	-9.384419	7.3549876	-5.5571017	3.34799	0.0	17.6875	-43.0	-27.25	0.5019479	-0.4361403	0.9060461
1276888646976	-2.070293	3.445948	-4.8216033	-3.529029	0.0	16.4375	-40.6875	-31.3125	0.12797178	-0.87580955	0.54100055
1276888647015	4.099725	1.56634	-4.0180025	-3.8563972	0.0	13.5	-38.375	-34.125	-1.0036447	-0.7413251	-1.2058507
1276888647055	2.4516625	1.1168685	-3.759216	-5.1817446	0.0	9.625	-36.375	-36.9375	-0.94769716	-0.9489771	-1.143332
1276888647096	1.7978859	1.334794	-2.0294318	-6.784621	0.0	5.4375	-35.5625	-38.6875	-0.6719689	-0.7362934	-0.93216133
1276888647135	0.6537767	3.990762	1.8387469	-5.3642864	0.0	3.75	-35.8125	-37.9375	-0.44001856	0.4267471	-0.16238014
1276888647175	-7.6273947	16.507862	17.270601	15.27243	0.0	4.0	-37.875	-36.1875	1.4564976	0.7596196	0.43282625
1276888647216	-8.853226	11.264028	11.645397	8.656103	0.0	4.6875	-39.6875	-34.625	1.3190446	0.68252045	0.6661294
1276888647255	1.1441092	2.4108016	5.6252036	-3.580587	0.0	5.4375	-40.9375	-33.125	-2.2217455	1.12785	-0.44310254
1276888647295	-0.7218784	15.854085	-1.7297841	6.1578503	0.0	5.9375	-41.6875	-32.5625	-0.108885586	-0.10856505	0.045501214
1276888647325	-7.246025	11.223166	-0.38136974	3.557847	0.0	6.9375	-41.1875	-33.375	0.44688386	-0.028539909	0.5732978
1276888647375	5.7477865	4.7535014	-3.1463003	-1.7114649	0.0	8.625	-41.1875	-33.125	-0.77341616	-0.39918026	-0.87979895
1276888647416	1.2258313	12.408136	-11.454713	7.1248283	0.0	10.3125	-41.6875	-31.0625	-0.27834314	-0.74304515	-0.098473005
1276888647456	-3.636633	14.47843	-7.43671	6.871319	0.0	12.0625	-43.5	-27.75	-0.024507666	-0.46217975	0.2460851
1276888647495	-4.5628166	9.615966	3.405087	1.3683538	0.0	12.0625	-45.8125	-23.375	0.824939	0.3096294	0.44304377
1276888647535	-3.3642259	8.812365	-0.84446156	-0.33622837	0.0	12.5	-48.0625	-18.3125	0.23679762	-0.0892869	0.36468577
1276888647566	-3.445948	7.8589406	-0.29964766	-1.22019	0.0	12.75	-50.375	-14.25	0.4900952	-0.03490478	0.4132284
1276888647605	-2.6832085	6.238119	-0.8036005	-2.9685574	0.0	12.5	-51.375	-10.875	0.4802298	-0.117790416	0.4062086
1276888647636	-4.0180025	4.399372	-0.95342433	-3.7727594	0.0	12.5	-51.9375	-7.875	1.0392487	-0.15867656	0.7401217
1276888647675	-4.5628166	5.597963	-0.95342433	-2.5220428	0.0	12.0625	-52.4375	-5.5625	1.1091024	-0.13125862	0.6838718
1276888647716	-1.56634	9.343558	-1.1441092	-0.26387882	0.0	11.5625	-51.9375	-3.25	-0.28545982	-0.120181866	0.16609408
1276888647756	-3.2961242	10.18802	0.10896278	0.90185356	0.0	11.0625	-51.6875	-1.75	1.3489147	0.010175527	0.31290126
1276888647795	-8.471856	10.038197	-1.4982382	3.4138813	0.0	10.5625	-51.9375	-0.1875	1.3594027	-0.11357061	0.7009782
1276888647835	-5.8158884	11.114203	3.445948	3.2019873	0.0	10.0625	-52.4375	1.3125	2.336736	0.268097	0.4821011
1276888647876	-3.7864566	11.727119	6.701211	4.2207804	0.0	9.8125	-52.6875	0.5625	2.8828728	0.49805975	0.3123136
1276888647916	-9.275456	12.258313	-4.903325	6.328495	0.0	9.625	-52.6875	-2.5	0.95914066	-0.30877414	0.64775413
1276888647955	-4.1814466	18.278507	-6.932757	10.184633	0.0	10.8125	-51.9375	-7.3125	0.041238084	-0.35414544	0.22489324
1276888647996	2.6832085	18.087822	-2.070293	8.595932	0.0	13.25	-49.875	-13.1875	-0.8365587	-0.112738796	-0.14726937
1276888648035	2.2609777	13.184497	2.7649305	3.8530645	0.0	15.4375	-48.0625	-18.8125	-1.1892909	0.2038233	-0.16983563
1276888648075	0.27240697	9.193735	-1.334794	-0.5125313	0.0	18.125	-46.0625	-23.125	-0.5848784	-0.1441154	-0.029620962
1276888648116	-5.09401	7.0553403	-6.1291566	0.83728313	0.0	19.125	-43.75	-26.75	0.20440863	-0.61362594	0.62534404
1276888648155	-3.8273177	3.214402	-2.9147544	-4.020759	0.0	18.375	-42.1875	-30.3125	0.41153255	-0.5279567	0.87222
1276888648189	1.6889231	1.920469	-5.5162406	-3.726389	0.0	16.9375	-40.4375	-33.625	-0.8959668	-1.136669	-0.721335
1276888648226	1.5390993	2.1792557	-3.173541	-5.660647	0.0	14.25	-38.875	-35.625	-0.69402915	-0.87173384	-0.6149083
1276888648265	0.313268	2.6423476	-0.7627395	-7.038635	0.0	11.5625	-38.375	-36.4375	-0.34054947	-0.27916664	-0.118005864
1276888648305	0.08172209	5.366417	2.9147544	-3.6992035	0.0	9.625	-38.375	-35.875	-0.6552245	0.49751806	-0.01522725
1276888648346	-3.5276701	15.976667	15.636159	12.824917	0.0	8.375	-39.4375	-34.375	3.0337677	0.7627338	0.21731456
1276888648385	-6.782933	10.337844	8.812365	5.376793	0.0	7.625	-40.4375	-33.375	1.2571242	0.6192113	0.58067006
1276888648416	-0.10896278	2.982856	5.8567495	-3.2331567	0.0	7.125	-41.4375	-33.375	-2.8917105	1.099465	0.036513448
1276888648456	2.3699405	3.336985	2.8330324	-4.8288836	0.0	6.6875	-41.6875	-34.125	-1.2172947	0.60545623	-0.6175416
1276888648495	2.3426998	17.774553	-1.607201	8.19352	0.0	6.9375	-41.6875	-33.625	-0.32074764	-0.08940717	-0.13104543
1276888648535	-5.243834	9.956474	-3.214402	1.8964071	0.0	8.375	-41.6875	-33.375	0.2707313	-0.27823967	0.48475978
1276888648576	0.88532263	6.2108784	-8.308413	0.604331	0.0	11.3125	-41.4375	-31.8125	-0.32474747	-0.92404085	-0.14159003
1276888648615	-2.7921712	13.715691	-12.108489	8.700968	0.0	13.25	-42.5	-28.25	-0.089265086	-0.7131819	0.20083065
1276888648655	-4.140586	15.132206	-0.6946377	5.897191	0.0	15.0	-44.0	-24.9375	-0.10549888	-0.04424806	0.26708964
1276888648696	-3.3642259	9.697687	0.95342433	0.50218964	0.0	16.1875	-45.5625	-20.625	-0.022426646	0.09261845	0.3339195
1276888648735	-1.3075534	8.689782	-0.6946377	-0.99163246	0.0	16.1875	-47.8125	-15.75	-0.42563006	-0.07888341	0.1493498
1276888648775	-2.2201166	7.43671	-0.8036005	-2.0041285	0.0	16.9375	-48.625	-12.6875	-0.12876762	-0.103175364	0.29011202
1276888648815	-3.405087	6.4015636	-1.8387469	-2.3263006	0.0	16.9375	-49.375	-10.375	0.3475681	-0.24835554	0.48885235
1276888648855	-4.944186	5.134871	-1.56634	-2.5083423	0.0	15.6875	-50.375	-7.3125	0.93998957	-0.21629952	0.7664815
1276888648895	-5.012288	7.205164	-1.1441092	-0.95530033	0.0	15.25	-50.375	-5.0625	0.9552568	-0.12962084	0.60780203
1276888648935	-3.9499009	8.008764	0.6946377	-0.84983444	0.0	14.0	-51.125	-2.0	1.7711227	0.07763205	0.45819062
1276888648975	-4.4810944	11.34575	1.9885708	2.552988	0.0	13.25	-51.375	1.3125	2.5509202	0.16159467	0.37615225
1276888649005	-6.973618	11.917805	-0.14982383	4.002328	0.0	12.75	-51.125	2.875	1.7265373	-0.010849954	0.5294235
1276888649035	-3.255263	9.997335	4.903325	1.7944727	0.0	12.3125	-51.375	3.875	2.9800766	0.43637782	0.31478631
1276888649065	-7.4639506	11.686258	3.8681788	4.5892525	0.0	12.3125	-51.6875	2.625	2.313442	0.2720431	0.5683866
1276888649105	-8.430995	14.628253	-1.6889231	7.1615524	0.0	13.0	-51.375	-0.4375	1.2050205	-0.09969968	0.5228483
1276888649145	-1.3075534	18.727978	-6.5513873	10.0772	0.0	14.75	-51.125	-5.3125	-0.46632555	-0.33575577	0.06970507
1276888649185	2.2201166	17.856276	-4.2495484	8.682108	0.0	16.4375	-49.375	-10.625	-0.8145043	-0.23191841	-0.12369778
1276888649225	1.0351465	13.443283	3.255263	4.0638266	0.0	19.125	-46.8125	-16.25	-1.345803	0.2368997	-0.07684937
1276888649265	-1.56634	9.80665	-5.7477865	1.6677065	0.0	20.625	-43.75	-20.875	-0.3149249	-0.52466667	0.15838441
1276888649305	-6.782933	7.5865335	-3.9090397	1.0949221	0.0	20.8125	-41.1875	-24.9375	0.29514253	-0.36674175	0.7295322
1276888649335	-0.27240697	3.7864566	-4.140586	-4.1891856	0.0	19.625	-38.875	-29.5	-0.32658654	-0.8287565	0.07181871
1276888649365	2.4108016	2.070293	-5.243834	-3.6751032	0.0	16.4375	-36.625	-33.875	-0.95396775	-1.025979	-0.86124027
1276888649395	1.1168685	2.3018389	-4.2086873	-4.881317	0.0	13.5	-35.5625	-37.6875	-0.5838484	-1.0245837	-0.4517434
1276888649425	0.7218784	2.5606253	-2.4516625	-6.188839	0.0	11.0625	-34.8125	-39.75	-0.38278884	-0.74458206	-0.2747835
1276888649465	1.1849703	2.4925237	0.50395286	-7.001156	0.0	9.375	-35.3125	-39.75	-0.6059906	0.18061103	-0.44378266
1276888649495	1.8387469	7.3141265	6.0882955	-0.1141386	0.0	8.875	-36.875	-37.6875	-1.1338131	0.67916596	-0.24629273
1276888649535	-4.1814466	16.358038	16.3989	13.730423	0.0	8.875	-38.875	-36.1875	2.6255872	0.77082366	0.25026134
1276888649575	-5.9793324	12.176591	11.114203	7.730377	0.0	8.875	-40.4375	-34.375	1.4589353	0.68639976	0.45646316
1276888649615	1.3075534	5.175732	5.8567495	-1.8820424	0.0	9.125	-41.4375	-34.125	-1.8307251	0.83167183	-0.24745391
1276888649645	-1.1168685	16.249075	2.8330324	6.725317	0.0	9.125	-41.4375	-33.875	-0.23476048	0.17221694	0.068626344
1276888649675	-6.2108784	15.976667	1.9477097	7.4450893	0.0	9.8125	-40.4375	-34.125	0.18606149	0.11314055	0.37076786
1276888649715	3.7864566	3.9090397	-8.19945	0.034529686	0.0	11.5625	-39.6875	-34.375	-0.7834502	-0.98482895	-0.76947033
1276888649755	3.636633	5.243834	-6.3607025	-0.7965765	0.0	13.0	-39.4375	-34.125	-0.6703987	-0.78376997	-0.6063546
1276888649795	-2.3018389	13.443283	-12.9529505	9.002903	0.0	15.25	-40.1875	-32.0625	-0.1564362	-0.7596073	0.16958143
1276888649835	-5.8158884	14.437569	-5.8976107	6.8381615	0.0	16.4375	-42.1875	-28.0	0.012232953	-0.36218816	0.3829438
1276888649875	-4.7126403	8.730643	6.5513873	2.0825796	0.0	16.9375	-44.75	-23.375	2.377394	0.5836046	0.4949641
1276888649905	-4.2086873	6.973618	-2.982856	-1.1324453	0.0	17.9375	-47.0625	-17.8125	0.25935754	-0.35104215	0.54300046
1276888649935	-5.5162406	7.246025	-0.6537767	-0.67641354	0.0	17.9375	-49.125	-14.25	0.716197	-0.071667	0.6506801
1276888649965	-4.8216033	7.668256	-0.88532263	-0.7053423	0.0	17.6875	-49.625	-11.6875	0.60250896	-0.097428285	0.5613089
1276888650005	-4.0180025	7.3141265	-1.334794	-1.3554688	0.0	16.9375	-50.125	-8.875	0.50033116	-0.15860586	0.5023427
1276888650045	-2.6832085	7.1234417	-0.29964766	-2.1887226	0.0	16.1875	-50.625	-6.8125	0.29434884	-0.039344687	0.36023661
1276888650085	-0.29964766	8.117727	-0.29964766	-1.6778688	0.0	15.9375	-51.125	-4.8125	-1.124745	-0.036870908	0.036895998
1276888650125	-0.14982383	9.384419	0.5720546	-0.40361786	0.0	15.4375	-51.6875	-1.75	-1.6671647	0.060874842	0.015963811
1276888650166	-6.2108784	10.56939	-1.334794	2.5249634	0.0	15.4375	-51.6875	0.0625	1.1600573	-0.108454116	0.53127337
1276888650205	-9.152874	11.836082	-1.0351465	5.191333	0.0	15.25	-52.1875	1.0625	1.4488893	-0.06907397	0.6582487
1276888650245	-9.043911	13.525005	4.4810944	7.069317	0.0	14.5	-51.6875	1.625	2.3071156	0.26875478	0.5893957
1276888650285	-5.434519	14.9006605	0.3405087	6.057764	0.0	14.75	-51.375	-1.4375	1.492805	0.02146533	0.3497248
1276888650325	2.7649305	15.894946	-5.6252036	7.279516	0.0	15.6875	-50.875	-6.0625	-0.84756625	-0.33548337	-0.17222695
1276888650365	3.9499009	17.66559	-2.9556155	8.534845	0.0	17.4375	-48.875	-11.1875	-0.99135685	-0.16184933	-0.21997477
1276888650405	-0.50395286	12.639683	2.2609777	3.0435467	0.0	19.125	-46.8125	-17.5625	-1.0932388	0.1768696	0.039849583
1276888650445	-3.568531	10.691973	-3.9499009	2.1371527	0.0	20.625	-44.25	-22.625	-0.14748028	-0.3370528	0.32213268
1276888650485	-8.076866	7.3141265	-4.8216033	2.1088886	0.0	20.375	-41.1875	-27.5	0.37795863	-0.41659427	0.83491516
1276888650525	-0.0	4.2086873	-3.9771416	-4.01608	0.0	18.625	-38.625	-31.8125	-0.35887626	-0.7571196	0.0
1276888650565	2.070293	2.070293	-4.5628166	-4.3852553	0.0	15.6875	-36.375	-35.875	-0.8601169	-1.0002972	-0.7853982
1276888650605	0.8036005	2.4108016	-3.1463003	-5.7622786	0.0	12.0625	-35.0625	-39.25	-0.44232872	-0.89138925	-0.32175052
1276888650645	1.7978859	2.1111538	0.313268	-7.016041	0.0	9.375	-35.0625	-40.25	-0.6702852	0.112495035	-0.7054297
1276888650675	2.3699405	6.891896	5.407278	-0.73176765	0.0	8.375	-36.375	-39.75	-0.98686886	0.638325	-0.33120653
1276888650715	-2.1792557	17.502148	16.88923	14.613024	0.0	8.625	-38.375	-37.4375	-1.5800242	0.76373506	0.123876065
1276888650755	-8.390134	11.032481	11.264028	8.053595	0.0	9.625	-39.4375	-35.875	1.3075818	0.682424	0.6501834
1276888650795	0.46309182	1.0760075	5.366417	-4.313866	0.0	9.8125	-39.6875	-35.125	-2.348702	1.3558787	-0.4064185
1276888650835	1.4982382	8.580819	-0.6946377	-1.0683613	0.0	9.8125	-39.6875	-35.125	-2.348702	1.3558787	-0.4064185
1276888650865	-2.0294318	19.340895	0.53119355	9.64768	0.0	11.0625	-39.9375	-34.375	-0.20274399	0.027308038	0.104547
1276888650905	-3.718355	11.141444	1.6480621	2.053959	0.0	12.5	-40.4375	-32.8125	0.035471004	0.13940364	0.32211727
1276888650935	3.445948	3.1463003	-7.8180795	-0.7019186	0.0	15.0	-41.1875	-30.5625	-0.93363035	-1.0326946	-0.8308214
1276888650965	2.3018389	9.765789	-12.217452	6.0026894	0.0	17.1875	-42.1875	-27.25	-0.5213306	-0.88324076	-0.23147933
1276888651005	-2.6014864	15.363752	-8.880466	8.128658	0.0	17.9375	-43.5	-24.6875	-0.2317556	-0.5179945	0.16773525
1276888651045	-4.399372	9.615966	1.879608	0.93365765	0.0	17.9375	-45.5625	-21.625	0.20472369	0.17591089	0.42907923
1276888651075	-2.7513103	7.6273947	4.440233	-0.5620556	0.0	17.6875	-47.5625	-18.0625	-3.0830934	0.50100344	0.34618777
1276888651115	-3.445948	9.697687	-0.9942854	0.5329962	0.0	17.4375	-48.625	-14.5	-0.0077339327	-0.09631125	0.3414215
1276888651145	-4.5628166	7.9270425	-0.53119355	-0.6448021	0.0	17.6875	-49.625	-10.875	0.59720373	-0.058011398	0.5222861
1276888651175	-4.5628166	6.1700177	-1.7570249	-1.934195	0.0	17.6875	-49.875	-7.5625	0.69082177	-0.2250821	0.6367565
1276888651215	-4.7535014	5.5571017	-1.607201	-2.3193107	0.0	17.6875	-50.375	-5.5625	0.8751018	-0.21633944	0.70761615
1276888651255	-3.8681788	7.3549876	-0.88532263	-1.4494705	0.0	16.9375	-51.375	-3.75	0.76038975	-0.10613472	0.48417258
1276888651295	-1.7297841	8.471856	-0.38136974	-1.151598	0.0	15.9375	-51.6875	-2.25	-0.85153013	-0.044077523	0.2014116
1276888651335	-2.4925237	11.032481	0.5720546	1.5183477	0.0	15.6875	-51.6875	0.3125	-2.230441	0.050534066	0.2221956
1276888651375	-6.8237944	12.299174	-0.88532263	4.2865276	0.0	15.6875	-51.9375	2.375	1.487298	-0.06286062	0.50653416
1276888651415	-2.8330324	10.18802	5.829509	2.268324	0.0	16.1875	-51.125	3.625	-3.0763152	0.50382197	0.27122265
1276888651455	-7.082581	11.836082	3.7864566	4.496952	0.0	16.9375	-50.125	2.375	2.5300753	0.26791403	0.53923404
1276888651495	-5.9793324	15.6634	-7.8180795	8.692455	0.0	17.9375	-49.875	-1.75	0.04289357	-0.43633348	0.36466584
1276888651535	-3.6774938	19.504337	-4.9850473	10.657803	0.0	18.625	-48.625	-7.0625	-0.44813696	-0.24607123	0.18635967
1276888651575	2.2201166	16.780268	0.6537767	7.132469	0.0	19.625	-47.0625	-13.1875	-1.1497747	0.03860526	-0.13154122
1276888651615	-0.29964766	12.598822	0.14982383	2.7966242	0.0	20.125	-45.8125	-18.5625	-0.8129005	0.011887971	0.023779303
1276888651655	-5.09401	7.8180795	-8.349273	2.7145987	0.0	20.8125	-43.25	-23.375	0.1249202	-0.7299177	0.5774767
1276888651685	-5.47538	4.5219555	-1.9477097	-2.4431295	0.0	20.125	-40.6875	-27.75	0.45720002	-0.26769367	0.88047844
1276888651725	2.1111538	2.3699405	-5.175732	-3.7352586	0.0	18.125	-38.125	-32.8125	-0.8955969	-1.0207088	-0.7277115
1276888651765	1.7978859	1.879608	-4.4810944	-4.6253834	0.0	15.25	-35.8125	-37.6875	-0.83816975	-1.0448806	-0.7631796
1276888651805	2.070293	2.5333846	-2.7921712	-5.5054445	0.0	11.0625	-34.5625	-40.75	-0.60702085	-0.7064798	-0.6851437
1276888651845	0.9942854	3.1054392	0.53119355	-6.502937	0.0	8.625	-34.3125	-41.5	-0.47712293	0.1614878	-0.3098621
1276888651885	-2.0294318	9.697687	10.460427	4.6011343	0.0	7.875	-35.8125	-40.25	-0.33850262	0.8125254	0.20629261
1276888651915	-7.9679036	18.578154	17.583868	16.985657	0.0	8.375	-37.375	-37.6875	1.0838078	0.7159081	0.4051572
1276888651945	-6.8237944	10.378705	10.56939	6.5026627	0.0	9.375	-38.125	-35.875	1.3213947	0.7050325	0.58161587
1276888651975	-0.0	3.5276701	6.238119	-2.6401596	0.0	10.0625	-38.625	-35.375	-2.5859997	1.0561292	0.0
1276888652015	1.0351465	8.962189	5.284695	0.6489868	0.0	10.0625	-38.875	-35.625	-0.8860721	0.5298916	-0.11499198
1276888652055	-6.891896	18.850561	4.8216033	10.835291	0.0	11.5625	-38.875	-35.375	0.09948023	0.23576085	0.35051033
1276888652095	4.671779	4.7126403	-8.308413	0.82651615	0.0	13.25	-38.875	-34.875	-0.79543376	-0.89685434	-0.78104407
1276888652135	5.09401	5.938472	-7.3958488	0.9596386	0.0	15.25	-39.1875	-33.625	-0.7726455	-0.7572768	-0.70900387
1276888652175	-1.2258313	13.375181	-12.53072	8.562265	0.0	17.4375	-39.6875	-30.3125	-0.2671557	-0.750726	0.091394365
1276888652215	-5.434519	15.050485	-8.049625	8.105568	0.0	18.375	-41.1875	-26.75	-0.07455086	-0.46608576	0.3465166
1276888652255	-5.325556	8.008764	6.469665	1.7846575	0.0	18.875	-43.75	-21.625	2.3392293	0.5921521	0.5868243
1276888652295	-4.862464	7.668256	0.23154591	-0.72373676	0.0	19.375	-46.5625	-15.75	0.5345853	0.025495235	0.56511855
1276888652335	-5.284695	8.117727	1.1849703	-0.04808235	0.0	18.375	-48.625	-11.6875	1.1164926	0.12172911	0.57708263
1276888652375	-3.8273177	6.2108784	0.95342433	-2.4491787	0.0	17.9375	-49.875	-7.5625	1.4995952	0.12995133	0.55226654
1276888652415	-2.9556155	5.5571017	-1.4573772	-3.3459234	0.0	17.6875	-50.875	-4.8125	0.46011952	-0.227533	0.48881173
1276888652455	-1.3075534	8.771504	-3.336985	-0.3311844	0.0	16.9375	-51.125	-3.25	-0.40107688	-0.3598898	0.14797865
1276888652495	-0.23154591	10.56939	-1.1168685	0.8241081	0.0	16.9375	-51.125	-0.9375	-1.1894336	-0.10525433	0.021903712
1276888652535	-4.671779	11.141444	-0.8036005	2.3013258	0.0	16.4375	-50.875	0.5625	0.9881945	-0.066418335	0.3970459
1276888652565	-10.460427	10.95076	0.27240697	5.3397655	0.0	15.9375	-51.6875	1.875	1.6838421	0.017985882	0.7625014
1276888652605	-7.504812	12.408136	6.4424243	6.061207	0.0	15.9375	-51.6875	2.625	2.636308	0.41807795	0.5439633
1276888652645	-7.3141265	9.193735	3.336985	2.4063215	0.0	16.6875	-51.9375	0.8125	2.223161	0.27675217	0.67202497
1276888652675	-3.5957718	14.206022	-4.440233	5.505316	0.0	17.6875	-51.9375	-3.25	-0.22804287	-0.29421067	0.24790923
1276888652716	-2.5333846	19.082108	-6.5922484	10.540403	0.0	19.125	-49.875	-8.625	-0.4603731	-0.3299443	0.13199043
1276888652755	1.2666923	18.8097	-0.50395286	9.052387	0.0	20.375	-48.3125	-13.9375	-0.99860036	-0.02672527	-0.06724098
1276888652795	-0.19068487	13.402422	2.0294318	3.7498932	0.0	21.5625	-45.8125	-19.0625	-1.0517759	0.15026613	0.014226683
1276888652835	-2.8330324	8.812365	-8.240311	2.5863543	0.0	22.8125	-42.75	-22.875	-0.17514922	-0.7273817	0.31104833
1276888652875	-7.1234417	5.6252036	-2.070293	-0.4968462	0.0	22.5625	-40.4375	-27.0	0.4599657	-0.22425258	0.9023829
1276888652915	2.7240696	1.607201	-4.7943625	-4.062996	0.0	21.0625	-37.375	-31.8125	-1.1689345	-0.9876302	-1.0377623
1276888652945	2.5333846	0.84446156	-5.053149	-4.0912786	0.0	17.9375	-35.5625	-35.375	-1.2886068	-1.0846354	-1.2490457
1276888652975	2.070293	2.7240696	-4.099725	-4.4667616	0.0	13.75	-34.5625	-38.4375	-0.68039024	-0.8753296	-0.64987046
1276888653015	1.920469	3.636633	-1.6889231	-5.3607802	0.0	10.5625	-34.0625	-40.0	-0.49677223	-0.3896729	-0.48586616
1276888653055	0.14982383	7.246025	6.2789803	-0.21744156	0.0	8.375	-35.5625	-39.5	-0.9375496	0.7139133	-0.020673746
1276888653095	-2.0294318	15.894946	16.43976	13.150562	0.0	7.875	-36.875	-38.6875	-1.5403471	0.79820496	0.12699074
1276888653135	-6.0201936	10.882658	11.372991	7.04624	0.0	8.375	-38.625	-37.6875	1.373891	0.7407468	0.5052902
1276888653175	2.0294318	10.882658	7.43671	3.5295973	0.0	8.625	-39.6875	-36.9375	-1.0149112	0.5915296	-0.1843654
1276888653215	-9.193735	17.856276	9.765789	12.525881	0.0	9.625	-39.6875	-36.9375	0.5447098	0.45258293	0.47547603
1276888653245	1.0351465	0.38136974	-11.985906	2.2299156	0.0	10.5625	-38.625	-36.9375	-1.401667	-1.479016	-1.217806
1276888653285	9.507003	2.7240696	-0.9125633	0.12493706	0.0	13.0	-36.875	-36.6875	-0.82137704	-0.09201473	-1.29174
1276888653325	5.09401	12.639683	-8.539958	6.2756805	0.0	15.6875	-36.375	-35.125	-0.5633308	-0.55979794	-0.38310474
1276888653365	-2.4516625	14.669114	-14.369467	10.873657	0.0	17.6875	-37.375	-31.5625	-0.22052412	-0.76819485	0.16560036
1276888653405	-8.921328	13.0619135	-3.759216	6.451744	0.0	18.625	-39.9375	-27.75	0.19049597	-0.23332833	0.59922737
1276888653445	-7.273266	10.119919	7.3549876	4.664321	0.0	19.125	-43.25	-21.875	2.0202363	0.53316087	0.62317157
1276888653485	-5.8567495	5.407278	-1.2258313	-1.7417364	0.0	19.875	-45.5625	-16.0	0.72142136	-0.15258701	0.8252803
1276888653525	-4.630918	6.742072	-0.08172209	-1.6269426	0.0	20.375	-47.0625	-11.6875	0.67967516	-0.009990999	0.6018585
1276888653565	-2.4925237	6.701211	-0.6946377	-2.6232371	0.0	21.5625	-48.3125	-7.5625	-0.26049176	-0.09685158	0.3560951
1276888653605	-3.759216	7.43671	-1.2258313	-1.38412	0.0	21.5625	-49.125	-5.3125	0.21996072	-0.1460607	0.46803355
1276888653645	-2.4108016	7.6273947	-1.0760075	-1.7352867	0.0	21.0625	-50.125	-2.75	-0.46405962	-0.13370979	0.30613524
1276888653675	-0.19068487	8.008764	-0.14982383	-1.7942152	0.0	20.8125	-50.125	-0.1875	-1.513056	-0.018700004	0.023805028
1276888653715	-3.3642259	9.997335	-1.6889231	0.8759146	0.0	20.375	-50.375	2.125	-0.46434614	-0.15876707	0.32460883
1276888653755	-8.580819	10.991621	-3.2961242	4.5220146	0.0	19.125	-50.125	3.875	1.1000572	-0.2321158	0.66284215
1276888653795	-10.7192135	10.882658	4.140586	6.0198536	0.0	18.375	-50.125	4.125	2.2181976	0.26470393	0.7778321
1276888653835	-11.3321295	11.985906	-0.3405087	6.6916847	0.0	18.375	-50.375	2.625	1.6463208	-0.020640438	0.75736815
1276888653875	-4.0588636	14.628253	-0.29964766	5.377221	0.0	19.375	-49.875	-0.4375	-1.2987714	-0.019735884	0.2706587
1276888653915	-0.38136974	18.959524	-4.5219555	9.688402	0.0	21.3125	-48.875	-6.0625	-0.8647461	-0.23408598	0.020112231
1276888653945	1.8387469	17.883516	-5.6252036	9.030655	0.0	24.0	-46.8125	-11.6875	-0.86702573	-0.30324677	-0.10245794
1276888653975	-0.27240697	13.33432	2.8738933	3.8365736	0.0	25.5	-44.5	-17.3125	-1.2768486	0.21223594	0.02042617
1276888654047	-3.0645783	9.534244	-3.3642259	0.75798225	0.0	26.25	-42.1875	-22.125	-0.3211058	-0.3240858	0.3109983
1276888654085	-1.2258313	3.445948	-4.5900574	-3.9375916	0.0	24.25	-39.4375	-26.4375	-0.1834882	-0.8979922	0.34177142
1276888654125	3.568531	2.3699405	-7.014479	-1.5875292	0.0	20.125	-37.375	-32.0625	-1.127878	-1.0225393	-0.9845574
1276888654155	2.4925237	3.1463003	-4.5219555	-3.7601671	0.0	15.9375	-35.5625	-36.4375	-0.7430579	-0.8448407	-0.6699715
1276888654185	2.6832085	2.3426998	-2.3699405	-5.528278	0.0	11.5625	-34.3125	-39.75	-0.68711287	-0.5870833	-0.8530455
1276888654225	0.7627395	3.9499009	3.5957718	-4.410998	0.0	9.8125	-34.8125	-40.25	-1.0899128	0.72939706	-0.19075555
1276888654255	-3.0645783	14.2877445	18.496431	13.765564	0.0	9.125	-36.125	-38.4375	-2.8968694	0.90216506	0.21128863
1276888654295	-6.5513873	15.976667	15.091345	13.126368	0.0	9.375	-36.875	-37.4375	1.0022503	0.71824193	0.38914835
1276888654325	-1.1849703	3.445948	7.5865335	-1.3903446	0.0	9.375	-36.625	-36.9375	2.973817	1.1230128	0.33120656
1276888654355	0.10896278	7.8180795	8.076866	1.4347916	0.0	8.875	-36.875	-37.6875	-1.5910152	0.80162925	-0.01393638
1276888654395	-7.7772183	14.750836	2.9147544	7.1216717	0.0	9.125	-35.5625	-39.25	0.25610328	0.17304446	0.4852007
1276888654435	4.2086873	5.829509	-6.782933	0.07790375	0.0	10.8125	-35.0625	-39.75	-0.58650434	-0.75627327	-0.6253144
1276888654475	7.3549876	9.847511	-2.5606253	2.7482748	0.0	13.25	-35.8125	-38.9375	-0.64772904	-0.20539497	-0.6415064
1276888654515	-3.5276701	12.830367	-12.598822	8.518007	0.0	16.9375	-36.375	-35.625	-0.12536214	-0.7580873	0.26831686
1276888654545	-7.7772183	13.525005	-10.501288	8.999943	0.0	20.8125	-38.625	-30.8125	0.024206126	-0.5924358	0.5218532
1276888654585	-8.539958	13.021052	4.4810944	6.3970184	0.0	22.8125	-40.9375	-24.9375	0.2967655	0.28020027	0.5804821
1276888654625	-5.9793324	8.158588	-4.2086873	1.1490803	0.0	24.75	-43.0	-18.8125	0.14912969	-0.39429134	0.6324592
1276888654655	-4.372132	7.9679036	0.84446156	-0.6788826	0.0	25.0	-44.75	-14.5	-0.040204164	0.092648156	0.50185835
1276888654697	-2.5333846	6.973618	0.88532263	-2.3344898	0.0	25.0	-46.0625	-10.625	-1.054624	0.11876179	0.3484573
1276888654735	-3.9499009	6.2108784	-0.46309182	-2.4316125	0.0	24.5	-47.3125	-7.5625	0.40902382	-0.06283313	0.5664454
1276888654775	-4.5628166	4.862464	-1.4165162	-2.9898052	0.0	23.5625	-48.3125	-5.8125	0.770519	-0.20932171	0.753617
1276888654857	-1.2258313	7.9679036	-2.1383946	-1.4662132	0.0	23.3125	-48.625	-3.75	-0.7482555	-0.25928426	0.15264933
1276888654895	-6.1291566	12.176591	-1.4982382	3.9075994	0.0	22.5625	-48.875	-1.4375	0.24429347	-0.1094653	0.46632856
1276888654925	-7.9270425	9.888372	-1.1441092	2.9183998	0.0	21.8125	-49.125	0.3125	1.2627403	-0.09003158	0.675748
1276888654955	-8.962189	11.958665	-4.0588636	5.6789837	0.0	21.8125	-49.375	1.875	0.79288477	-0.2652029	0.64313656
1276888654995	-8.62168	11.372991	0.88532263	4.4923735	0.0	21.5625	-49.875	2.875	2.013421	0.061954528	0.64865476
1276888655035	-2.1792557	9.425281	7.43671	2.3953876	0.0	21.5625	-49.625	1.3125	-2.8559375	0.6553851	0.22722098
1276888655065	-2.8330324	13.6748295	-1.2258313	4.2122545	0.0	23.75	-48.3125	-2.0	-1.1177493	-0.087553106	0.20428145
1276888655095	-4.862464	17.543009	-6.469665	9.513218	0.0	25.5	-46.8125	-5.8125	-0.48570547	-0.34146842	0.27038613
1276888655125	-1.1441092	15.050485	-7.5865335	7.08659	0.0	27.1875	-45.0	-10.625	-0.65945107	-0.46574318	0.075872175
1276888655165	-2.6014864	13.6748295	0.040861044	4.113492	0.0	28.4375	-43.25	-15.0	-0.9282817	0.0029353942	0.18799265
1276888655197	-4.3312707	11.372991	2.152015	2.5519896	0.0	28.1875	-41.6875	-18.8125	-0.8555509	0.17502262	0.36387932
1276888655235	-3.486809	9.888372	-3.173541	1.1482172	0.0	28.1875	-39.9375	-22.125	-0.3650788	-0.29390538	0.3390044
1276888655265	-5.6660647	7.3549876	-5.7886477	1.134491	0.0	27.9375	-37.875	-25.9375	0.020944355	-0.55750614	0.65641123
1276888655305	-1.920469	3.0237172	-3.445948	-4.836175	0.0	27.1875	-36.625	-29.5	-0.06268023	-0.76603514	0.5658543
1276888655345	4.140586	1.0760075	-3.0237172	-4.5678425	0.0	25.5	-35.0625	-32.8125	-1.158641	-0.615267	-1.3165516
1276888655375	1.6889231	2.6014864	-4.099725	-4.665839	0.0	22.5625	-33.8125	-36.4375	-0.8204948	-0.92311686	-0.5758229
1276888655405	0.38136974	3.568531	-2.7921712	-5.259555	0.0	20.125	-33.8125	-38.1875	-0.44517788	-0.66118944	-0.10646613
1276888655445	-0.0	3.9499009	1.6889231	-5.5108175	0.0	18.125	-34.0625	-38.6875	-0.6851211	0.40405914	0.0
1276888655475	-5.012288	12.871228	15.745122	11.138527	0.0	16.9375	-34.5625	-37.4375	-2.477614	0.8506818	0.37135082
1276888655515	-11.304889	17.66559	15.241169	16.11953	0.0	16.4375	-36.125	-36.9375	0.6923716	0.6284207	0.5692695
1276888655555	-2.5333846	4.944186	8.158588	0.06378937	0.0	15.9375	-36.875	-36.6875	2.9338286	0.9729822	0.47351572
1276888655595	1.8387469	13.0619135	6.0201936	4.692912	0.0	15.4375	-36.375	-37.1875	-0.80006665	0.42816073	-0.13985266
1276888655635	-7.504812	13.0619135	-0.50395286	5.266165	0.0	15.6875	-36.875	-37.9375	0.120902695	-0.033440787	0.5215012
1276888655675	5.7477865	4.7943625	-6.5922484	0.16735077	0.0	17.4375	-35.8125	-36.9375	-0.84913844	-0.7220749	-0.87559205
1276888655715	3.486809	8.008764	-6.742072	1.2275543	0.0	19.875	-35.5625	-34.875	-0.6495685	-0.657343	-0.4106247
1276888655755	-2.6014864	12.680544	-11.141444	7.2724514	0.0	22.8125	-37.125	-30.5625	-0.2900284	-0.7106726	0.20234805
1276888655795	-9.575105	13.633968	-7.3958488	8.421522	0.0	24.0	-38.625	-26.75	0.059605688	-0.41778532	0.61226636
1276888655835	-5.7886477	7.504812	6.782933	1.848341	0.0	24.25	-41.6875	-21.625	2.5931468	0.6211573	0.6570099
1276888655875	-4.440233	6.701211	-0.61291564	-1.7445431	0.0	24.75	-44.25	-15.75	0.19247653	-0.076097675	0.585183
1276888655905	-5.47538	7.5865335	-0.6537767	-0.42780685	0.0	24.5	-46.0625	-11.4375	0.4412452	-0.06976418	0.62515724
1276888655935	-5.366417	7.43671	-0.23154591	-0.63295364	0.0	25.5	-46.8125	-6.8125	0.6894366	-0.025242878	0.6250837
1276888655975	-5.09401	6.973618	-0.61291564	-1.1489401	0.0	26.0	-47.3125	-4.25	0.7107651	-0.070853464	0.63088346
1276888656015	-4.440233	6.932757	-1.7978859	-1.379837	0.0	25.0	-47.8125	-3.25	0.3127511	-0.21500571	0.5696476
1276888656055	-1.334794	7.8861814	-0.3405087	-1.8010597	0.0	25.25	-47.8125	-2.25	-1.3145486	-0.042546697	0.16766827
1276888656095	-3.5276701	9.915613	0.46309182	0.727973	0.0	25.25	-48.0625	-0.6875	-1.7856468	0.0439732	0.34180516
1276888656135	-8.880466	11.604536	-4.2495484	5.4113197	0.0	24.75	-47.8125	0.8125	0.5906223	-0.2830082	0.6531951
1276888656165	-7.9679036	10.460427	1.0351465	3.383481	0.0	24.75	-47.3125	2.375	2.1972032	0.07855964	0.650959
1276888656198	-8.19945	10.119919	4.7126403	4.044441	0.0	23.5625	-47.0625	2.875	2.6306355	0.34716788	0.68094695
1276888656235	-9.466142	9.615966	3.5276701	4.140361	0.0	23.3125	-47.3125	1.0625	2.261164	0.25571144	0.77754676
1276888656265	-6.742072	13.211738	-2.7513103	5.278948	0.0	24.0	-47.0625	-2.0	0.0012614697	-0.18340644	0.47186098
1276888656305	-5.8158884	17.393185	-6.469665	9.640818	0.0	25.0	-46.0625	-7.0625	-0.3648605	-0.33913755	0.32268998
1276888656345	0.19068487	18.04696	-2.1792557	8.372412	0.0	26.9375	-44.25	-12.6875	-0.99304026	-0.120166235	-0.010565644
1276888656385	1.3756552	14.056199	3.6774938	4.787634	0.0	28.4375	-41.9375	-17.8125	-1.345625	0.25472757	-0.09755754
1276888656415	-5.325556	8.076866	-8.390134	2.9992723	0.0	29.375	-39.4375	-22.625	-0.05708026	-0.71441567	0.5829265
1276888656445	-12.14935	4.9850473	-2.8330324	3.6277637	0.0	28.9375	-37.125	-27.0	0.5884238	-0.21247385	1.1814305
1276888656475	-2.5606253	4.2495484	-3.9499009	-3.4649487	0.0	27.1875	-35.0625	-31.5625	-0.09922912	-0.6723747	0.5423027
1276888656515	3.1054392	3.0237172	-5.6252036	-2.7052746	0.0	24.25	-32.75	-35.625	-0.99737334	-0.9142889	-0.79873073
1276888656555	1.5390993	2.9556155	-4.7535014	-4.001457	0.0	20.125	-31.0	-38.6875	-0.7141686	-0.95938045	-0.48009953
1276888656595	1.607201	2.2609777	-2.7513103	-5.8996277	0.0	16.6875	-30.25	-40.5	-0.6697608	-0.78129035	-0.61796635
1276888656635	-0.88532263	5.597963	9.656827	1.390461	0.0	14.0	-30.5	-41.0	-2.23632	1.040069	0.15685175
1276888656665	-2.5606253	15.826844	15.595298	12.559824	0.0	12.0625	-31.25	-41.0	-0.8136527	0.7715711	0.1604001
1276888656705	-5.5162406	13.565866	13.565866	10.155674	0.0	11.3125	-32.25	-40.5	0.2507795	0.74718106	0.3862058
1276888656745	-1.7297841	6.0882955	7.082581	-0.3081007	0.0	10.8125	-32.75	-40.5	-0.84266746	0.8415078	0.27682167
1276888656785	0.42223078	4.944186	5.9793324	-2.0364718	0.0	10.3125	-32.25	-40.75	-1.4204823	0.8780942	-0.08519275
1276888656825	-3.0645783	17.270601	4.2086873	8.231596	0.0	10.8125	-32.5	-40.5	-0.15654534	0.23549074	0.17561683
1276888656865	-0.50395286	7.4639506	0.8036005	-2.2826686	0.0	12.5	-32.25	-40.0	-0.2768574	0.10700933	0.06741593
1276888656905	7.668256	4.0588636	-4.0180025	-0.245224	0.0	15.25	-32.5	-38.6875	-0.7857839	-0.43369928	-1.0839788
1276888656935	-2.4925237	11.495573	-9.00305	5.0060396	0.0	19.125	-33.0625	-35.875	-0.22698791	-0.6532784	0.21351954
1276888656965	-6.973618	13.375181	-10.460427	8.549477	0.0	22.8125	-33.5625	-32.3125	-0.09485564	-0.6063358	0.48060882
1276888657005	-13.252599	12.871228	-5.938472	9.59864	0.0	25.5	-35.8125	-28.0	0.19609538	-0.31101313	0.7999957
1276888657045	-6.1291566	8.008764	2.4108016	0.56247807	0.0	28.1875	-37.125	-21.875	0.017077515	0.23464528	0.65322524
1276888657075	-4.862464	8.008764	-0.9125633	-0.3930092	0.0	29.875	-38.875	-16.5	-0.24830706	-0.097093	0.545655
1276888657105	-4.944186	8.281172	-0.7627395	-0.13170528	0.0	30.875	-40.4375	-12.9375	-0.32988262	-0.078918464	0.5382398
1276888657145	-4.0588636	6.66035	-0.6537767	-1.9796419	0.0	30.875	-41.4375	-9.875	-0.3273839	-0.08362574	0.54730767
1276888657175	-3.486809	7.1234417	-0.08172209	-1.8751974	0.0	30.125	-43.0	-8.375	-0.74111444	-0.010303728	0.45519927
1276888657215	-4.944186	7.4639506	-1.4982382	-0.7291918	0.0	28.6875	-44.25	-6.8125	0.03372278	-0.16580911	0.58504903
1276888657255	-3.636633	5.6660647	1.1849703	-2.9704566	0.0	27.6875	-45.0	-4.25	2.9420273	0.1742177	0.5706082
1276888657285	-4.1814466	7.6954966	0.19068487	-1.0464258	0.0	27.6875	-45.25	-2.5	-1.111819	0.02176884	0.4977332
1276888657325	-5.938472	9.466142	-1.2666923	1.4395847	0.0	27.1875	-46.0625	-0.4375	0.22059464	-0.11287208	0.5602789
1276888657355	-7.8589406	9.724928	-1.6480621	2.8049831	0.0	27.4375	-46.3125	0.0625	0.84465724	-0.13105273	0.67967457
1276888657385	-11.563675	12.408136	-1.7570249	7.2452564	0.0	27.4375	-46.3125	0.3125	1.1528995	-0.103223	0.75018543
1276888657415	-14.056199	8.539958	8.771504	8.833279	0.0	26.9375	-46.3125	0.3125	2.2903168	0.48994353	1.0248379
1276888657455	-6.6331096	7.014479	3.445948	0.44398975	0.0	27.6875	-45.8125	-2.5	2.5007584	0.34284627	0.7574613
1276888657495	-4.9850473	17.052675	-8.158588	9.743465	0.0	28.1875	-44.75	-6.8125	-0.48645252	-0.43049055	0.2844074
1276888657535	-6.66035	15.023244	-5.5571017	7.5409565	0.0	28.1875	-43.25	-13.4375	-0.2763387	-0.32608652	0.41729861
1276888657565	-5.9793324	12.108489	0.95342433	3.7313309	0.0	29.125	-40.4375	-19.8125	-0.4665463	0.07048423	0.45868596
1276888657595	-4.7943625	10.691973	-3.9499009	2.5588627	0.0	29.875	-36.875	-24.6875	-0.3096399	-0.32512665	0.42152894
1276888657636	-4.0180025	6.469665	-5.9793324	-0.12401962	0.0	30.375	-34.0625	-27.75	-0.15665016	-0.66560084	0.55575573
1276888657675	-0.29964766	2.1111538	-2.4925237	-6.5264926	0.0	30.875	-32.0	-30.0625	-0.5072326	-0.8631273	0.14099371
1276888657715	4.0180025	0.38136974	-3.486809	-4.4730186	0.0	29.625	-31.25	-32.3125	-1.3643553	-0.71251655	-1.4761646
1276888657755	2.7240696	0.95342433	-2.9147544	-5.704777	0.0	27.4375	-31.75	-34.125	-1.2478725	-0.79033786	-1.2341216
1276888657795	-3.173541	9.302697	11.34575	5.2045984	0.0	24.25	-33.8125	-34.875	-2.114207	0.85690033	0.32876188
1276888657835	-4.0180025	15.826844	3.6774938	6.9312496	0.0	21.0625	-35.5625	-34.125	-0.44308326	0.2215178	0.24862015
1276888657875	-12.176591	11.75436	-11.686258	10.7603855	0.0	18.125	-36.375	-35.375	0.26089856	-0.6043208	0.8030401
1276888657905	-9.112013	5.938472	-8.390134	3.9297457	0.0	14.0	-37.375	-36.4375	0.4541744	-0.6570654	0.99321365
1276888657945	-5.9793324	14.982383	-1.879608	6.4339523	0.0	11.3125	-37.375	-36.9375	0.081071444	-0.115995064	0.37972242
1276888657985	0.313268	14.859799	3.1054392	5.377405	0.0	10.0625	-38.375	-36.9375	-0.3660653	0.20597306	-0.021078454
1276888658025	-3.405087	7.7363577	-0.53119355	-1.3374109	0.0	9.625	-40.4375	-34.625	0.19885568	-0.06276153	0.41462487
1276888658065	-3.1054392	6.1291566	3.718355	-1.9940658	0.0	11.0625	-42.1875	-31.8125	0.87467206	0.49603745	0.4689667
1276888658106	-5.243834	7.6273947	2.8738933	-0.114684105	0.0	12.3125	-43.75	-30.3125	0.73513204	0.3010501	0.60228735
1276888658145	-4.862464	5.8976107	0.7218784	-2.1289892	0.0	12.75	-45.0	-28.5	0.6572635	0.0941623	0.68949074
1276888658185	-2.3699405	7.6954966	3.1054392	-1.1764107	0.0	13.5	-46.0625	-26.4375	0.08836112	0.36808816	0.29874766
1276888658215	-4.2495484	7.7363577	2.3018389	-0.6847887	0.0	14.0	-46.5625	-24.9375	0.69654626	0.25510097	0.50230235
1276888658255	-4.2904096	7.8180795	0.95342433	-0.8378706	0.0	14.25	-47.0625	-23.375	0.51038665	0.10650605	0.50190645
1276888658285	-2.1792557	7.246025	0.61291564	-2.2152276	0.0	14.25	-47.0625	-23.375	0.51038665	0.10650605	0.50190645
1276888658325	-2.1111538	5.134871	1.1441092	-4.1380653	0.0	13.75	-46.3125	-23.6875	0.34776285	0.2032294	0.39007327
1276888658355	-6.742072	6.0882955	-0.08172209	-0.7220726	0.0	13.75	-45.8125	-25.1875	0.7701245	-0.008995816	0.83630955
1276888658385	-13.402422	8.812365	-3.9499009	6.7125626	0.0	14.0	-44.75	-27.25	0.701758	-0.24144866	0.9891526
1276888658415	-5.8567495	10.841797	1.8387469	2.6523657	0.0	14.0	-43.5	-29.0	0.36225653	0.14812471	0.49528888
1276888658445	2.9556155	11.795221	3.1463003	2.7536879	0.0	14.75	-42.1875	-30.8125	-0.87583816	0.25319138	-0.24552199
1276888658485	-1.2258313	9.534244	4.140586	0.6599121	0.0	14.0	-41.1875	-32.0625	-0.60146415	0.40672252	0.12786992
1276888658525	-1.6480621	9.302697	2.3018389	-0.08272362	0.0	13.5	-40.4375	-33.125	-0.27396157	0.23898755	0.17534031
1276888658565	-4.1814466	8.730643	3.6774938	0.54866695	0.0	13.25	-39.9375	-34.125	0.3009965	0.36305416	0.4466574
1276888658605	-2.9147544	7.7772183	3.1054392	-0.93959427	0.0	12.5	-40.1875	-35.375	0.1294961	0.35780823	0.35857874
1276888658645	-0.27240697	5.9793324	3.990762	-2.612708	0.0	12.5	-39.6875	-35.875	-0.9561038	0.58804953	0.04552661
1276888658675	-4.0180025	8.812365	5.053149	1.1174707	0.0	12.3125	-38.875	-35.875	0.3600591	0.4808896	0.42779136
1276888658716	-3.568531	9.466142	4.8216033	1.4000492	0.0	12.0625	-38.125	-35.625	0.14329326	0.4447619	0.36050403
1276888658755	-3.486809	7.9679036	2.7240696	-0.6926012	0.0	11.3125	-37.375	-36.6875	0.19476014	0.303526	0.4125001
1276888658795	-1.1441092	7.9679036	3.0645783	-1.1933985	0.0	10.8125	-36.875	-37.9375	-0.24417466	0.36376786	0.14261493
1276888658835	-4.099725	6.3198414	4.1814466	-1.190814	0.0	10.3125	-36.375	-39.5	0.5802186	0.5067303	0.5754657
1276888658875	-4.4810944	6.932757	4.399372	-0.45262432	0.0	9.375	-35.5625	-40.75	0.5297484	0.48965174	0.5738159
1276888658915	-3.9771416	8.689782	6.1700177	1.5687218	0.0	9.375	-35.3125	-40.75	0.3974041	0.5732929	0.42922246
1276888658945	-2.5333846	10.501288	5.09401	2.1367178	0.0	9.625	-35.0625	-40.75	-0.053038217	0.4406348	0.23672195
1276888658975	-3.5276701	9.615966	4.1814466	1.2566109	0.0	9.625	-35.3125	-40.25	0.13234347	0.38758954	0.35161126
1276888659015	-2.8738933	9.193735	3.0645783	0.301548	0.0	9.625	-35.8125	-39.75	0.056169108	0.30802533	0.3029692
1276888659055	-4.630918	9.615966	4.862464	1.9217663	0.0	9.375	-36.125	-39.25	0.33839288	0.42749032	0.4488085
1276888659085	-4.440233	9.343558	4.671779	1.5442648	0.0	8.625	-37.375	-38.1875	0.40243632	0.42418408	0.44362673
1276888659115	-2.6832085	9.112013	3.568531	0.34040833	0.0	8.125	-38.125	-37.6875	0.13681602	0.35936657	0.2863751
1276888659155	-2.3018389	9.234595	3.214402	0.23867702	0.0	8.375	-39.4375	-36.4375	0.06519549	0.3257187	0.24428448
1276888659185	-3.568531	10.337844	4.7126403	2.1019354	0.0	7.625	-40.6875	-35.125	0.36143205	0.40686768	0.33238426
1276888659225	-3.214402	9.615966	6.0201936	1.9849529	0.0	7.375	-41.6875	-33.625	0.6903517	0.53582346	0.32260016
1276888659265	-0.9942854	7.8589406	5.5162406	-0.15364742	0.0	7.375	-43.25	-31.3125	-1.2405527	0.6082758	0.12584786
1276888659305	-1.1168685	7.246025	2.7649305	-1.9710193	0.0	7.125	-44.25	-30.0625	-0.024436194	0.36063275	0.15293181
1276888659335	-1.9885708	7.3958488	0.5720546	-2.126791	0.0	7.875	-44.5	-28.5	0.15627886	0.0745567	0.2626645
1276888659365	-2.1383946	6.469665	1.4982382	-2.8299737	0.0	7.875	-44.5	-28.25	0.34619614	0.21643542	0.31922212
1276888659395	-1.2666923	6.891896	3.336985	-2.0453224	0.0	7.625	-44.5	-28.5	0.08596419	0.4444377	0.18176587
1276888659435	-0.23154591	8.471856	3.5276701	-0.6267586	0.0	7.375	-44.75	-29.0	-0.5742265	0.39443034	0.027324388
1276888659475	-0.23154591	9.384419	1.920469	-0.22494125	0.0	7.625	-45.5625	-29.8125	-0.31358534	0.20179757	0.024668435
1276888659515	-1.607201	8.853226	2.8330324	-0.3732643	0.0	8.375	-45.5625	-30.0625	-0.0069085252	0.30502787	0.17958272
1276888659555	-4.0180025	10.310603	5.5571017	2.576171	0.0	8.875	-45.25	-30.5625	0.8657414	0.4653942	0.3715923
1276888659595	-2.1111538	11.032481	4.630918	2.3431654	0.0	9.8125	-44.25	-31.3125	-0.112610936	0.39104128	0.18907233
1276888659635	0.14982383	8.689782	1.3075534	-1.0177679	0.0	10.5625	-43.25	-31.5625	-0.42768222	0.14932792	-0.017239671
1276888659675	-0.84446156	5.7477865	1.7570249	-3.737276	0.0	11.3125	-41.9375	-32.3125	-0.2696257	0.2936943	0.14587583
1276888659715	-3.568531	5.053149	1.56634	-3.425259	0.0	13.25	-40.6875	-32.8125	0.5262096	0.24798833	0.61487454
1276888659755	-3.445948	4.903325	1.7570249	-3.5613089	0.0	15.0	-40.1875	-33.125	0.49417847	0.28518364	0.6125878
1276888659803	-0.88532263	5.09401	3.173541	-3.7400122	0.0	15.4375	-39.4375	-33.125	-0.913785	0.5505003	0.17207798
1276888659836	-1.8387469	5.325556	5.325556	-2.053968	0.0	16.9375	-39.4375	-33.125	-2.609495	0.7572571	0.33245352
1276888659875	-3.486809	5.9793324	5.407278	-1.0232048	0.0	17.9375	-39.1875	-33.375	1.5948067	0.6631744	0.5279328
1276888659905	-6.1700177	7.8589406	5.47538	1.5868502	0.0	19.125	-38.625	-32.8125	0.8032709	0.5013051	0.6655865
1276888659936	-7.164303	9.00305	7.4639506	3.908039	0.0	21.0625	-38.125	-33.375	1.003343	0.5754714	0.67215264
1276888659975	-3.8681788	7.9270425	7.4639506	1.7480621	0.0	21.8125	-37.375	-33.625	-2.1730661	0.702288	0.45397943
1276888660015	-0.10896278	6.3607025	5.8567495	-1.1595736	0.0	22.3125	-37.125	-33.375	-1.6098276	0.74409974	0.017128946
1276888660055	0.19068487	13.906375	5.366417	5.100464	0.0	23.5625	-36.875	-32.3125	-0.95609534	0.36825752	-0.013711188
1276888660095	-3.568531	11.563675	3.5957718	2.8180313	0.0	24.75	-36.125	-31.5625	-0.61639833	0.28881946	0.2993264
1276888660135	1.920469	2.7921712	-3.8273177	-4.694627	0.0	26.6875	-35.8125	-29.8125	-0.94540894	-0.84608287	-0.60249436
1276888660175	-0.61291564	10.460427	-6.0201936	2.2780075	0.0	29.125	-35.5625	-27.0	-0.5718418	-0.52148503	0.05852683
1276888660205	-7.9270425	14.818938	-9.343558	9.422001	0.0	30.375	-35.3125	-24.9375	-0.22678922	-0.5074138	0.49119684
1276888660245	-8.662541	10.310603	-4.440233	4.373048	0.0	31.125	-36.625	-22.125	-0.0075196913	-0.31849772	0.69875276
1276888660285	-5.407278	7.668256	5.47538	1.0570774	0.0	31.625	-38.375	-18.0625	-2.763475	0.52823025	0.61417466
1276888660325	-4.440233	6.8237944	0.27240697	-1.6608505	0.0	31.625	-40.1875	-13.9375	-0.3590672	0.03344764	0.57686615
1276888660355	-5.012288	6.5513873	-0.88532263	-1.510416	0.0	31.375	-41.4375	-9.375	0.017503547	-0.10691738	0.6530781
1276888660385	-4.440233	6.6331096	1.3756552	-1.7068825	0.0	31.875	-42.5	-5.0625	-2.5255642	0.17066614	0.5898956
1276888660425	-4.671779	5.9793324	0.040861044	-2.2185273	0.0	32.8125	-42.5	-1.75	0.20923188	0.0053848946	0.6632472
1276888660455	-7.246025	6.742072	-0.53119355	0.10508919	0.0	32.5625	-42.5	0.8125	1.3486506	-0.05361805	0.8214099
1276888660495	-3.486809	8.19945	-1.6480621	-0.74547386	0.0	33.0625	-42.75	2.375	-1.0883371	-0.18289973	0.40208167
1276888660535	0.84446156	9.575105	-2.3699405	0.093468666	0.0	32.8125	-42.5	4.9375	-1.44379	-0.24173245	-0.08796586
1276888660575	-7.8861814	9.765789	-1.4165162	2.8254128	0.0	31.125	-42.75	6.9375	1.9230053	-0.11237292	0.6793164
1276888660615	-7.8861814	8.471856	-0.42223078	1.7753391	0.0	30.375	-43.0	8.5	2.3216028	-0.03646389	0.74961
1276888660655	-6.66035	9.656827	-0.42223078	1.9318695	0.0	29.375	-43.25	10.5	3.0981612	-0.035977438	0.60378224
1276888660685	-9.956474	10.147159	-0.14982383	4.4101934	0.0	29.375	-43.5	10.75	2.3920443	-0.010538667	0.77591336
1276888660715	-12.14935	9.656827	0.53119355	5.7221355	0.0	29.875	-43.5	9.75	2.2089818	0.034213703	0.8992078
1276888660755	-5.938472	8.962189	2.3426998	1.1967363	0.0	31.625	-42.75	7.1875	-2.992699	0.21454936	0.58519167
1276888660795	-2.982856	12.912089	-1.6480621	3.5475845	0.0	33.5625	-41.6875	3.125	-1.4494355	-0.12372663	0.22702995
1276888660835	-5.6252036	16.249075	-5.09401	8.127237	0.0	35.0	-40.4375	-2.5	-0.8770896	-0.28800902	0.33327308
1276888660875	-6.238119	12.489859	0.10896278	4.1548176	0.0	37.0	-38.625	-7.5625	-1.1461357	0.007804616	0.46321133
1276888660915	-6.3607025	9.425281	-0.53119355	1.5765219	0.0	37.25	-37.125	-11.9375	-0.6142892	-0.046681765	0.5936504
1276888660955	-5.9793324	8.19945	-3.9090397	1.0682745	0.0	37.0	-35.0625	-16.5	-0.26966047	-0.36768317	0.6300791
1276888660985	-4.7943625	4.3312707	-3.5957718	-2.4123693	0.0	36.5	-33.0625	-20.0625	0.0015754515	-0.50784	0.83610094
1276888661025	-1.3075534	3.0645783	-3.1054392	-5.2519727	0.0	35.25	-30.75	-24.6875	-0.41044426	-0.7502384	0.40328145
1276888661065	2.1111538	3.1463003	-1.879608	-5.577099	0.0	33.3125	-28.4375	-29.25	-0.99169904	-0.4605032	-0.5909936
1276888661095	-1.0351465	5.284695	-1.3075534	-4.2650595	0.0	31.125	-27.6875	-32.8125	-0.5658884	-0.23819885	0.19342732
1276888661125	-2.4516625	5.6660647	0.42223078	-3.6184983	0.0	28.4375	-27.4375	-35.375	-0.43399212	0.06828519	0.408368
1276888661165	-0.5720546	4.1814466	3.405087	-4.3838873	0.0	26.0	-28.4375	-36.6875	-1.1947842	0.67888385	0.13596378
1276888661195	-0.6537767	6.469665	7.43671	0.07204628	0.0	25.0	-29.4375	-36.4375	-1.5687737	0.85230976	0.10071075
1276888661235	-8.267551	9.997335	11.727119	7.6811867	0.0	24.75	-30.75	-35.625	1.6472287	0.735	0.6909744
1276888661275	-6.4015636	8.240311	11.495573	5.718521	0.0	25.25	-31.25	-35.375	-3.0135043	0.83373576	0.6604707
1276888661305	-1.7978859	4.0588636	7.3958488	-1.1807966	0.0	25.5	-31.5	-34.625	-2.5504584	1.0302057	0.4169782
1276888661345	-2.2609777	8.921328	5.407278	0.86765385	0.0	25.75	-32.25	-34.875	-0.9963337	0.5312015	0.24820909
1276888661375	-6.428804	16.08563	0.7218784	7.5311165	0.0	26.4375	-32.0	-34.375	-0.3697534	0.041648224	0.38021436
1276888661405	-0.38136974	5.5571017	-3.255263	-3.3550177	0.0	27.4375	-32.0	-33.375	-0.50205743	-0.52887714	0.06852002
1276888661435	4.399372	4.1814466	-3.8273177	-2.6311827	0.0	29.625	-31.5	-31.8125	-1.0121163	-0.5626024	-0.8107895
1276888661465	-2.6014864	9.765789	-11.563675	5.5509844	0.0	31.625	-31.75	-28.75	-0.43520346	-0.85254765	0.26034194
1276888661505	-10.56939	15.050485	-8.771504	10.569031	0.0	32.8125	-32.75	-25.6875	-0.18530767	-0.44503435	0.61224276
1276888661545	-10.882658	9.656827	2.4516625	4.947915	0.0	34.3125	-35.0625	-20.0625	0.28801012	0.16693726	0.84500915
1276888661585	-5.202973	8.689782	-3.173541	0.8072367	0.0	34.5625	-37.375	-14.5	-0.3489351	-0.30364344	0.53949696
1276888661615	-2.982856	9.193735	1.0351465	-0.08586216	0.0	35.0	-39.1875	-10.625	-1.3193655	0.10669021	0.31372932
1276888661655	-1.7978859	7.8861814	1.920469	-1.4932604	0.0	34.75	-40.9375	-6.5625	-1.7550999	0.23311475	0.22414835
1276888661685	-3.5276701	5.7886477	0.38136974	-3.017074	0.0	33.5625	-41.4375	-4.0	-1.4273312	0.05619947	0.5473112
1276888661725	-4.862464	3.486809	-1.9477097	-3.5141973	0.0	32.8125	-42.75	-2.5	0.7054093	-0.31469983	0.9486945
1276888661765	-3.9771416	4.903325	-3.5276701	-2.5744505	0.0	31.375	-43.75	0.0625	0.121452466	-0.5095366	0.6814794
1276888661805	-3.6774938	7.7772183	-2.1792557	-0.93206596	0.0	30.375	-44.25	1.875	-0.6519381	-0.24809884	0.44169647
1276888661845	-6.3198414	9.084772	1.56634	1.3704205	0.0	29.625	-45.25	3.875	3.0090764	0.14060149	0.607802
1276888661885	-10.460427	8.771504	1.0760075	3.8870573	0.0	28.4375	-45.8125	6.1875	2.1153312	0.078657866	0.87299216
1276888661915	-11.3321295	9.997335	-1.6480621	5.394665	0.0	27.9375	-46.3125	7.6875	1.6962602	-0.10862928	0.84789646
1276888661955	-14.09706	10.119919	-0.84446156	7.5672665	0.0	27.6875	-46.3125	7.6875	1.8115438	-0.048624296	0.9481746
1276888661985	-3.5276701	11.141444	6.0882955	3.370738	0.0	28.4375	-45.25	5.1875	-2.7005699	0.48027825	0.30663928
1276888662025	-2.1111538	17.393185	-1.7570249	7.8020687	0.0	30.125	-44.0	1.625	-1.4453117	-0.09994785	0.12078736
1276888662065	-5.012288	18.850561	-7.6273947	11.137175	0.0	32.3125	-41.1875	-3.75	-0.7765429	-0.3727559	0.25988272
1276888662105	-5.366417	13.211738	1.0351465	4.490902	0.0	34.0625	-39.1875	-8.375	-1.2928745	0.07246366	0.38582733
1276888662145	-6.2108784	9.915613	-1.920469	2.0501032	0.0	35.25	-37.125	-12.6875	-0.45753723	-0.1626893	0.55958647
1276888662175	-6.851035	5.7886477	-5.09401	0.50809956	0.0	36.0	-34.8125	-18.0625	0.08294242	-0.5165197	0.86925286
1276888662205	-3.9090397	2.8738933	-4.4810944	-3.2021017	0.0	35.25	-33.0625	-22.125	0.117429614	-0.7456999	0.9368401
1276888662245	2.4925237	2.5606253	-5.134871	-3.550743	0.0	34.0625	-31.0	-27.0	-1.2724793	-0.96281654	-0.77192193
1276888662285	2.2609777	2.6832085	-4.440233	-4.1473837	0.0	32.3125	-29.4375	-31.5625	-1.1245955	-0.9020429	-0.70020545
1276888662315	0.84446156	2.0294318	-2.8330324	-6.2208753	0.0	29.875	-28.1875	-34.125	-0.8699003	-0.910932	-0.3943145
1276888662355	-1.920469	3.2961242	6.891896	-1.9294128	0.0	27.9375	-28.6875	-35.375	-2.6196554	1.0652558	0.5275605
1276888662385	-7.8589406	9.615966	16.43976	10.796637	0.0	26.4375	-29.1875	-36.1875	-2.9355528	0.9238354	0.6851893
1276888662425	-5.9793324	11.75436	12.598822	8.431982	0.0	24.75	-29.4375	-36.1875	-1.5375383	0.7625627	0.47057587
1276888662466	-1.7297841	9.00305	11.536434	4.928898	0.0	23.5625	-30.5	-36.6875	-1.8026793	0.8993106	0.18981995
1276888662505	-9.697687	12.639683	5.012288	6.894541	0.0	22.0625	-29.6875	-38.4375	0.022183865	0.30481386	0.6544446
1276888662545	11.413852	3.2961242	-3.2961242	2.522376	0.0	22.0625	-29.1875	-38.9375	-0.7875161	-0.27063844	-1.289662
1276888662585	-2.0294318	11.985906	-7.164303	4.3039055	0.0	23.0625	-29.1875	-37.9375	-0.34800258	-0.5325438	0.16772743
1276888662615	-9.00305	12.489859	-10.419566	8.784176	0.0	26.0	-29.4375	-35.125	-0.075902805	-0.594951	0.6245687
1276888662645	-11.876944	12.367276	-9.575105	9.832441	0.0	30.375	-31.25	-29.25	-0.005611329	-0.5092853	0.76517624
1276888662675	-13.565866	12.53072	0.9942854	8.687681	0.0	33.0625	-33.0625	-22.625	0.09202891	0.053787563	0.8250434
1276888662705	-5.938472	9.656827	-3.1463003	1.9585085	0.0	35.5	-35.0625	-16.75	-0.3873866	-0.27071995	0.55134016
1276888662745	-4.7943625	9.425281	-1.3756552	0.8570385	0.0	36.0	-37.125	-12.1875	-0.6906343	-0.1293642	0.47055992
1276888662785	-2.982856	7.3958488	1.3075534	-1.7254562	0.0	35.0	-38.875	-9.625	-1.4847038	0.16251644	0.38336077
1276888662825	-1.6889231	6.510526	2.3699405	-2.6753087	0.0	34.5625	-40.4375	-7.0625	-1.9479889	0.33877018	0.2538193
