#timestamp	accel_x	accel_y	accel_z	accel_mag	temperature	mag_x	mag_y	mag_z	azimuth	pitch	roll
1277136594977	-0.23154591	4.0588636	9.534244	0.5581846	0.0	-8.4375	-35.0	-37.3125	2.5935466	1.1677349	0.056985218
1277136595014	-0.14982383	3.8681788	9.152874	0.13117409	0.0	-7.9375	-34.5	-38.375	2.6303854	1.1706754	0.038713045
1277136595044	0.23154591	4.140586	8.580819	-0.2762499	0.0	-7.4375	-34.5	-38.875	2.7784271	1.120603	-0.05586287
1277136595084	-0.10896278	3.8273177	8.853226	-0.16093445	0.0	-7.4375	-35.0	-38.625	2.6713078	1.1626049	0.028462064
1277136595114	-0.5720546	3.990762	9.847511	0.8341627	0.0	-7.4375	-35.25	-38.625	2.50375	1.1822143	0.14237484
1277136595154	-0.08172209	3.5276701	9.275456	0.11732197	0.0	-7.1875	-35.25	-39.125	2.740532	1.2072778	0.023161879
1277136595184	0.53119355	3.9499009	8.962189	0.0017499924	0.0	-7.4375	-35.0	-38.875	2.9819229	1.152361	-0.13368072
1277136595214	0.95342433	4.140586	8.689782	-0.13370991	0.0	-7.4375	-35.75	-38.375	-3.0930645	1.1160215	-0.2263183
1277136595254	0.92618364	4.2904096	8.730643	-0.034773827	0.0	-7.9375	-35.75	-37.875	3.1278987	1.1049595	-0.21261045
1277136595294	0.84446156	3.990762	9.084772	0.15188313	0.0	-8.9375	-36.25	-36.3125	3.0770187	1.1487682	-0.20852804
1277136595324	0.50395286	4.671779	8.921328	0.27648354	0.0	-8.9375	-37.25	-35.8125	2.8603096	1.0860159	-0.10745621
1277136595354	0.50395286	4.862464	8.962189	0.40208912	0.0	-8.6875	-37.5	-35.5625	2.8599153	1.0714458	-0.10327274
1277136595384	0.19068487	4.7126403	9.234595	0.56268406	0.0	-8.6875	-38.0625	-35.0625	2.7682977	1.098592	-0.040440366
1277136595425	-0.14982383	4.8216033	9.00305	0.40732098	0.0	-8.1875	-38.0625	-35.8125	2.6226006	1.0789124	0.031063452
1277136595464	-0.84446156	4.5219555	9.80665	1.02532	0.0	-8.4375	-37.8125	-35.5625	2.4151418	1.1321871	0.18462043
1277136595504	-0.5720546	4.5219555	9.152874	0.41834068	0.0	-8.1875	-37.0	-36.3125	2.4604928	1.1087617	0.12583758
1277136595535	1.4165162	4.671779	8.008764	-0.42729282	0.0	-7.4375	-36.5	-37.0625	-2.8680117	1.0233785	-0.2943964
1277136595574	-0.42223078	4.2086873	9.112013	0.23925018	0.0	-6.9375	-36.75	-37.0625	2.5835183	1.136195	0.09998907
1277136595614	-1.0760075	4.5219555	10.800936	1.9520102	0.0	-6.1875	-36.5	-38.125	2.413501	1.1644005	0.23360744
1277136595655	-4.5628166	3.214402	9.507003	1.2176313	0.0	-5.6875	-36.0	-38.875	1.3949336	1.0399312	0.9570716
1277136595704	2.982856	4.5628166	8.962189	0.6832285	0.0	-2.125	-36.0	-39.375	-1.907645	1.0243282	-0.5789938
1277136595747	-3.636633	4.903325	8.894087	0.980958	0.0	1.875	-35.5	-39.375	1.6796844	0.9692695	0.63814646
1277136595784	-3.1463003	3.445948	9.697687	0.95526886	0.0	5.4375	-35.75	-39.375	2.0335102	1.1223258	0.7399749
1277136595824	-1.879608	3.8273177	8.730643	-0.090405464	0.0	8.9375	-36.25	-38.375	2.6785047	1.1164805	0.45650488
1277136595864	-2.2609777	3.8273177	8.771504	0.026948929	0.0	8.9375	-36.5	-37.625	2.5169864	1.1017357	0.5335883
1277136595914	-2.1111538	3.6774938	8.730643	-0.10072136	0.0	8.4375	-36.5	-37.625	2.540075	1.1186616	0.52113813
1277136595947	-1.525479	3.636633	8.812365	-0.15211964	0.0	8.4375	-36.25	-37.625	2.809904	1.1500145	0.39718217
1277136595984	-1.525479	3.7864566	9.275456	0.3273735	0.0	8.1875	-36.25	-38.125	2.8258178	1.1561993	0.3829847
1277136596024	-1.6889231	4.0180025	9.343558	0.5034847	0.0	7.9375	-36.0	-38.125	2.7644866	1.134327	0.39791614
1277136596064	-2.3426998	3.718355	9.724928	0.8652115	0.0	8.1875	-36.0	-38.625	2.4824023	1.1463531	0.56221294
1277136596104	-2.5333846	3.568531	9.80665	0.9321966	0.0	7.9375	-36.0	-38.375	2.3896997	1.1510539	0.6173551
1277136596145	-1.920469	3.9090397	9.466142	0.61336136	0.0	7.6875	-36.75	-38.125	2.6434686	1.1395798	0.4566547
1277136596184	-1.920469	4.099725	9.152874	0.4046688	0.0	7.6875	-37.25	-38.125	2.6435223	1.1114577	0.43808118
1277136596224	-1.879608	3.6774938	9.193735	0.27212238	0.0	7.6875	-38.0625	-37.625	2.6306498	1.1485921	0.47249696
1277136596264	-1.7297841	3.8681788	8.894087	0.04523945	0.0	7.6875	-38.8125	-36.8125	2.7064335	1.1261895	0.4205089
1277136596304	-1.6480621	4.0588636	8.812365	0.034501076	0.0	7.9375	-39.0625	-36.0625	2.7734122	1.1094651	0.38570264
1277136596344	-1.7297841	4.3312707	8.730643	0.09164238	0.0	8.1875	-39.3125	-35.5625	2.7741199	1.0801644	0.37996405
1277136596384	-2.070293	4.2904096	9.00305	0.37905693	0.0	8.1875	-39.0625	-35.3125	2.6451318	1.0841165	0.44958207
1277136596415	-2.4516625	4.2086873	9.384419	0.7664776	0.0	8.9375	-38.5625	-35.3125	2.5474546	1.092049	0.5274706
1277136596455	-2.1792557	4.2495484	9.302697	0.6503086	0.0	8.6875	-38.8125	-35.5625	2.635533	1.0965078	0.47385135
1277136596496	-1.7978859	4.1814466	8.853226	0.14807224	0.0	8.9375	-39.0625	-35.3125	2.7768903	1.0959201	0.4060706
1277136596534	-1.4165162	4.1814466	8.62168	-0.12035084	0.0	8.6875	-39.8125	-35.3125	2.9175544	1.0975431	0.3266286
1277136596564	-1.1168685	4.5628166	8.349273	-0.22661686	0.0	7.9375	-40.5625	-35.3125	3.0383494	1.0583112	0.24005605
1277136596594	-1.1168685	4.862464	8.471856	0.025099754	0.0	7.9375	-40.5625	-35.0625	3.0662253	1.0385779	0.22577572
1277136596634	-1.525479	4.399372	9.234595	0.53546333	0.0	7.6875	-40.3125	-35.5625	2.8560498	1.1037716	0.3337759
1277136596674	-2.1383946	3.9499009	10.038197	1.1906147	0.0	7.1875	-40.0625	-35.5625	2.5906723	1.1500643	0.4962006
1277136596714	-2.1383946	3.9499009	9.466142	0.6710539	0.0	7.4375	-39.8125	-35.5625	2.5766623	1.1277634	0.49620053
1277136596754	-1.525479	4.099725	8.539958	-0.21156216	0.0	7.6875	-39.3125	-35.8125	2.809348	1.0974206	0.35621965
1277136596794	-1.3075534	4.099725	8.730643	-0.073122025	0.0	7.4375	-39.0625	-36.0625	2.900615	1.1128583	0.30873826
1277136596825	-1.4982382	4.0588636	9.043911	0.21888828	0.0	8.1875	-39.0625	-35.5625	2.860781	1.124582	0.35361227
1277136596864	-1.56634	4.0180025	9.043911	0.21283531	0.0	7.4375	-38.8125	-36.0625	2.790312	1.1258466	0.37170893
1277136596909	-1.334794	4.140586	8.921328	0.11888313	0.0	6.6875	-39.0625	-36.3125	2.8588543	1.1170837	0.31184986
1277136596944	-1.4982382	4.140586	9.00305	0.21552944	0.0	6.6875	-38.8125	-36.3125	2.7903068	1.1159136	0.34718534
1277136596974	-1.7297841	3.8273177	9.234595	0.33821392	0.0	6.1875	-38.0625	-37.3125	2.6432078	1.1439428	0.4244804
1277136597014	-1.7570249	3.6774938	9.466142	0.4996071	0.0	6.6875	-37.8125	-37.3125	2.6511908	1.164232	0.4457123
1277136597044	-1.607201	3.990762	9.466142	0.5912876	0.0	6.6875	-37.25	-37.875	2.7379982	1.1442171	0.38285792
1277136597084	-1.4165162	4.0588636	9.507003	0.627141	0.0	6.4375	-37.25	-37.875	2.816339	1.1461253	0.3357777
1277136597114	-1.4573772	4.0180025	9.656827	0.75377655	0.0	5.9375	-37.5	-37.625	2.7766745	1.1541106	0.34795424
1277136597144	-1.525479	4.0588636	9.575105	0.7044916	0.0	4.625	-38.3125	-37.625	2.6850927	1.1455766	0.35950598
1277136597184	-1.3756552	3.9090397	9.275456	0.35243988	0.0	4.375	-38.8125	-37.625	2.7176726	1.1506283	0.33838105
1277136597224	-1.1849703	3.8273177	8.921328	-0.026947021	0.0	4.125	-38.8125	-37.875	2.771278	1.148692	0.3002485
1277136597264	-0.8036005	4.0180025	8.430995	-0.43265438	0.0	3.625	-39.0625	-38.125	2.9223144	1.1184006	0.19739556
1277136597298	-0.46309182	4.2495484	8.430995	-0.35388374	0.0	3.625	-38.8125	-38.375	3.1070852	1.1015463	0.10854603
1277136597334	-0.46309182	4.440233	8.689782	-0.03718567	0.0	3.125	-38.5625	-38.375	3.0887594	1.0962148	0.10391878
1277136597364	-0.50395286	4.5219555	9.043911	0.3173008	0.0	2.625	-38.8125	-38.375	3.0451632	1.1046753	0.1109878
1277136597394	-0.50395286	4.5219555	9.275456	0.5246687	0.0	2.625	-38.3125	-38.375	3.0486965	1.114748	0.1109878
1277136597424	-0.6537767	4.3312707	9.466142	0.62384224	0.0	2.375	-38.0625	-38.125	2.9630594	1.1374009	0.14981246
1277136597464	-0.8036005	4.2086873	9.507003	0.62128925	0.0	2.375	-37.5	-37.875	2.8918197	1.147368	0.1886676
1277136597504	-0.88532263	4.140586	9.534244	0.62551403	0.0	2.125	-37.25	-37.625	2.8410652	1.152858	0.21064399
1277136597534	-0.9942854	3.9090397	9.507003	0.52060986	0.0	1.875	-37.5	-37.625	2.772268	1.1695466	0.24907365
1277136597574	-1.1168685	3.9090397	9.466142	0.495574	0.0	2.125	-37.0	-37.875	2.7234921	1.1651422	0.27829966
1277136597614	-1.3075534	3.5957718	9.615966	0.5425558	0.0	2.125	-37.0	-37.875	2.7234921	1.1651422	0.27829966
1277136597644	-1.3756552	3.5276701	9.534244	0.45194054	0.0	2.375	-36.5	-38.375	2.597044	1.1927599	0.3718226
1277136597674	-1.1849703	3.636633	9.275456	0.22646236	0.0	2.375	-35.75	-38.875	2.6698627	1.1796811	0.3149939
1277136597714	-0.88532263	3.6774938	9.112013	0.059277534	0.0	2.375	-35.5	-39.375	2.8076463	1.1773256	0.23624527
1277136597744	-0.61291564	3.5276701	9.193735	0.059700966	0.0	2.125	-35.5	-39.625	2.930079	1.1994158	0.17202786
1277136597774	-0.8036005	3.5276701	9.275456	0.14947033	0.0	1.875	-36.0	-39.625	2.822832	1.1988826	0.22397718
1277136597804	-1.0760075	3.445948	9.575105	0.42638397	0.0	2.125	-35.75	-39.625	2.7061589	1.210253	0.3026598
1277136597845	-1.334794	3.173541	9.888372	0.6639252	0.0	2.125	-35.5	-39.875	2.5753608	1.2357538	0.39813864
1277136597874	-1.3075534	2.8330324	9.888372	0.56232643	0.0	2.125	-35.0	-40.375	2.5511372	1.2651403	0.43240777
1277136597904	-1.1168685	3.1463003	9.425281	0.19247532	0.0	2.125	-34.25	-40.875	2.6449585	1.2303643	0.34110296
1277136597945	-1.1441092	3.255263	9.234595	0.051517487	0.0	1.625	-34.5	-40.625	2.6081493	1.2132137	0.33797887
1277136597984	-0.9942854	3.336985	9.384419	0.20291519	0.0	0.875	-34.5	-40.625	2.6565392	1.215505	0.28958344
1277136598014	-1.2258313	3.214402	9.534244	0.32926846	0.0	0.875	-35.0	-40.375	2.5501513	1.224509	0.3643313
1277136598044	-1.3075534	3.255263	9.656827	0.46762562	0.0	0.625	-35.25	-40.125	2.5126457	1.2223473	0.38194835
1277136598074	-1.3756552	3.2961242	9.507003	0.34913445	0.0	0.875	-35.0	-40.125	2.4848826	1.211422	0.3953778
1277136598104	-1.334794	3.3778462	9.302697	0.17992592	0.0	1.625	-35.5	-39.875	2.5401514	1.1985706	0.37632814
1277136598134	-1.4165162	3.336985	9.507003	0.36807823	0.0	1.375	-35.5	-39.875	2.498676	1.2064985	0.40143844
1277136598169	-1.3075534	3.336985	9.466142	0.31525707	0.0	1.375	-35.5	-39.625	2.549437	1.2088608	0.37344936
1277136598204	-1.2258313	3.3778462	9.425281	0.2803917	0.0	1.375	-35.75	-39.625	2.5900817	1.2065567	0.3481233
1277136598234	-1.334794	3.336985	9.534244	0.38250828	0.0	1.625	-35.5	-39.375	2.5537176	1.2103071	0.38050637
1277136598274	-1.525479	3.2961242	9.697687	0.5488634	0.0	2.125	-34.75	-39.375	2.4885828	1.2124434	0.43345544
1277136598304	-1.4165162	3.173541	9.615966	0.41805935	0.0	2.375	-34.5	-39.875	2.530738	1.2239914	0.41981605
1277136598345	-1.1168685	3.255263	9.425281	0.22729492	0.0	2.625	-34.25	-40.375	2.6806848	1.2206993	0.3305113
1277136598384	-1.1441092	3.336985	9.384419	0.2189064	0.0	2.375	-33.75	-40.875	2.6493652	1.2112308	0.33029738
1277136598414	-1.2666923	3.2961242	9.466142	0.29665565	0.0	1.625	-34.0	-40.875	2.5529082	1.2137554	0.3668969
1277136598444	-1.3075534	3.214402	9.575105	0.37788296	0.0	1.875	-34.25	-40.625	2.5507262	1.2231035	0.38633722
1277136598484	-1.3075534	3.0645783	9.724928	0.4732113	0.0	1.875	-34.0	-40.625	2.5451608	1.2407193	0.40328148
1277136598514	-1.4573772	3.0645783	9.615966	0.39052486	0.0	2.125	-34.25	-40.375	2.484874	1.2315414	0.44390154
1277136598554	-1.4573772	3.0645783	9.656827	0.42906666	0.0	2.375	-34.5	-40.625	2.4978766	1.2328699	0.44390154
1277136598595	-1.2258313	3.173541	9.466142	0.25226974	0.0	2.125	-34.0	-40.625	2.593693	1.2257783	0.368611
1277136598634	-1.1168685	3.1463003	9.302697	0.07701206	0.0	2.125	-34.0	-40.625	2.593693	1.2257783	0.368611
1277136598667	-1.1849703	3.0645783	9.425281	0.17491817	0.0	1.625	-34.25	-41.125	2.5788815	1.2353654	0.36895952
1277136598704	-1.334794	2.9147544	9.656827	0.3684063	0.0	2.125	-33.75	-41.375	2.5201726	1.2502664	0.4294404
1277136598734	-1.3756552	2.8330324	9.724928	0.41551876	0.0	1.875	-34.0	-41.625	2.484141	1.2576097	0.45204273
1277136598774	-1.3075534	2.9556155	9.765789	0.4800396	0.0	1.875	-33.5	-41.375	2.5278854	1.2511978	0.41651276
1277136598815	-1.1849703	2.9147544	9.724928	0.41461086	0.0	2.125	-33.25	-41.625	2.5926418	1.257884	0.3861333
1277136598854	-1.0760075	3.0645783	9.425281	0.16257	0.0	1.875	-33.0	-41.125	2.6378827	1.2389367	0.33766434
1277136598894	-1.2258313	2.7649305	9.615966	0.27374172	0.0	2.375	-32.75	-41.375	2.5647786	1.2660655	0.41730982
1277136598934	-1.3756552	2.8330324	9.615966	0.31191158	0.0	1.875	-33.25	-41.625	2.4729147	1.2542922	0.4520427
1277136598974	-1.56634	2.9556155	9.765789	0.51612663	0.0	1.375	-33.5	-40.875	2.3861864	1.2407979	0.48732263
1277136599004	-0.7218784	3.568531	9.956474	0.7946186	0.0	1.375	-34.5	-41.125	2.8437116	1.2202277	0.19959658
1277136599044	-0.9942854	3.636633	9.765789	0.6616039	0.0	1.125	-35.25	-40.625	2.6999156	1.2023711	0.26688576
1277136599084	-1.1849703	3.7864566	9.615966	0.5956669	0.0	1.125	-35.75	-39.875	2.618177	1.1794755	0.30329445
1277136599114	-0.95342433	3.9499009	9.00305	0.07088184	0.0	1.125	-35.75	-39.375	2.7070732	1.1468376	0.23684876
1277136599155	-0.7627395	3.718355	9.112013	0.06435394	0.0	0.875	-35.5	-38.875	2.7938483	1.1760888	0.20232163
1277136599214	-0.9125633	2.982856	9.888372	0.56205845	0.0	-0.125	-34.75	-39.125	2.6642344	1.2652223	0.29689384
1277136599254	-0.5720546	3.0645783	9.956474	0.62648296	0.0	-0.375	-34.5	-40.375	2.8218722	1.2673521	0.1845428
1277136599294	-0.84446156	2.9147544	9.724928	0.38075066	0.0	-0.875	-34.0	-40.875	2.6395524	1.2683258	0.28199878
1277136599341	-0.53119355	2.8330324	9.765789	0.3756323	0.0	-0.875	-34.0	-41.625	2.8010998	1.2837923	0.18534794
1277136599374	-0.9125633	3.0237172	9.575105	0.27592278	0.0	-0.125	-34.0	-41.625	2.6330707	1.2521768	0.293109
1277136599422	-1.1849703	2.9556155	9.534244	0.24529552	0.0	0.125	-34.0	-41.125	2.504753	1.2484583	0.38130063
1277136599494	-2.6014864	3.718355	8.689782	-0.0032730103	0.0	1.625	-34.0	-41.625	1.9023393	1.0895247	0.61048007
1277136599534	-3.336985	2.8738933	8.158588	-0.5353346	0.0	4.125	-34.5	-40.875	1.7041698	1.0758238	0.8598219
1277136599584	-4.099725	2.9147544	5.284695	-2.5106554	0.0	7.6875	-36.25	-38.375	1.3096491	0.8100596	0.95275015
1277136599626	-5.6252036	3.5276701	2.1111538	-2.839273	0.0	12.9375	-38.8125	-32.0625	0.8918611	0.30784488	1.010675
1277136599664	-6.782933	3.5276701	0.14982383	-2.1597495	0.0	18.25	-42.3125	-21.5625	0.94918954	0.019594006	1.0912138
1277136599714	-5.47538	3.214402	-0.95342433	-3.3862777	0.0	20.25	-44.3125	-7.75	1.118433	-0.14905113	1.0399425
1277136599744	-3.718355	3.255263	-2.7240696	-4.1636496	0.0	19.75	-44.8125	7.0	0.934707	-0.50377417	0.8517071
1277136599775	-2.4925237	2.6832085	-3.486809	-4.74996	0.0	17.75	-43.8125	18.5625	0.77929044	-0.76085883	0.74857277
1277136599816	-3.0237172	3.0237172	-3.9090397	-4.0130053	0.0	16.25	-41.8125	25.3125	1.1079977	-0.740574	0.7853982
1277136599856	-9.697687	5.8976107	-4.0180025	2.2337523	0.0	19.5	-39.8125	24.5625	1.9916803	-0.34023643	1.0244086
1277136599894	-15.322891	5.09401	1.7978859	6.4405746	0.0	27.3125	-37.0	13.0625	2.145061	0.11088513	1.249846
1277136599959	-7.8589406	-3.336985	11.223166	4.2950478	0.0	31.5625	-29.25	-5.25	1.8403074	0.92044884	1.9723366
1277136599994	-4.8216033	-2.6423476	12.721405	4.052066	0.0	33.5625	-20.0	-23.0625	1.8332369	1.1628445	2.0721202
1277136600032	-5.7477865	-0.19068487	10.378705	2.0588846	0.0	34.3125	-11.9375	-35.3125	2.3353572	1.064803	1.6039596
1277136600084	-8.240311	3.445948	2.6832085	-0.4805107	0.0	35.375	-6.9375	-34.8125	-0.30302247	0.29183316	1.1747149
1277136600114	-10.56939	1.3075534	-0.8036005	0.8735876	0.0	38.375	-10.1875	-19.0625	0.2409855	-0.07531299	1.4477104
1277136600149	-9.534244	-0.46309182	-2.1111538	-0.030493736	0.0	40.125	-15.25	-0.75	1.0778826	-0.21766394	1.6193296
1277136600184	-12.408136	-0.6537767	-4.3312707	3.351966	0.0	39.875	-19.75	14.5625	1.6159538	-0.3354123	1.623437
1277136600214	-13.824653	-0.23154591	-6.1700177	5.3341475	0.0	37.875	-23.5	21.0625	1.7335483	-0.41972512	1.5875435
1277136600244	-12.176591	-0.95342433	-3.9090397	3.0175056	0.0	38.125	-25.25	15.5625	1.70627	-0.30974784	1.6489366
1277136600274	-8.730643	-1.0760075	-1.2666923	-0.919219	0.0	39.875	-26.5	4.75	1.5554967	-0.14301325	1.6934229
1277136600304	-6.2789803	-0.5720546	0.040861044	-3.501532	0.0	41.375	-27.25	-6.75	1.363444	0.0064806603	1.6616518
1277136600334	-6.4015636	-0.040861044	1.56634	-3.2161183	0.0	41.125	-27.25	-15.3125	1.3860517	0.23996145	1.5771792
1277136600364	-7.205164	0.313268	3.1463003	-1.9382496	0.0	39.875	-26.25	-21.0625	1.4521466	0.4113699	1.5273454
1277136600401	-7.8861814	0.5720546	4.2904096	-0.81072235	0.0	39.125	-26.0	-24.5625	1.4809577	0.49715623	1.4983842
1277136600434	-8.430995	0.95342433	5.366417	0.232728	0.0	38.375	-25.25	-25.8125	1.5748522	0.56395954	1.4581891
1277136600482	-8.049625	0.88532263	5.829509	0.1714983	0.0	38.125	-24.75	-27.0625	1.6565855	0.6239279	1.4612535
1277136600514	-7.5865335	1.1441092	6.3198414	0.13341331	0.0	37.875	-24.25	-28.5625	1.7889931	0.6890379	1.4211164
1277136600544	-7.6954966	1.334794	6.66035	0.45797825	0.0	37.375	-23.75	-29.0625	1.8246664	0.7060908	1.3990537
1277136600584	-7.5456724	1.6480621	6.6331096	0.37428474	0.0	36.875	-24.25	-30.3125	1.8092914	0.7095898	1.3557616
1277136600626	-7.205164	1.8387469	6.891896	0.3320675	0.0	35.625	-24.5	-31.3125	1.8707031	0.7474355	1.320931
1277136600664	-6.66035	1.7297841	7.3141265	0.23570347	0.0	33.3125	-24.75	-33.0625	1.9020754	0.8158785	1.3166964
1277136600704	-7.164303	0.6537767	7.246025	0.40410614	0.0	30.5625	-25.25	-35.3125	1.4970527	0.78899604	1.4797937
1277136600749	-5.5162406	0.5720546	7.164303	-0.74666214	0.0	27.3125	-24.75	-38.375	1.5713055	0.9120543	1.467462
1277136600784	-5.053149	-0.14982383	8.349273	-0.046162605	0.0	23.75	-23.75	-41.125	1.5056244	1.0263525	1.6004373
1277136600824	-3.8273177	0.27240697	8.962189	-0.05763054	0.0	20.25	-22.5	-43.375	1.711055	1.1662759	1.4997418
1277136600864	-3.405087	-0.10896278	9.615966	0.39498138	0.0	17.0	-20.75	-45.625	1.5780245	1.2303058	1.6027855
1277136600894	-3.445948	-0.27240697	9.888372	0.6684952	0.0	14.4375	-19.5	-46.625	1.4141457	1.2345027	1.6496837
1277136600924	-3.636633	-0.14982383	10.228881	1.0504923	0.0	12.9375	-18.75	-47.125	1.3489047	1.2289395	1.6119715
1277136600954	-3.214402	0.14982383	10.119919	0.8125582	0.0	12.6875	-19.0	-47.125	1.497016	1.2629303	1.5242199
1277136600994	-2.982856	-0.19068487	9.656827	0.30216312	0.0	12.4375	-19.75	-46.875	1.4156713	1.2706319	1.6346364
1277136601034	-3.214402	-0.53119355	10.228881	0.9285517	0.0	12.6875	-20.5	-47.125	1.3264228	1.2624457	1.7345704
1277136601074	-2.1792557	-0.6537767	9.507003	-0.031187057	0.0	11.1875	-20.75	-47.625	1.2979157	1.3358948	1.8622531
1277136601114	-1.56634	-0.10896278	9.575105	-0.1036644	0.0	9.1875	-20.75	-48.125	1.5631107	1.4082624	1.6402496
1277136601154	-1.4982382	0.38136974	9.80665	0.12111664	0.0	7.1875	-20.0	-48.125	1.8081304	1.4144336	1.3215442
1277136601184	-1.9477097	0.6946377	10.119919	0.5223789	0.0	5.6875	-20.25	-48.125	1.7027872	1.3692346	1.2282155
1277136601224	-1.9477097	0.61291564	10.528529	0.91804886	0.0	6.1875	-21.25	-48.125	1.7266797	1.3792375	1.2659218
1277136601264	-2.7513103	0.84446156	10.923519	1.4896364	0.0	7.1875	-22.25	-47.375	1.6170894	1.3131834	1.2729933
1277136601304	-3.759216	0.14982383	13.021052	3.7470198	0.0	8.6875	-23.25	-46.875	1.4069997	1.2895238	1.5309623
1277136601344	-5.175732	-0.19068487	14.2877445	5.3908567	0.0	10.1875	-24.25	-45.375	1.303774	1.2230332	1.6076218
1277136601384	-4.862464	-0.88532263	12.176591	3.3347626	0.0	11.6875	-26.75	-43.125	1.232215	1.1852193	1.7508963
1277136601414	-3.3642259	0.46309182	6.973618	-2.050116	0.0	13.1875	-30.5	-39.125	1.5129856	1.1176263	1.4340042
1277136601444	-1.2258313	2.6423476	2.4108016	-6.0255623	0.0	15.75	-36.0	-33.3125	0.95144546	0.69137186	0.43436727
1277136601484	-0.14982383	2.6832085	0.19068487	-7.1125054	0.0	17.0	-41.3125	-27.3125	-0.54392445	0.070836745	0.055779643
1277136601524	0.313268	2.2609777	-0.6537767	-7.432291	0.0	18.75	-44.5625	-21.5625	-0.65449995	-0.2789524	-0.13767767
1277136601564	0.19068487	2.4108016	-1.2258313	-7.09538	0.0	21.25	-46.3125	-17.8125	-0.603845	-0.46914557	-0.07893171
1277136601604	0.19068487	2.1792557	-1.6480621	-7.0677404	0.0	23.0	-46.0625	-15.8125	-0.603875	-0.64565533	-0.08727771
1277136601644	-4.399372	1.8387469	0.92618364	-4.9493585	0.0	26.5625	-44.8125	-15.0625	1.3550079	0.1918538	1.1749065
1277136601684	-13.565866	4.7535014	7.6954966	6.498232	0.0	29.3125	-42.5625	-15.5625	1.7645423	0.49152964	1.2337638
1277136601724	-19.6133	10.651112	16.698545	18.067516	0.0	31.5625	-39.5625	-17.8125	2.177123	0.6423376	1.0733004
1277136601764	-19.6133	11.264028	19.422615	20.006063	0.0	32.5625	-36.75	-20.8125	2.3190548	0.7095437	1.049484
1277136601804	-15.322891	8.19945	17.62473	14.945179	0.0	30.8125	-34.75	-24.8125	2.2720914	0.7924245	1.079456
1277136601844	-8.771504	5.6252036	11.372991	5.6182365	0.0	27.3125	-35.25	-27.8125	2.2556887	0.8290862	1.0005584
1277136601884	-4.7126403	2.9556155	6.851035	-0.9816103	0.0	22.0	-37.5	-28.5625	2.1069741	0.888803	1.0106398
1277136601924	-1.9885708	0.8036005	2.7921712	-6.285797	0.0	17.0	-40.8125	-27.5625	1.8148293	0.9157804	1.1867522
1277136601964	0.040861044	0.313268	-0.19068487	-9.437642	0.0	12.9375	-44.5625	-23.5625	-0.4154988	-0.5430498	-0.12970254
1277136602004	1.2258313	0.53119355	-1.4165162	-7.859512	0.0	10.4375	-47.5625	-19.0625	-1.1767775	-0.8146511	-1.1618885
1277136602044	1.0760075	0.95342433	-0.9942854	-8.058676	0.0	9.1875	-49.3125	-14.5625	-1.0156777	-0.6050724	-0.8457276
1277136602074	-0.14982383	1.4573772	0.10896278	-8.337545	0.0	9.1875	-50.5625	-12.0	-0.45233956	0.07423769	0.10244386
1277136602114	-1.525479	1.879608	1.3075534	-7.05534	0.0	10.4375	-51.0625	-11.0	2.0428233	0.49524537	0.6817707
1277136602154	-3.568531	2.4925237	3.173541	-4.4197726	0.0	12.1875	-50.5625	-12.0	1.9376628	0.62997484	0.9610957
1277136602194	-6.238119	3.7864566	6.469665	-0.05431938	0.0	14.9375	-49.8125	-14.8125	1.966101	0.72534925	1.0252552
1277136602234	-9.384419	5.134871	9.152874	4.2720327	0.0	18.0	-47.8125	-18.5625	1.8920321	0.70774615	1.0701286
1277136602274	-11.645397	5.134871	12.217452	7.835581	0.0	20.75	-44.3125	-23.8125	1.8247341	0.764965	1.1555058
1277136602314	-10.528529	4.440233	13.633968	7.9824104	0.0	21.75	-40.0625	-29.0625	1.864983	0.8732558	1.1716957
1277136602354	-7.7363577	3.8273177	13.293459	6.0431337	0.0	21.5	-35.25	-34.5625	2.0131874	0.9949202	1.111383
1277136602394	-5.6252036	3.5276701	11.985906	3.8955145	0.0	19.5	-31.0	-39.125	2.127561	1.0649102	1.010675
1277136602435	-4.8216033	3.7864566	10.923519	2.719658	0.0	16.75	-29.0	-41.625	2.0662506	1.0593677	0.9050767
1277136602474	-3.1054392	2.6423476	9.275456	0.32546997	0.0	14.6875	-28.75	-43.375	2.2424839	1.1566265	0.8657932
1277136602504	-1.879608	2.5333846	8.390134	-0.8430958	0.0	12.4375	-29.75	-43.125	2.6403863	1.2111676	0.63831985
1277136602534	-1.4573772	1.5390993	8.008764	-1.5221415	0.0	10.6875	-30.5	-42.625	2.497923	1.3120663	0.75813216
1277136602564	-0.50395286	0.7218784	7.0553403	-2.6965933	0.0	8.1875	-31.25	-42.375	2.7186968	1.4466548	0.60945857
1277136602605	-0.9125633	1.3075534	7.6273947	-2.0143704	0.0	6.1875	-31.75	-41.875	2.5704665	1.3647135	0.60932636
1277136602644	-2.1111538	1.56634	6.66035	-2.6462975	0.0	5.1875	-31.5	-42.375	1.8252885	1.1948774	0.9324765
1277136602684	-4.2086873	0.6946377	8.19945	-0.56400204	0.0	4.375	-31.5	-42.375	1.2181307	1.0910934	1.4072225
1277136602724	-4.2495484	2.6832085	9.575105	1.0072718	0.0	5.6875	-31.0	-43.125	1.5220976	1.087445	1.0076007
1277136602764	-4.862464	3.8273177	9.888372	1.8583326	0.0	6.9375	-30.0	-43.875	1.4202707	1.0116289	0.9039617
1277136602804	-4.5628166	4.4810944	8.390134	0.74293995	0.0	8.1875	-30.0	-43.625	1.257112	0.9195093	0.7944341
1277136602844	-4.8216033	5.175732	8.730643	1.4299059	0.0	9.6875	-31.0	-42.125	1.3089211	0.8898633	0.74999064
1277136602884	-3.759216	5.938472	8.117727	0.93088436	0.0	9.6875	-33.5	-39.375	1.5239208	0.85720205	0.5643511
1277136602924	-2.6014864	6.5513873	7.082581	0.185915	0.0	9.4375	-37.0	-35.3125	1.9475147	0.78777444	0.37799472
1277136602964	-2.1792557	5.706926	7.9679036	0.23355103	0.0	8.6875	-41.0625	-31.8125	2.6922605	0.91670316	0.36477268
1277136603004	-2.7513103	6.2789803	7.3549876	0.24775887	0.0	7.9375	-44.0625	-28.8125	2.435343	0.8205466	0.41297927
1277136603044	-2.7921712	4.7943625	7.8589406	-0.18661499	0.0	7.6875	-44.8125	-27.3125	2.445628	0.9560759	0.5273676
1277136603084	-2.4108016	4.7535014	8.19945	-0.027145386	0.0	7.1875	-45.3125	-27.0625	2.5691917	0.9943997	0.46936184
1277136603124	-1.7570249	4.099725	7.164303	-1.3673306	0.0	6.6875	-44.5625	-27.5625	2.6712952	1.0139375	0.4048918
1277136603164	-1.4573772	4.862464	6.2108784	-1.7852716	0.0	5.6875	-44.5625	-29.0625	2.7093823	0.88559335	0.2911998
1277136603204	-0.9942854	5.8976107	7.273266	-0.39013195	0.0	4.125	-44.3125	-30.5625	2.923243	0.88260245	0.16702063
1277136603244	-0.14982383	6.742072	7.7772183	0.48718834	0.0	2.625	-42.3125	-32.5625	-2.985055	0.85645014	0.022218566
1277136603284	0.46309182	7.8589406	9.084772	2.2146015	0.0	0.625	-39.8125	-35.8125	-2.71666	0.856762	-0.058857422
1277136603324	-0.23154591	6.742072	11.032481	3.1248922	0.0	-0.875	-35.75	-39.625	2.9300354	1.0219847	0.03432994
1277136603364	-0.040861044	3.7864566	12.108489	2.8801317	0.0	-2.625	-31.25	-42.875	2.9690828	1.2677027	0.010790949
1277136603404	0.53119355	-0.42223078	11.304889	1.5185852	0.0	-5.9375	-27.25	-45.625	-1.0302656	1.510845	-2.2424026
1277136603444	0.3405087	-3.405087	10.800936	1.5234327	0.0	-8.4375	-24.5	-46.375	-0.28892672	1.2639707	-3.041924
1277136603484	0.313268	-4.4810944	11.372991	2.42132	0.0	-11.1875	-22.5	-46.375	-0.3298103	1.1946307	-3.0717974
1277136603514	0.53119355	-3.5276701	10.038197	0.84661293	0.0	-13.1875	-21.75	-46.625	-0.4462118	1.2293308	-2.9921362
1277136603544	1.1168685	-2.0294318	9.112013	-0.40480137	0.0	-13.4375	-22.0	-46.375	-0.7540896	1.3218496	-2.6384919
1277136603584	1.5390993	-0.29964766	9.384419	-0.2921381	0.0	-12.9375	-21.5	-46.375	-1.6059989	1.4052407	-1.7630812
1277136603624	0.84446156	1.3756552	9.847511	0.17227936	0.0	-11.9375	-21.25	-46.625	-3.0844488	1.4083242	-0.5505493
1277136603664	0.08172209	0.0	9.80665	3.4046173E-4	0.0	-10.9375	-20.75	-46.875	-2.0410345	1.5624669	-1.5707964
1277136603704	-0.29964766	0.08172209	9.956474	0.1546669	0.0	-8.9375	-20.75	-47.625	1.3660103	1.5396138	1.3045443
1277136603734	-0.0	0.95342433	10.269742	0.50725365	0.0	-7.6875	-19.75	-48.125	2.6737933	1.478224	0.0
1277136603774	0.5720546	-0.95342433	9.847511	0.103432655	0.0	-6.6875	-19.0	-48.875	-0.7043	1.4583634	-2.6011732
1277136603814	-0.42223078	-0.7627395	10.228881	0.4593153	0.0	-5.4375	-18.5	-49.375	0.18115968	1.4857719	2.6360116
1277136603854	-0.6946377	-0.8036005	10.419566	0.66691875	0.0	-4.625	-17.0	-49.375	0.35091302	1.4692036	2.428794
1277136603884	-0.61291564	-0.6946377	10.61025	0.8439646	0.0	-3.875	-16.75	-50.125	0.3983971	1.4837074	2.4186132
1277136603914	-0.6537767	-0.50395286	10.56939	0.7949257	0.0	-2.875	-16.5	-49.875	0.6097118	1.4928548	2.227498
1277136603954	-0.7218784	-0.53119355	10.419566	0.651392	0.0	-2.375	-16.75	-50.125	0.644062	1.4849901	2.2051792
1277136603994	-0.5720546	-0.50395286	10.691973	0.91246796	0.0	-1.625	-17.0	-50.375	0.6304147	1.4996144	2.2929876
1277136604034	-0.6946377	0.08172209	10.269742	0.48688126	0.0	-1.625	-17.25	-49.875	1.3999654	1.5027963	1.4536875
1277136604064	-0.7627395	-0.040861044	9.847511	0.07044029	0.0	-1.875	-17.75	-50.375	1.2070614	1.4933856	1.6243166
1277136604104	-0.7627395	0.040861044	9.915613	0.13834	0.0	-1.875	-17.5	-50.125	1.3050721	1.4939146	1.517276
1277136604144	-0.27240697	-1.4982382	10.61025	0.9123211	0.0	-2.625	-17.0	-50.625	0.01892944	1.4282477	2.961739
1277136604194	-0.14982383	-0.08172209	9.275456	-0.52962303	0.0	-2.875	-16.5	-50.875	0.8567759	1.552393	2.070143
1277136604224	-1.8387469	1.2258313	9.466142	-0.0859766	0.0	-2.625	-15.5	-50.875	1.2158291	1.3414508	0.9827937
1277136604255	-2.3018389	0.10896278	10.56939	1.0110369	0.0	-2.125	-14.75	-51.375	0.8770584	1.3561282	1.5234944
1277136604294	-1.3075534	-0.9942854	11.372991	1.6843557	0.0	-1.125	-14.25	-51.625	0.56542623	1.4273539	2.2209308
1277136604334	-0.14982383	0.27240697	13.0619135	3.2589626	0.0	-0.125	-13.0	-52.375	2.5777485	1.5469974	0.5028432
1277136604364	0.6537767	-0.29964766	12.680544	2.894271	0.0	1.375	-11.4375	-52.625	-0.8299668	1.5141429	-2.0005586
1277136604394	0.88532263	-1.8387469	13.211738	3.5617752	0.0	3.625	-8.9375	-52.375	-0.03488992	1.4175404	-2.6928692
1277136604434	1.3075534	-1.6889231	13.293459	3.6573095	0.0	6.1875	-6.4375	-52.125	0.05581226	1.4114834	-2.4827867
1277136604464	1.7978859	-2.2201166	12.340035	2.8597536	0.0	9.4375	-3.1875	-52.125	0.26091138	1.3432972	-2.460895
1277136604504	-0.8036005	-1.4982382	9.384419	-0.26946926	0.0	12.1875	0.3125	-51.375	1.2757657	1.3915737	2.649279
1277136604534	-4.1814466	-0.8036005	7.0553403	-1.5660133	0.0	14.6875	4.0625	-50.625	-0.09230625	1.0278002	1.7606637
1277136604574	-6.891896	-0.50395286	3.568531	-2.0293365	0.0	18.0	8.0625	-49.125	-0.18917377	0.47668752	1.6437889
1277136604614	-8.076866	-1.4982382	1.8387469	-1.3887243	0.0	21.25	10.8125	-46.875	-0.16428955	0.22020768	1.754209
1277136604654	-7.8180795	0.46309182	5.134871	-0.4416237	0.0	24.0	12.625	-45.625	-0.5039427	0.58033353	1.511632
1277136604694	-9.112013	2.4925237	5.407278	1.078207	0.0	27.0625	13.125	-43.875	-0.6357505	0.51987386	1.3037856
1277136604734	-8.580819	2.2609777	3.6774938	-0.20110798	0.0	29.5625	12.625	-42.625	-0.58717114	0.39288077	1.3131601
1277136604774	-8.008764	2.7921712	3.486809	-0.63635254	0.0	31.0625	11.3125	-41.625	-0.62856704	0.39004344	1.235334
1277136604814	-6.510526	3.486809	4.6036777	-1.1038551	0.0	32.5625	9.5625	-40.875	-0.82721156	0.5574081	1.0791032
1277136604854	-9.765789	3.8681788	10.079058	4.7508507	0.0	32.5625	6.8125	-41.875	-1.0305309	0.7647572	1.193661
1277136604884	-8.580819	2.982856	8.894087	2.9068336	0.0	31.5625	4.0625	-42.375	-0.94069284	0.77480817	1.2362442
1277136604914	-5.47538	2.5606253	6.1700177	-1.1691904	0.0	30.5625	1.5625	-43.875	-0.8998518	0.79566973	1.1333524
1277136604954	-5.938472	2.8330324	7.164303	-0.07943249	0.0	29.5625	-0.1875	-45.125	-0.8600347	0.8279129	1.1256651
1277136604994	-7.6273947	2.5333846	6.851035	0.75421524	0.0	29.8125	-0.9375	-44.625	-0.5042955	0.70590013	1.2501175
1277136605024	-7.3141265	1.7978859	7.164303	0.5883522	0.0	30.3125	-0.9375	-44.625	-0.4888445	0.76039326	1.329765
1277136605064	-6.238119	2.4925237	7.8180795	0.50107384	0.0	31.5625	-0.4375	-43.625	-1.0775208	0.8609593	1.1906664
1277136605104	-6.742072	1.9885708	6.1700177	-0.45362568	0.0	33.5625	0.0625	-41.875	-0.75047934	0.72039497	1.2839794
1277136605144	-6.238119	1.9477097	7.082581	-0.16970825	0.0	35.625	0.8125	-40.375	-1.3493419	0.8255792	1.2681601
1277136605184	-5.8567495	2.5606253	5.7477865	-1.2104092	0.0	38.375	0.8125	-37.625	-1.2879187	0.7323777	1.1586299
1277136605214	-7.246025	3.1463003	4.140586	-0.88765144	0.0	41.875	-0.1875	-32.8125	-0.9747946	0.48278013	1.1611502
1277136605244	-7.9270425	3.3778462	3.445948	-0.52643394	0.0	45.1875	-0.6875	-27.0625	-1.0591588	0.38043237	1.1679801
1277136605284	-8.662541	2.9147544	3.568531	0.005068779	0.0	48.1875	-2.1875	-21.3125	-1.3496757	0.37223783	1.2462183
1277136605324	-8.662541	3.405087	3.486809	0.13277054	0.0	50.4375	-2.9375	-16.5625	-1.6554854	0.35843176	1.1962681
1277136605362	-8.580819	3.445948	4.2904096	0.38710403	0.0	51.4375	-3.4375	-13.8125	-2.0399427	0.43442193	1.1889223
1277136605394	-7.014479	3.6774938	3.9499009	-0.9563055	0.0	51.6875	-4.6875	-12.25	-2.055001	0.4626254	1.0879203
1277136605424	-7.4639506	4.8216033	1.879608	-0.72417545	0.0	51.6875	-5.4375	-10.25	-1.5523775	0.20845531	0.99724853
1277136605464	-8.689782	4.3312707	0.61291564	-0.07793617	0.0	51.6875	-6.4375	-7.5	-1.3222387	0.06304244	1.1084034
1277136605504	-7.6546354	3.8681788	1.6480621	-1.073245	0.0	51.9375	-7.1875	-5.75	-1.7856857	0.1898462	1.1028874
1277136605545	-7.8589406	3.759216	2.6014864	-0.7147646	0.0	52.6875	-7.4375	-4.0	-2.1588643	0.2901884	1.1246295
1277136605584	-7.7363577	3.173541	2.152015	-1.1721983	0.0	52.6875	-6.6875	-3.25	-2.1799703	0.25189114	1.1815182
1277136605624	-5.012288	2.7240696	1.4982382	-3.9084892	0.0	52.4375	-5.4375	-3.5	-1.9878792	0.25683212	1.072974
1277136605654	-7.04172	1.56634	0.61291564	-2.5668364	0.0	52.4375	-3.9375	-2.0	-1.880433	0.08476048	1.3519226
1277136605694	-7.7363577	1.334794	4.1814466	-0.9118538	0.0	51.9375	-2.1875	-0.5	-2.8680913	0.48940444	1.3999432
1277136605734	-4.7535014	-1.4982382	2.4516625	-4.2522697	0.0	51.9375	0.3125	2.25	2.5721953	0.45715007	1.8761265
1277136605774	-1.607201	-3.568531	0.46309182	-5.865589	0.0	51.4375	3.8125	5.25	1.7476906	0.11777645	2.7184215
1277136605804	-9.425281	-3.336985	-1.3075534	0.27705288	0.0	50.4375	8.0625	6.5	1.5633203	-0.13003613	1.9110713
1277136605834	-9.043911	-3.718355	-1.9477097	0.16390991	0.0	49.4375	13.125	7.75	1.2374415	-0.19661029	1.960873
1277136605874	-7.1234417	-4.7126403	-0.14982383	-1.2641182	0.0	47.6875	17.375	7.75	2.098091	-0.017539473	2.1552608
1277136605904	-12.5579605	-5.012288	-0.9942854	3.751152	0.0	46.4375	21.375	7.0	-2.4578307	-0.073402666	1.9505545
1277136605934	-10.61025	-5.434519	-1.607201	2.2222528	0.0	44.375	25.625	7.5	-1.7975782	-0.13401237	2.0441525
1277136605974	-11.495573	-5.012288	-0.0	2.7341328	0.0	41.875	29.125	7.75	-2.2319982	-0.0	1.981963
1277136606014	-11.114203	-5.7477865	-0.5720546	2.718916	0.0	39.625	32.625	9.0	-2.1269343	-0.045686852	2.048075
1277136606054	-13.443283	-6.510526	0.42223078	5.1361437	0.0	37.375	35.125	10.5	-2.230279	0.028260242	2.021802
1277136606084	-13.484144	-5.47538	4.0180025	5.2912397	0.0	36.125	36.875	11.5	-2.4263568	0.2693761	1.9565165
1277136606124	-11.372991	-5.243834	3.8681788	3.3008108	0.0	35.375	37.6875	12.0	-2.492849	0.29957354	2.0028243
1277136606164	-9.847511	-6.5922484	3.7864566	2.6339474	0.0	35.125	37.9375	11.75	-2.7168262	0.30926955	2.1607115
1277136606204	-7.3958488	-6.428804	0.27240697	-0.0034723282	0.0	34.8125	37.9375	12.5625	-2.748678	0.027791196	2.2863574
1277136606235	-6.2789803	-6.8237944	0.08172209	-0.5332241	0.0	33.8125	37.375	13.0625	-3.1100857	0.008812616	2.3977506
1277136606274	-7.3141265	-6.701211	0.38136974	0.120490074	0.0	33.5625	37.375	13.8125	-2.8403683	0.038426332	2.3124905
1277136606314	-7.3549876	-6.2108784	1.0760075	-0.12013149	0.0	33.5625	37.375	14.8125	-2.813082	0.111312725	2.2720563
1277136606354	-8.19945	-6.0201936	0.46309182	0.37608814	0.0	33.5625	36.875	15.0625	-2.6227975	0.04549381	2.2041209
1277136606384	-9.152874	-7.4639506	0.3405087	2.0086622	0.0	34.0625	36.625	15.8125	-2.7629168	0.028823264	2.254903
1277136606414	-8.730643	-7.3549876	-0.14982383	1.6101103	0.0	33.8125	36.625	17.3125	-2.7840178	-0.013123523	2.2708812
1277136606454	-7.164303	-6.428804	-0.6946377	-0.15578079	0.0	33.3125	35.375	18.8125	-2.8806148	-0.07203899	2.302139
1277136606484	-7.6273947	-5.6660647	-0.3405087	-0.29889584	0.0	33.0625	34.375	20.8125	-2.7506418	-0.035821445	2.2097104
1277136606524	-6.510526	-4.5900574	-0.84446156	-1.796114	0.0	32.8125	32.625	23.3125	-2.742096	-0.105615094	2.184884
1277136606564	-7.04172	-4.440233	-0.95342433	-1.4274788	0.0	33.0625	30.375	25.5625	-2.7648828	-0.11403201	2.1333845
1277136606604	-7.9270425	-4.099725	-1.9885708	-0.6633377	0.0	33.3125	28.875	27.5625	-2.6097775	-0.21924126	2.048095
1277136606644	-7.8589406	-2.7921712	-2.7513103	-1.0243454	0.0	33.5625	26.625	29.3125	-2.4004717	-0.31864372	1.9121724
1277136606684	-7.504812	-2.982856	-1.56634	-1.580287	0.0	34.0625	24.875	30.5625	-2.6989841	-0.1915746	1.9491104
1277136606724	-7.082581	-3.336985	-1.7570249	-1.782589	0.0	34.3125	22.875	31.3125	-2.8679483	-0.22075824	2.011102
1277136606764	-6.851035	-3.1463003	-1.4165162	-2.1357698	0.0	35.125	20.625	31.5625	-2.9697824	-0.18572742	2.0013113
1277136606804	-6.851035	-3.7864566	-1.1168685	-1.8996072	0.0	36.125	19.375	30.8125	3.1206763	-0.14172378	2.0756977
1277136606844	-6.973618	-4.3312707	-1.6889231	-1.425498	0.0	37.125	19.125	30.0625	2.9842355	-0.20290384	2.1265817
1277136606884	-8.076866	-4.2904096	-2.982856	-0.1868372	0.0	37.875	19.375	29.5625	3.0975637	-0.31527108	2.0590892
1277136606914	-10.7192135	-1.8387469	-1.0760075	1.1222248	0.0	38.375	19.125	29.5625	-2.6882956	-0.09861523	1.7406805
1277136606954	-9.152874	-2.4516625	-2.1111538	-0.09878063	0.0	38.125	18.875	30.5625	-2.7584393	-0.21921995	1.8325098
1277136606994	-6.782933	-4.099725	-2.6014864	-1.4649687	0.0	37.375	18.125	32.0625	2.9273658	-0.3171563	2.1144578
1277136607024	-6.973618	-4.4810944	-2.4516625	-1.1624498	0.0	37.125	17.125	33.3125	2.871603	-0.28756636	2.1419363
1277136607054	-7.504812	-4.440233	-2.3018389	-0.7879839	0.0	34.75	16.625	36.0625	3.0073438	-0.25808612	2.1050546
1277136607094	-7.273266	-4.1814466	-1.525479	-1.2795181	0.0	34.0	16.625	37.0625	3.0565367	-0.17986533	2.0925603
1277136607134	-7.6954966	-3.3642259	-1.3075534	-1.3067455	0.0	33.5	16.125	36.5625	-3.0970356	-0.15444481	1.9829282
1277136607174	-8.349273	-4.1814466	-2.3699405	-0.17277908	0.0	32.75	15.875	36.0625	3.1234825	-0.24855213	2.0350962
1277136607214	-7.8861814	-4.3312707	-4.440233	0.22666645	0.0	33.0	16.625	35.8125	3.0584621	-0.45843905	2.0730426
1277136607259	-7.4639506	-3.336985	-3.8681788	-0.7618265	0.0	33.75	16.875	35.3125	-3.038746	-0.44191104	1.9912195
1277136607294	-7.1234417	-3.636633	-3.173541	-1.2020073	0.0	34.0	16.875	35.8125	3.1193154	-0.3777363	2.0428216
1277136607324	-7.014479	-4.140586	-2.6423476	-1.243393	0.0	34.25	17.125	36.3125	3.0250795	-0.31368726	2.1040466
1277136607354	-7.082581	-4.372132	-3.0237172	-0.951067	0.0	33.75	16.625	37.0625	2.9805458	-0.34845656	2.123845
1277136607394	-7.1234417	-4.440233	-3.9499009	-0.5297537	0.0	33.0	16.375	37.875	2.953067	-0.43982184	2.1281917
1277136607434	-6.932757	-4.2904096	-4.8216033	-0.33466053	0.0	32.5	16.125	38.375	2.9140308	-0.5340668	2.1249685
1277136607474	-6.4015636	-3.6774938	-4.7535014	-1.0260038	0.0	31.0	15.875	40.125	3.0295718	-0.5720552	2.0922308
1277136607514	-6.0201936	-3.255263	-4.2086873	-1.772192	0.0	29.75	15.375	41.625	3.1066759	-0.5513406	2.06649
1277136607554	-8.158588	-3.5276701	-3.6774938	-0.18734741	0.0	29.9375	16.0	41.4375	-3.0314405	-0.39228794	1.9789075
1277136607594	-7.6273947	-4.099725	-2.4925237	-0.795681	0.0	29.1875	16.75	41.4375	-3.1109562	-0.28026462	2.063992
1277136607635	-8.158588	-5.8158884	-2.070293	0.4243431	0.0	29.9375	18.0	39.1875	3.054972	-0.2037621	2.1900976
1277136607674	-7.1234417	-5.5162406	-2.5333846	-0.4476776	0.0	31.5	19.0625	37.125	2.9799035	-0.2741102	2.229718
1277136607714	-7.504812	-4.903325	-2.1383946	-0.59049416	0.0	32.75	19.8125	34.375	3.0876222	-0.23416077	2.1495283
1277136607744	-7.205164	-5.284695	-2.2609777	-0.5895786	0.0	34.25	20.5625	32.625	2.9750776	-0.24783249	2.203627
1277136607774	-7.7363577	-4.671779	-1.4573772	-0.6523781	0.0	36.3125	21.1875	31.25	3.1153555	-0.15988216	2.114059
1277136607814	-8.117727	-8.117727	-0.9125633	1.7097635	0.0	37.0625	21.9375	29.5	2.7527113	-0.0793234	2.3561945
1277136607854	-6.238119	-8.771504	2.6832085	1.2862768	0.0	36.8125	22.9375	29.0	2.7256536	0.24430768	2.5234027
1277136607894	-5.7886477	-6.8237944	6.932757	1.5130558	0.0	37.8125	25.0625	25.5	2.8783948	0.65915656	2.4380844
1277136607934	-9.888372	-7.3958488	12.217452	7.564148	0.0	39.125	27.5	18.9375	3.1116176	0.7800751	2.2129738
1277136607974	-15.935807	-5.243834	9.697687	9.57099	0.0	40.375	30.0	11.125	-2.6992238	0.52412724	1.8886958
1277136608034	-10.882658	-3.0645783	6.851035	3.4130535	0.0	42.125	32.0	1.875	-2.5209148	0.54479676	1.84529
1277136608074	-7.8180795	-1.7570249	5.134871	-0.28948689	0.0	42.625	30.75	-8.875	-2.3039806	0.56988823	1.791862
1277136608104	-6.510526	-0.95342433	6.8237944	-0.32719135	0.0	42.125	26.0	-18.1875	-2.368013	0.8035871	1.7162062
1277136608144	-4.5628166	-0.53119355	6.0882955	-2.1798024	0.0	41.625	18.5	-26.1875	-2.5201626	0.92441994	1.6866925
1277136608184	-3.9090397	-0.6537767	6.4015636	-2.2775044	0.0	40.625	7.9375	-33.1875	-3.0780225	1.0164367	1.7365099
1277136608224	-1.3075534	0.92618364	6.5513873	-3.0621567	0.0	39.125	-2.8125	-35.6875	-2.4413638	1.330924	0.95449936
1277136608258	-0.23154591	3.0645783	6.973618	-2.1858497	0.0	37.375	-13.375	-34.1875	-1.5982012	1.1556983	0.07541227
1277136608294	-2.4108016	4.7943625	7.8180795	-0.32402134	0.0	35.875	-23.125	-31.4375	-2.095202	0.9692532	0.46591777
1277136608334	-0.53119355	6.701211	8.349273	0.9124336	0.0	34.0625	-30.375	-27.4375	-1.8331877	0.89293647	0.07910289
1277136608374	-2.3699405	6.5513873	3.6774938	-1.9287534	0.0	32.8125	-35.875	-23.4375	-1.5832092	0.48568204	0.34710073
1277136608414	-4.5219555	6.510526	0.50395286	-1.8637915	0.0	30.8125	-39.6875	-20.6875	-0.15155362	0.06348994	0.6070661
1277136608444	-3.9499009	8.049625	2.7921712	-0.4154625	0.0	29.0625	-41.4375	-18.6875	-1.2079045	0.30188262	0.4561749
1277136608484	-3.445948	7.6273947	1.8387469	-1.2373619	0.0	28.0625	-42.9375	-17.1875	-0.9280916	0.21625571	0.42433792
1277136608514	-2.3699405	8.430995	1.879608	-0.8494625	0.0	27.3125	-43.4375	-16.6875	-1.1799871	0.21141493	0.27402708
1277136608544	-2.1383946	9.234595	2.7240696	0.055957794	0.0	26.8125	-42.9375	-16.9375	-1.3870522	0.27983987	0.22755276
1277136608584	-3.1054392	9.507003	2.6014864	0.52749634	0.0	25.5625	-43.6875	-17.6875	-1.1607713	0.25447458	0.31572133
1277136608624	-3.759216	9.575105	2.4925237	0.77763176	0.0	24.0	-43.6875	-19.1875	-0.73824066	0.23772573	0.37411356
1277136608664	-2.0294318	8.853226	2.3699405	-0.41970062	0.0	23.0	-44.1875	-19.9375	-1.0545845	0.25523403	0.2253377
1277136608704	1.1441092	8.812365	2.8330324	-0.47965622	0.0	22.25	-44.4375	-21.1875	-1.3014246	0.3086214	-0.12910782
1277136608734	0.38136974	9.425281	2.6423476	-0.010560989	0.0	21.5	-44.1875	-22.1875	-1.1761872	0.27311778	-0.040440366
1277136608764	-1.9885708	9.112013	2.7649305	-0.07895565	0.0	20.75	-44.4375	-23.1875	-0.8963336	0.2882062	0.21486728
1277136608804	-0.84446156	11.304889	4.5219555	2.3983364	0.0	19.0	-44.1875	-24.1875	-1.2263887	0.37954798	0.07456032
1277136608844	0.040861044	9.275456	4.2495484	0.39601803	0.0	18.25	-44.1875	-24.6875	-1.3534536	0.42960688	-0.004405258
1277136608884	-0.19068487	9.112013	3.2961242	-0.11492348	0.0	18.25	-43.9375	-24.9375	-1.1202521	0.3470197	0.020923702
1277136608924	-0.84446156	9.302697	2.5606253	-0.12108898	0.0	18.75	-43.1875	-24.9375	-0.87911433	0.26755637	0.09052788
1277136608964	-0.7627395	8.499097	1.7297841	-1.0998383	0.0	19.25	-42.6875	-25.6875	-0.7529792	0.2000009	0.089503825
1277136609004	1.2258313	8.812365	2.5333846	-0.5557871	0.0	19.25	-42.1875	-26.6875	-1.0296905	0.2773978	-0.13821663
1277136609034	1.6889231	8.730643	2.152015	-0.65745544	0.0	19.25	-41.9375	-27.6875	-0.978268	0.23743832	-0.19108742
1277136609074	1.2666923	9.275456	1.1441092	-0.37544727	0.0	18.25	-42.1875	-28.4375	-0.7924711	0.1216106	-0.13572429
1277136609114	1.1441092	8.076866	3.8681788	-0.77849674	0.0	17.5	-42.4375	-28.6875	-1.2030182	0.44278482	-0.14071643
1277136609154	1.56634	7.7772183	4.399372	-0.7350998	0.0	16.5	-42.4375	-29.6875	-1.2793059	0.50632155	-0.19874237
1277136609194	1.9477097	7.3958488	6.1700177	0.019908905	0.0	14.9375	-41.6875	-30.6875	-1.5324908	0.6788417	-0.257505
1277136609224	1.607201	6.8237944	6.782933	-0.05188465	0.0	13.9375	-40.6875	-32.1875	-1.6659119	0.76890063	-0.23131315
1277136609259	1.4573772	6.701211	7.9679036	0.70608807	0.0	13.6875	-38.9375	-34.1875	-1.7682544	0.86013174	-0.21414508
1277136609294	0.6946377	8.580819	7.9679036	1.9236727	0.0	13.9375	-36.625	-36.1875	-1.4220135	0.7467497	-0.08077624
1277136609334	-0.6537767	3.759216	7.8180795	-1.1071386	0.0	14.9375	-33.125	-38.5	-2.5914795	1.1167512	0.17219082
1277136609374	-1.1441092	4.862464	9.302697	0.7523613	0.0	16.0	-29.875	-40.25	-2.4141567	1.0780134	0.2310907
1277136609414	-1.56634	3.718355	10.882658	1.7998924	0.0	16.5	-27.375	-41.25	-2.8511827	1.2157528	0.3986862
1277136609444	0.14982383	3.759216	11.645397	2.4313822	0.0	17.0	-25.125	-42.0	-2.0922532	1.2583171	-0.03983399
1277136609484	2.9556155	3.214402	7.8589406	-0.81604385	0.0	15.5	-24.125	-43.0	-1.0882212	1.0636375	-0.74348015
1277136609524	1.0351465	3.7864566	8.689782	-0.27139473	0.0	13.6875	-22.375	-44.5	-1.4696136	1.1465079	-0.2668607
1277136609564	1.0760075	1.7297841	10.269742	0.6631899	0.0	11.9375	-20.625	-46.0	-1.667652	1.3749746	-0.5564732
1277136609604	-0.0	4.630918	9.234595	0.52403927	0.0	10.1875	-19.875	-47.25	-1.2474048	1.1059697	0.0
1277136609644	1.56634	3.1054392	11.141444	1.8650656	0.0	9.9375	-19.375	-47.5	-1.4624867	1.268206	-0.4671502
1277136609684	2.5333846	3.636633	9.152874	0.3628254	0.0	9.4375	-19.625	-47.5	-1.0426166	1.1198475	-0.60846007
1277136609724	2.3018389	3.2961242	10.147159	1.1079149	0.0	9.4375	-20.125	-47.5	-1.2139577	1.1935695	-0.6096158
1277136609759	0.84446156	3.0237172	9.765789	0.45135212	0.0	8.6875	-20.375	-47.25	-1.7140224	1.2597593	-0.27234024
1277136609794	0.92618364	3.5957718	9.384419	0.2856598	0.0	7.6875	-21.125	-46.75	-1.5738796	1.1940279	-0.252096
1277136609827	2.070293	3.718355	11.372991	2.336545	0.0	7.9375	-21.625	-46.75	-1.4394741	1.2127211	-0.5080311
1277136609864	2.6832085	3.8681788	12.340035	3.4008818	0.0	7.4375	-21.375	-46.25	-1.3536366	1.2063409	-0.60645956
1277136609904	3.990762	2.4516625	10.228881	1.4435425	0.0	6.6875	-20.125	-46.5	-0.94375193	1.1414025	-1.0199034
1277136609934	3.568531	1.1168685	7.5865335	-1.3486776	0.0	6.1875	-17.875	-47.75	-0.7186121	1.1128637	-1.2674769
1277136609974	2.8738933	0.92618364	8.281172	-0.9921799	0.0	4.875	-15.375	-48.5	-0.7727496	1.2211602	-1.2590312
1277136610014	2.9147544	0.50395286	9.084772	-0.25244427	0.0	4.375	-13.625	-49.5	-0.6886555	1.2560219	-1.3995917
1277136610044	1.4982382	0.9942854	8.390134	-1.2259932	0.0	4.125	-12.625	-50.0	-1.0696073	1.3596734	-0.9848946
1277136610074	1.0351465	1.920469	9.384419	-0.17197037	0.0	4.375	-12.875	-50.0	-1.3433919	1.3423749	-0.4943642
1277136610114	0.040861044	0.95342433	7.5456724	-2.2008724	0.0	5.4375	-13.875	-49.25	-2.454295	1.4449949	-0.042830937
1277136610154	5.8976107	2.6423476	11.876944	3.714651	0.0	7.4375	-16.375	-48.25	-0.6606501	1.072478	-1.1495761
1277136610194	0.14982383	3.6774938	9.193735	0.09643936	0.0	9.6875	-20.125	-46.5	-1.6676335	1.1900039	-0.040718224
1277136610224	-1.2666923	8.430995	8.853226	2.484233	0.0	11.6875	-23.375	-44.5	-0.5575338	0.8042468	0.14912693
1277136610254	-0.19068487	3.718355	9.724928	0.60664654	0.0	13.1875	-26.875	-42.25	-2.3024614	1.2051567	0.05123717
1277136610294	1.9885708	1.9477097	9.915613	0.4922514	0.0	13.6875	-28.375	-41.25	-1.5223417	1.2971191	-0.79577845
1277136610334	-1.607201	4.944186	5.829509	-1.9956808	0.0	14.6875	-28.625	-40.75	-0.982214	0.8425209	0.3142942
1277136610374	-4.399372	8.349273	7.6273947	2.3276806	0.0	16.0	-28.875	-40.25	-0.0657044	0.6797257	0.48494846
1277136610414	3.255263	6.5922484	7.43671	0.6508417	0.0	17.75	-29.125	-40.25	-1.0821934	0.7911142	-0.45867664
1277136610444	0.42223078	4.9850473	8.240311	-0.1665411	0.0	18.5	-29.875	-39.5	-1.7414877	1.0251544	-0.08449778
1277136610484	-1.6889231	5.6660647	9.043911	0.9983988	0.0	19.0	-30.625	-38.5	-2.2753031	0.9917919	0.28969157
1277136610524	-3.0645783	4.8216033	9.765789	1.5075064	0.0	18.5	-31.875	-37.75	3.0254054	1.0414706	0.56618065
1277136610564	-6.428804	1.6889231	10.732834	2.8177586	0.0	18.0	-33.125	-36.1875	1.6761082	1.016299	1.3138897
1277136610605	-5.202973	4.944186	8.049625	0.97817135	0.0	15.6875	-35.0	-33.875	1.834893	0.84261304	0.810896
1277136610644	-0.88532263	8.008764	5.053149	-0.29568672	0.0	11.875	-39.3125	-29.125	-1.1643685	0.5601312	0.110097215
1277136610684	4.1814466	8.962189	1.3756552	0.17822552	0.0	5.5	-43.6875	-21.8125	-0.95860255	0.13821352	-0.43654394
1277136610724	8.962189	4.5628166	0.08172209	0.25052643	0.0	-2.3125	-47.1875	-13.1875	-1.2638462	0.008125838	-1.0998805
1277136610764	11.876944	3.759216	1.56634	2.7491016	0.0	-10.625	-49.4375	-5.875	-1.5093088	0.12507665	-1.264259
1277136610794	12.367276	6.3607025	2.1792557	4.2701826	0.0	-16.9375	-49.6875	-2.625	-1.6599307	0.15543666	-1.0957607
1277136610824	12.258313	6.4424243	2.8330324	4.328311	0.0	-19.4375	-49.1875	-2.625	-1.7278552	0.20179407	-1.086914
1277136610864	9.466142	7.205164	3.486809	2.590126	0.0	-19.125	-49.0625	-4.9375	-1.85096	0.2851146	-0.92019665
1277136610904	6.510526	6.238119	3.3778462	-0.17799854	0.0	-19.625	-48.3125	-6.4375	-2.0350096	0.35843804	-0.80676246
1277136610944	5.938472	6.3607025	2.4108016	-0.77692413	0.0	-19.6875	-49.1875	-7.0625	-1.8919765	0.27026314	-0.75108165
1277136610984	6.469665	6.932757	3.0237172	0.14636707	0.0	-20.9375	-48.6875	-7.0625	-2.0104804	0.30867767	-0.750859
1277136611024	6.3198414	6.701211	3.214402	-0.0506773	0.0	-22.1875	-48.9375	-7.3125	-2.0846982	0.3357532	-0.7561179
1277136611054	6.469665	6.701211	3.0237172	-0.013506889	0.0	-22.6875	-48.9375	-7.5625	-2.0211651	0.3138876	-0.7678198
1277136611094	6.973618	6.66035	2.7649305	0.2251215	0.0	-23.9375	-48.4375	-7.5625	-1.9194117	0.27923188	-0.8083711
1277136611134	8.158588	5.6252036	2.4108016	0.39224434	0.0	-25.25	-47.6875	-7.5625	-1.7285054	0.23863725	-0.96716404
1277136611174	8.308413	4.140586	2.5333846	-0.18416595	0.0	-26.0	-46.6875	-7.3125	-1.720539	0.2664181	-1.108461
1277136611214	6.8237944	7.3141265	2.9147544	0.6123905	0.0	-27.25	-46.6875	-5.8125	-2.2263718	0.2835365	-0.75073004
1277136611244	7.5456724	7.6954966	1.334794	1.0533457	0.0	-27.75	-46.1875	-4.0625	-1.7608948	0.123220846	-0.77556825
1277136611284	8.499097	8.771504	1.56634	2.5070562	0.0	-28.25	-45.9375	-2.8125	-1.8936863	0.12754852	-0.76962656
1277136611324	7.246025	8.730643	2.8738933	1.8975487	0.0	-29.0	-45.4375	-1.8125	-2.6091235	0.24808061	-0.6927401
1277136611364	8.962189	10.18802	-0.0	3.7623062	0.0	-29.0	-44.6875	-2.8125	-1.2223245	-0.0	-0.721474
1277136611404	9.534244	7.43671	-1.334794	2.358387	0.0	-29.5	-44.4375	-4.3125	-1.0435284	-0.10994516	-0.90837
1277136611444	9.112013	3.8273177	0.38136974	0.08387947	0.0	-30.0	-44.1875	-6.0625	-1.4231368	0.038568646	-1.1731429
1277136611474	9.275456	3.1054392	-1.7570249	0.13140678	0.0	-30.75	-43.6875	-8.5625	-1.1020416	-0.17773187	-1.2477248
1277136611514	5.6252036	1.607201	0.88532263	-3.889742	0.0	-32.5	-41.9375	-10.3125	-1.4504458	0.15018989	-1.2924967
1277136611554	3.759216	1.879608	3.9499009	-4.0389514	0.0	-34.25	-39.4375	-11.3125	-2.4642622	0.7543722	-1.1071488
1277136611594	1.1849703	4.7535014	13.0619135	4.1437445	0.0	-35.5625	-37.125	-13.875	2.5365314	1.211975	-0.24430436
1277136611634	0.53119355	4.862464	8.19945	-0.25904846	0.0	-34.75	-35.625	-17.875	2.2446697	1.0329164	-0.108812205
1277136611674	4.9850473	1.3075534	8.240311	-0.087436676	0.0	-32.75	-34.375	-23.125	-2.2934003	1.0118932	-1.3142797
1277136611714	2.3018389	2.8330324	8.076866	-0.9432249	0.0	-30.5	-32.125	-30.375	3.0191343	1.1463282	-0.6823166
1277136611744	2.1792557	3.0237172	10.038197	0.9011698	0.0	-28.5	-28.875	-35.375	2.899565	1.2152718	-0.6244976
1277136611784	2.9556155	1.607201	9.724928	0.4837818	0.0	-28.5	-25.625	-38.4375	-2.7675135	1.2377341	-1.0727421
1277136611824	3.405087	2.6423476	9.275456	0.42128754	0.0	-28.75	-21.875	-40.6875	3.1195867	1.135807	-0.9108618
1277136611874	1.1849703	-0.23154591	9.615966	-0.11518097	0.0	-28.5	-17.875	-41.9375	-2.2643318	1.4458898	-1.7637671
1277136611914	2.4516625	-0.42223078	10.228881	0.72040653	0.0	-29.0	-13.625	-42.4375	-2.2720234	1.3322197	-1.7413455
1277136611944	4.1814466	-2.070293	9.466142	0.74694824	0.0	-29.75	-9.3125	-43.1875	-1.6224467	1.1128418	-2.0305276
1277136611984	3.173541	-2.6423476	7.4639506	-1.276473	0.0	-31.25	-6.3125	-42.4375	-1.4480507	1.0654469	-2.2651124
1277136612024	4.6036777	-1.7978859	10.147159	1.4801149	0.0	-33.5	-4.8125	-40.9375	-2.0449317	1.117553	-1.9431145
1277136612054	3.6774938	-0.27240697	6.0474343	-2.723598	0.0	-35.8125	-4.5625	-39.6875	-2.4955256	1.0232209	-1.6447353
1277136612084	1.9885708	0.7627395	3.5276701	-5.6858926	0.0	-38.3125	-3.5625	-37.375	2.4438672	1.0276237	-1.2045407
1277136612124	2.4516625	1.7297841	4.5628166	-4.345689	0.0	-41.5625	-3.0625	-33.125	2.0681794	0.98910314	-0.9563515
1277136612164	0.9942854	3.9090397	3.9499009	-4.161217	0.0	-46.125	-3.8125	-25.125	1.4030453	0.77492577	-0.24907365
1277136612204	0.7627395	6.4424243	-2.070293	-2.9968987	0.0	-49.125	-6.5625	-12.625	1.2535441	-0.30890837	-0.11784468
1277136612244	8.471856	8.894087	0.38136974	2.4824743	0.0	-48.875	-12.625	1.1875	1.664841	0.03103809	-0.7610892
1277136612284	9.384419	10.119919	1.3756552	4.0631914	0.0	-46.875	-19.125	11.9375	2.226337	0.099346526	-0.7477065
1277136612324	13.102775	11.141444	-0.3405087	7.395979	0.0	-42.8125	-25.875	18.5	2.7122238	-0.019795284	-0.8661213
1277136612364	15.091345	10.501288	-0.84446156	8.598209	0.0	-38.8125	-31.625	20.25	-2.9333687	-0.045898646	-0.9628621
1277136612404	13.143636	9.507003	1.8387469	6.5187664	0.0	-36.8125	-34.625	20.25	-2.8951964	0.11287044	-0.9445928
1277136612434	11.958665	9.275456	1.0760075	5.3657446	0.0	-35.0625	-36.375	21.0	-2.8536758	0.07097835	-0.911095
1277136612474	10.419566	9.302697	0.08172209	4.1616793	0.0	-33.0	-37.125	23.0	-2.9009175	0.0058505605	-0.8419676
1277136612514	10.18802	5.7477865	1.334794	1.966815	0.0	-31.25	-37.375	25.0	-2.6211903	0.11361737	-1.0571383
1277136612554	8.158588	9.043911	-1.7978859	2.5054283	0.0	-28.75	-37.375	27.25	-2.960091	-0.1465502	-0.7339788
1277136612594	7.8861814	9.888372	-3.9090397	3.4316416	0.0	-25.25	-38.1875	29.5	-2.8718622	-0.29975152	-0.67322737
1277136612634	3.9090397	10.800936	-1.56634	1.7862015	0.0	-21.6875	-38.4375	31.0	2.8552551	-0.13552707	-0.3472514
1277136612674	3.5276701	11.985906	-4.3312707	3.4170523	0.0	-17.9375	-39.1875	32.25	2.78515	-0.33369708	-0.286236
1277136612714	4.099725	10.732834	-4.140586	2.405881	0.0	-15.1875	-39.4375	33.25	3.1348052	-0.3459006	-0.3648758
1277136612754	3.6774938	9.997335	-5.175732	2.0364437	0.0	-12.1875	-38.9375	34.3125	-2.989236	-0.4522888	-0.3524852
1277136612794	2.7921712	9.575105	-7.3549876	2.5858755	0.0	-10.9375	-37.6875	35.8125	-3.132491	-0.63540304	-0.28373948
1277136612834	4.5628166	6.510526	-6.0474343	0.18222904	0.0	-10.6875	-34.625	38.625	-2.2963135	-0.65028924	-0.61128736
1277136612874	8.812365	4.099725	-6.1291566	1.6838713	0.0	-10.125	-31.25	41.125	-2.3305154	-0.5626266	-1.1353544
1277136612914	8.117727	0.19068487	1.6480621	-1.521122	0.0	-12.375	-27.25	42.875	-2.598079	0.20024405	-1.5473107
1277136612954	3.486809	0.92618364	1.4573772	-5.915686	0.0	-15.4375	-22.4375	43.75	-2.7899969	0.38391602	-1.3111666
1277136612994	3.405087	4.7943625	-2.6423476	-3.3597493	0.0	-20.375	-19.75	41.8125	2.9501553	-0.42230412	-0.617557
1277136613034	3.7864566	8.430995	-2.3699405	-0.26539516	0.0	-25.8125	-18.3125	38.3125	2.6550987	-0.25101653	-0.42211476
1277136613074	5.829509	3.486809	0.7218784	-2.9756827	0.0	-31.25	-19.0625	32.5	-3.1327963	0.10587503	-1.0317523
1277136613114	7.6273947	5.8567495	0.5720546	-0.1730671	0.0	-36.5	-20.6875	26.25	2.941282	0.05941625	-0.91596425
1277136613157	13.375181	8.076866	-5.134871	6.640177	0.0	-39.75	-21.9375	20.0	2.7909539	-0.3175189	-1.0275363
1277136613194	9.275456	5.175732	4.399372	1.6901655	0.0	-42.0	-22.4375	15.75	3.1149874	0.39267376	-1.0618296
1277136613234	10.501288	5.053149	2.6832085	2.15207	0.0	-44.875	-21.25	12.1875	3.1281438	0.2262991	-1.122307
1277136613269	12.067628	7.3141265	-2.3018389	4.4909916	0.0	-45.9375	-20.5	10.1875	1.8819339	-0.16169801	-1.0259074
1277136613304	9.697687	6.5922484	-0.88532263	1.9528847	0.0	-46.9375	-18.75	9.9375	2.08825	-0.07535682	-0.9737733
1277136613334	8.689782	5.7886477	-1.525479	0.74549866	0.0	-47.6875	-17.25	9.4375	1.7523842	-0.14507407	-0.98315555
1277136613364	8.19945	5.6252036	-1.7297841	0.28622055	0.0	-47.4375	-16.25	10.9375	1.7544675	-0.17223705	-0.96949667
1277136613394	9.425281	3.6774938	-0.61291564	0.32920456	0.0	-47.4375	-14.5	11.9375	2.7452693	-0.060506966	-1.1987897
1277136613424	4.9850473	4.2495484	1.4573772	-3.0959644	0.0	-47.6875	-13.0	12.4375	2.375081	0.21891703	-0.8648764
1277136613454	7.1234417	4.4810944	1.1441092	-1.3135576	0.0	-47.9375	-10.1875	12.4375	2.4018648	0.13512135	-1.0092806
1277136613494	9.425281	4.903325	0.040861044	0.8178587	0.0	-47.125	-7.8125	12.125	2.2635846	0.0038459327	-1.0910951
1277136613524	11.413852	8.008764	-3.173541	4.493269	0.0	-47.125	-5.4375	11.6875	1.6652181	-0.22379051	-0.95895
1277136613554	10.378705	9.343558	-2.6832085	4.4137297	0.0	-47.125	-3.4375	10.4375	1.6810489	-0.18982552	-0.83783627
1277136613594	6.0474343	6.3607025	1.1849703	-0.9503441	0.0	-47.125	-3.1875	9.1875	1.9773499	0.13420206	-0.7601565
1277136613624	-0.6537767	7.3958488	0.95342433	-2.3209958	0.0	-47.375	-3.6875	7.1875	1.7184126	0.12771375	0.08816861
1277136613654	0.5720546	8.240311	-4.140586	-0.56682205	0.0	-46.875	-5.4375	5.4375	1.5918211	-0.46466538	-0.069310285
1277136613694	2.8330324	6.973618	-2.2201166	-1.9589539	0.0	-46.125	-8.9375	2.9375	1.4585867	-0.28681672	-0.38588268
1277136613734	9.302697	7.5456724	-0.5720546	2.1852055	0.0	-45.125	-12.75	0.9375	1.5104886	-0.047721706	-0.88930714
1277136613774	9.084772	7.5865335	-0.42223078	2.0367813	0.0	-44.625	-16.75	0.0625	1.4732192	-0.035658605	-0.8750267
1277136613814	6.238119	5.407278	1.8387469	-1.3488855	0.0	-43.125	-20.75	-0.4375	2.2237432	0.21915346	-0.8566225
1277136613854	8.499097	5.9793324	3.5276701	1.1674795	0.0	-41.125	-24.25	0.3125	2.900762	0.32726386	-0.95770806
1277136613894	8.662541	7.7772183	1.920469	1.9922037	0.0	-38.875	-27.25	1.3125	2.5758255	0.16349484	-0.83919877
1277136613924	7.205164	7.8861814	0.84446156	0.90872955	0.0	-36.875	-29.25	2.3125	2.243258	0.078890175	-0.7403024
1277136613964	6.66035	7.5865335	0.7218784	0.3144598	0.0	-35.875	-30.75	2.8125	2.31479	0.071384646	-0.7204799
1277136614004	7.3141265	6.701211	1.7297841	0.2628498	0.0	-34.8125	-31.75	3.8125	3.1325548	0.17264082	-0.8291021
1277136614034	6.469665	7.205164	1.56634	0.002752304	0.0	-34.5625	-32.75	4.3125	2.8281567	0.16036387	-0.7316651
1277136614074	7.246025	6.1700177	1.1441092	-0.22108936	0.0	-34.0625	-33.0	4.0625	-2.8371646	0.1196428	-0.8654299
1277136614114	7.668256	5.6660647	1.607201	-0.1376524	0.0	-34.0625	-32.5	3.8125	-2.6686509	0.16699721	-0.93443793
1277136614154	6.5922484	5.053149	1.7297841	-1.322299	0.0	-34.8125	-31.75	2.8125	-2.8262904	0.20531888	-0.9168004
1277136614194	6.1700177	7.014479	1.56634	-0.33429813	0.0	-35.625	-30.0	0.0625	2.4069152	0.16612215	-0.72143596
1277136614234	3.5957718	5.706926	0.14982383	-3.059723	0.0	-35.625	-29.75	-3.1875	1.4175421	0.022208057	-0.562238
1277136614268	1.0760075	7.504812	1.1441092	-2.1392531	0.0	-35.375	-30.5	-5.4375	1.5668077	0.14977679	-0.14240518
1277136614304	1.9477097	13.824653	6.891896	5.7629623	0.0	-35.125	-30.75	-4.9375	1.9233915	0.45855233	-0.13996549
1277136614344	3.9090397	17.924377	7.7363577	10.103525	0.0	-36.125	-30.25	-2.6875	1.9649359	0.39907154	-0.21472308
1277136614374	11.958665	14.669114	-0.08172209	9.119503	0.0	-38.375	-27.75	1.3125	1.6618601	-0.0043179584	-0.6839573
1277136614404	8.117727	4.2904096	0.84446156	-0.58611774	0.0	-39.375	-24.75	5.3125	-2.7914662	0.09171342	-1.0845912
1277136614434	4.903325	4.440233	-2.5333846	-2.7231264	0.0	-40.625	-21.5	7.3125	0.89409524	-0.36574453	-0.8349203
1277136614464	2.8330324	4.7943625	0.38136974	-4.2247663	0.0	-40.625	-19.5	9.5625	2.0206764	0.06837603	-0.53370816
1277136614494	2.6423476	5.434519	1.2258313	-3.6407232	0.0	-40.875	-18.5	10.8125	2.1177375	0.20014077	-0.45255935
1277136614534	3.5276701	5.325556	0.10896278	-3.4177637	0.0	-41.875	-17.75	11.3125	2.015256	0.017055877	-0.5850458
1277136614574	3.255263	5.6252036	0.95342433	-3.237885	0.0	-42.625	-17.25	10.5625	2.0784483	0.14565966	-0.52460486
1277136614614	4.630918	7.6273947	1.9885708	-0.6646061	0.0	-42.625	-17.0	9.8125	2.136972	0.21927218	-0.5456551
1277136614654	9.275456	6.891896	3.718355	2.3324795	0.0	-42.625	-16.75	8.8125	2.641691	0.31131583	-0.9317742
1277136614694	11.141444	4.7943625	4.0180025	2.9707537	0.0	-42.375	-16.75	7.8125	3.078937	0.31988943	-1.16443
1277136614734	12.980191	7.273266	3.255263	5.424321	0.0	-42.125	-17.25	8.0625	2.835371	0.21538807	-1.0600524
1277136614774	7.8180795	7.5456724	-1.2666923	1.1324558	0.0	-42.125	-17.0	9.0625	1.8085291	-0.11605521	-0.8031268
1277136614815	8.853226	15.554437	1.2666923	8.135609	0.0	-41.125	-17.25	10.8125	2.024872	0.07065704	-0.51744705
1277136614854	6.5513873	7.246025	0.38136974	-0.030608177	0.0	-40.625	-17.25	12.0625	2.2035692	0.03902055	-0.73509514
1277136614894	3.336985	3.990762	-0.7218784	-4.5547214	0.0	-40.375	-17.5	12.875	1.926999	-0.13788666	-0.6964144
1277136614924	2.3699405	5.7477865	-0.38136974	-3.577757	0.0	-39.875	-18.25	12.0625	1.8957645	-0.06126424	-0.39108372
1277136614954	3.6774938	8.921328	-1.6889231	-0.010399818	0.0	-40.125	-19.0	11.5625	1.7602348	-0.17327078	-0.3909909
1277136614994	3.255263	9.384419	-2.4108016	0.41470146	0.0	-39.625	-19.5	12.0625	1.7088686	-0.2381028	-0.3338922
1277136615034	3.8273177	8.19945	-2.6832085	-0.3684864	0.0	-38.875	-20.0	13.125	1.6734196	-0.28826943	-0.43671808
1277136615074	5.47538	7.6273947	-1.9477097	-0.21756744	0.0	-38.125	-20.5	14.875	1.9079719	-0.20454066	-0.62261033
1277136615114	6.742072	7.668256	-1.3756552	0.49626732	0.0	-37.125	-20.0	16.375	2.2118282	-0.13392088	-0.72121423
1277136615154	7.8861814	6.782933	-1.4982382	0.7026205	0.0	-35.875	-20.0	17.875	2.538675	-0.14305086	-0.86046576
1277136615194	8.049625	6.0474343	-0.88532263	0.30036354	0.0	-35.125	-19.75	19.625	2.822241	-0.08770728	-0.9264836
1277136615234	8.076866	5.5571017	-0.29964766	0.0018634796	0.0	-33.5625	-19.25	21.375	2.986069	-0.030554505	-0.9681512
1277136615264	8.008764	5.284695	0.19068487	-0.20953274	0.0	-32.3125	-19.5	23.375	3.0786304	0.019870281	-0.9875181
1277136615304	8.62168	6.2789803	0.53119355	0.8723545	0.0	-31.5625	-19.75	24.875	3.043895	0.049762394	-0.94134283
1277136615344	8.62168	7.5456724	-0.6537767	1.669323	0.0	-29.8125	-20.0	25.625	2.9493816	-0.057000034	-0.8518545
1277136615384	7.8861814	8.499097	-1.4165162	1.873805	0.0	-29.5625	-20.5	26.125	2.799093	-0.12157159	-0.74800915
1277136615424	9.384419	8.471856	2.4108016	3.063923	0.0	-29.8125	-20.0	25.875	2.982934	0.18842413	-0.83645976
1277136615464	8.308413	8.281172	-0.6946377	1.9445219	0.0	-30.8125	-19.75	24.625	2.8088908	-0.059146687	-0.7870402
1277136615494	9.575105	10.228881	0.61291564	4.217911	0.0	-31.8125	-19.75	23.875	2.776266	0.04371694	-0.75239784
1277136615524	7.3141265	15.4046135	-2.9147544	7.493477	0.0	-33.0625	-20.0	23.125	2.2549262	-0.16928913	-0.44328597
1277136615564	7.6273947	15.704261	0.14982383	7.652542	0.0	-34.5625	-20.0	22.125	2.3574526	0.008581477	-0.4521338
1277136615605	7.5456724	8.689782	0.61291564	1.7183294	0.0	-35.625	-19.0	22.375	2.6062407	0.053206593	-0.7150446
1277136615644	6.0882955	4.099725	-0.9125633	-2.4101744	0.0	-37.125	-17.5	22.375	2.7945557	-0.123693295	-0.97816175
1277136615685	3.2961242	1.56634	-2.4925237	-5.3873143	0.0	-38.375	-15.5	22.875	0.5106415	-0.5992268	-1.1271794
1277136615754	1.56634	3.0645783	-0.0	-6.3649845	0.0	-39.625	-13.75	23.875	2.259135	-0.0	-0.4724969
1277136615794	0.14982383	3.486809	1.0351465	-6.1663465	0.0	-41.125	-11.4375	23.125	2.1390643	0.28833583	-0.042942334
1277136615824	4.2904096	6.2789803	1.3075534	-2.0902452	0.0	-42.375	-10.1875	22.125	2.3215592	0.17027271	-0.5994278
1277136615864	16.3989	7.4639506	5.325556	8.981537	0.0	-43.375	-9.9375	20.375	2.8687944	0.28739223	-1.1436683
1277136615904	16.507862	1.9477097	3.214402	7.123661	0.0	-43.625	-9.9375	18.625	-2.9654787	0.19102034	-1.4533525
1277136615944	9.152874	3.405087	2.1111538	0.18468094	0.0	-43.375	-11.1875	18.125	2.9722583	0.21290332	-1.2146375
1277136615984	12.871228	16.589584	3.568531	11.491642	0.0	-42.625	-11.6875	18.625	2.3124	0.16834411	-0.6598484
1277136616024	5.829509	10.310603	1.56634	2.1409492	0.0	-42.875	-11.4375	18.125	2.1784434	0.13147931	-0.51458186
1277136616064	1.2258313	1.0351465	-2.3426998	-6.967208	0.0	-42.625	-12.1875	17.375	0.65788424	-0.97030175	-0.8695364
1277136616104	3.6774938	4.399372	-2.0294318	-3.7241316	0.0	-42.375	-12.75	16.625	1.7072258	-0.34017274	-0.69625896
1277136616144	7.7363577	7.8589406	-2.8738933	1.5895529	0.0	-43.125	-13.75	14.875	1.7716798	-0.25493228	-0.77753806
1277136616184	7.5456724	6.66035	-1.4982382	0.3689165	0.0	-42.125	-14.75	14.375	2.0211332	-0.14777607	-0.8476379
1277136616224	5.09401	5.09401	-1.3075534	-2.484931	0.0	-41.875	-15.75	13.875	1.9031007	-0.17954873	-0.7853982
1277136616254	4.7126403	6.1291566	-0.5720546	-2.0540519	0.0	-40.875	-16.5	14.375	2.047212	-0.073855884	-0.6554808
1277136616294	6.4015636	7.6954966	-0.46309182	0.21408558	0.0	-39.875	-16.5	15.375	2.1653771	-0.04622982	-0.6938672
1277136616334	7.014479	7.9270425	-0.6946377	0.80105686	0.0	-39.125	-16.25	17.375	2.246107	-0.06553114	-0.72439826
1277136616374	6.4424243	5.8567495	0.6946377	-1.0723009	0.0	-37.875	-15.25	19.625	2.5809696	0.07961349	-0.8329813
1277136616404	10.310603	6.1291566	7.6954966	4.444517	0.0	-36.375	-14.5	22.125	2.9878309	0.5704259	-1.0344664
1277136616434	9.534244	7.43671	-0.6946377	2.3048725	0.0	-34.8125	-13.75	24.375	2.6985834	-0.05738495	-0.9083701
1277136616474	11.372991	8.049625	-3.636633	4.5935755	0.0	-33.5625	-14.0	24.875	2.6565502	-0.2553045	-0.95486504
1277136616504	11.264028	7.43671	6.0882955	5.000453	0.0	-32.8125	-14.25	25.125	2.9776163	0.42374155	-0.9872717
1277136616534	11.917805	6.782933	2.2609777	4.091345	0.0	-32.5625	-15.5	23.875	3.0522058	0.16341002	-1.053375
1277136616574	9.302697	6.3198414	-1.607201	1.5539694	0.0	-32.3125	-17.75	22.125	2.936527	-0.14194746	-0.9740603
1277136616614	10.501288	8.689782	-1.920469	3.958435	0.0	-32.8125	-19.5	20.875	2.776184	-0.13997404	-0.8795125
1277136616654	9.112013	11.304889	-4.140586	5.2921495	0.0	-33.3125	-21.25	19.375	2.1566882	-0.2777918	-0.6784034
1277136616694	10.147159	8.281172	-2.8738933	3.6023731	0.0	-34.3125	-21.5	17.875	2.624018	-0.21600105	-0.88631064
1277136616734	7.504812	4.0180025	2.982856	-0.7864523	0.0	-34.5625	-20.5	17.375	-3.082373	0.33703074	-1.079239
1277136616764	4.7943625	2.6423476	-0.7218784	-4.2849636	0.0	-35.375	-18.75	17.125	3.0859869	-0.13111043	-1.0670811
1277136616794	3.0645783	2.4108016	-1.3756552	-5.6719155	0.0	-36.375	-17.5	16.625	1.8565135	-0.3391727	-0.90423846
1277136616834	0.8036005	3.5957718	-1.4165162	-5.8592625	0.0	-37.875	-16.0	16.125	1.7621119	-0.3670345	-0.21987182
1277136616874	-0.6946377	5.09401	0.46309182	-4.6446824	0.0	-39.625	-15.25	15.125	1.9389427	0.089833036	0.13552772
1277136616914	0.08172209	5.706926	0.19068487	-4.0959544	0.0	-40.375	-15.5	13.875	1.915259	0.033397038	-0.01431883
1277136616944	9.193735	10.61025	8.921328	6.8274193	0.0	-40.375	-16.25	13.375	2.5866518	0.5660811	-0.713993
1277136616994	19.57244	2.5606253	0.46309182	9.938011	0.0	-39.375	-18.25	13.375	-2.405717	0.023456179	-1.4407071
1277136617034	13.33432	5.012288	-3.3642259	4.8304653	0.0	-38.875	-19.75	14.125	-2.237752	-0.23191546	-1.2112423
1277136617064	8.499097	14.859799	7.8861814	9.041164	0.0	-37.375	-21.0	15.375	2.4980848	0.43169796	-0.51954085
1277136617104	1.56634	6.1700177	-0.7627395	-3.3953857	0.0	-36.625	-21.75	15.875	1.9548216	-0.119251095	-0.24861121
1277136617144	4.944186	2.7921712	-1.7297841	-3.8708816	0.0	-36.125	-22.0	16.375	-2.747199	-0.29570782	-1.0567082
1277136617184	7.4639506	5.2165933	-2.070293	-0.46804714	0.0	-35.375	-23.25	15.625	2.9381478	-0.22354925	-0.96080554
1277136617214	7.8180795	6.2108784	-2.3426998	0.44935417	0.0	-35.875	-24.0	14.375	2.4398618	-0.23045678	-0.899464
1277136617254	6.510526	5.407278	-0.9942854	-1.2852526	0.0	-35.875	-25.0	14.375	2.759953	-0.11694742	-0.8777065
1277136617294	4.944186	5.6252036	-1.0351465	-2.2462654	0.0	-35.625	-25.75	14.875	2.3083348	-0.1373486	-0.7210541
1277136617334	6.0201936	7.082581	-0.7627395	-0.47994328	0.0	-35.625	-25.0	16.125	2.427047	-0.081871584	-0.70449406
1277136617374	6.5513873	6.5513873	-0.29964766	-0.5367451	0.0	-34.8125	-25.0	18.125	2.7488387	-0.032330416	-0.7853982
1277136617414	7.9679036	6.0201936	-0.5720546	0.1962223	0.0	-33.5625	-24.0	19.875	3.0796843	-0.057220254	-0.92374915
1277136617444	11.686258	5.829509	5.7886477	4.4783154	0.0	-32.3125	-23.25	22.125	-2.9668624	0.41722664	-1.1080816
1277136617484	11.563675	5.706926	4.7126403	3.9227552	0.0	-30.5625	-23.75	24.125	-2.927091	0.35037667	-1.1123446
1277136617524	10.841797	6.238119	-3.3642259	3.1462145	0.0	-29.8125	-24.0	24.875	-2.745767	-0.26274085	-1.0486789
1277136617554	12.980191	7.205164	4.0588636	5.5840654	0.0	-29.5625	-25.0	24.875	-2.924249	0.2668783	-1.0640543
1277136617584	10.760075	6.510526	0.6537767	2.786744	0.0	-30.3125	-26.0	22.875	-2.8841538	0.051937602	-1.0266621
1277136617624	10.56939	8.390134	-1.0760075	3.7308588	0.0	-31.8125	-27.25	20.375	-3.049766	-0.07956735	-0.8998385
1277136617664	8.853226	11.645397	-3.8273177	5.3143034	0.0	-33.5625	-28.0	18.125	2.1753728	-0.25589722	-0.6500187
1277136617704	9.343558	9.302697	-0.61291564	3.3925133	0.0	-35.375	-28.0	16.125	2.791797	-0.04645265	-0.7875895
1277136617744	9.043911	5.366417	0.38136974	0.71647644	0.0	-37.375	-27.75	15.375	-2.8674722	0.03624904	-1.0352635
1277136617778	5.284695	2.7921712	-0.50395286	-3.8084679	0.0	-39.625	-26.5	14.375	-2.697519	-0.08411676	-1.0847265
1277136617814	2.4925237	1.8387469	-2.1792557	-6.019459	0.0	-41.125	-25.25	14.125	0.24879208	-0.6131273	-0.93521065
1277136617854	2.7649305	2.6423476	-0.7627395	-5.906828	0.0	-43.375	-23.75	13.125	1.839872	-0.19685204	-0.8080643
1277136617894	0.6537767	5.243834	-0.14982383	-4.520095	0.0	-44.875	-22.0	11.8125	1.8287795	-0.028344337	-0.12403529
1277136617924	0.50395286	5.134871	0.7627395	-4.591035	0.0	-45.1875	-21.0	11.0625	1.8996311	0.14676787	-0.09782994
1277136617964	6.3607025	7.504812	3.445948	0.61713505	0.0	-45.1875	-21.25	10.3125	2.4443066	0.33692345	-0.70307
1277136618004	19.422615	3.445948	3.405087	10.2110195	0.0	-44.875	-22.5	9.8125	-2.4657788	0.17093526	-1.3952042
1277136618034	10.841797	-0.7627395	-0.6946377	1.0841188	0.0	-44.375	-24.0	9.8125	-1.8266281	-0.06382557	-1.6410323
1277136618064	7.3141265	5.5571017	-2.5606253	-0.2706852	0.0	-44.125	-24.75	10.5625	1.1318517	-0.27185932	-0.92106754
1277136618104	12.14935	15.854085	7.0553403	11.376753	0.0	-44.625	-25.25	10.8125	2.4827368	0.33954683	-0.65386623
1277136618144	4.140586	3.5276701	-2.2609777	-3.9159007	0.0	-44.875	-25.25	10.8125	0.8097867	-0.39392784	-0.86515754
1277136618184	4.630918	1.7978859	-2.5606253	-4.2178583	0.0	-45.1875	-26.0	10.3125	-0.4995724	-0.47593704	-1.200473
1277136618224	7.014479	4.7126403	-2.4925237	-0.9961691	0.0	-45.4375	-27.0	9.0625	0.43883252	-0.28682086	-0.9792175
1277136618264	7.8861814	6.66035	-2.2609777	0.76047516	0.0	-45.4375	-27.5	7.8125	1.1626757	-0.2156305	-0.86946917
1277136618294	5.706926	5.9793324	-0.84446156	-1.4979477	0.0	-44.875	-28.0	8.5625	1.8177812	-0.10181159	-0.76209235
1277136618334	5.6252036	5.7886477	-0.42223078	-1.7239752	0.0	-44.375	-27.75	10.3125	2.120148	-0.05226278	-0.77107936
1277136618374	6.973618	6.6331096	0.08172209	-0.1818819	0.0	-44.375	-27.5	12.625	2.4571016	0.008490914	-0.81041795
1277136618404	6.8237944	5.5162406	0.6946377	-1.0046272	0.0	-43.625	-26.5	15.375	2.8023748	0.07900011	-0.8909645
1277136618434	6.8237944	5.175732	0.46309182	-1.2295399	0.0	-43.125	-26.0	17.625	2.8841312	0.054017857	-0.9218882
1277136618474	8.349273	6.4424243	0.3405087	0.7447071	0.0	-43.125	-25.75	19.125	2.8616412	0.032277156	-0.9136045
1277136618504	9.847511	7.3958488	0.6537767	2.5262117	0.0	-42.375	-25.5	21.125	2.9313717	0.053035803	-0.9266316
1277136618534	9.575105	6.4015636	3.1054392	2.1225748	0.0	-41.625	-25.5	22.625	3.0856013	0.26335564	-0.98148185
1277136618574	10.079058	5.7477865	1.1441092	1.8523998	0.0	-41.125	-26.0	23.125	-3.0621047	0.09828875	-1.0525239
1277136618614	14.560152	5.6660647	-0.9942854	5.84873	0.0	-40.875	-26.25	22.625	-2.6836202	-0.06355355	-1.1996794
1277136618654	11.686258	5.243834	3.405087	3.4470682	0.0	-41.125	-26.75	20.875	-2.9136322	0.2598293	-1.1490091
1277136618694	9.507003	9.152874	1.1168685	3.4374275	0.0	-42.625	-27.75	18.125	2.7356951	0.08442992	-0.80437404
1277136618734	7.7772183	12.299174	-3.759216	5.222871	0.0	-44.625	-27.0	15.125	1.6976925	-0.2528064	-0.5638577
1277136618764	7.9270425	9.00305	0.5720546	2.2025194	0.0	-46.6875	-25.75	13.125	2.2810562	0.047652856	-0.72192764
1277136618794	7.3958488	6.510526	1.9885708	0.24521255	0.0	-48.6875	-23.75	11.3125	2.551608	0.19914478	-0.8489754
1277136618834	6.4424243	4.372132	-0.040861044	-2.0206347	0.0	-49.9375	-21.25	10.8125	2.35972	-0.005248029	-0.9745455
1277136618874	4.862464	2.4516625	-2.3018389	-3.8945723	0.0	-50.6875	-19.5	11.3125	0.47101557	-0.39992055	-1.103793
1277136618914	3.990762	1.607201	-0.29964766	-5.493987	0.0	-51.1875	-17.75	10.8125	2.7800322	-0.06953692	-1.1879385
1277136618954	2.6832085	3.759216	0.10896278	-5.1867814	0.0	-51.9375	-16.0	9.8125	1.8880599	0.023587875	-0.6199066
1277136618994	1.879608	5.09401	0.53119355	-4.351008	0.0	-52.6875	-14.5	9.0625	1.837213	0.0975204	-0.35348594
1277136619034	4.5628166	5.5162406	2.4516625	-2.2396917	0.0	-52.9375	-14.0	7.5625	2.1660695	0.32995003	-0.69108427
1277136619064	17.120777	6.891896	9.534244	10.9664345	0.0	-52.9375	-15.25	6.5625	2.962112	0.47683665	-1.1880972
1277136619104	17.62473	0.7627395	3.445948	8.167982	0.0	-52.6875	-16.5	7.3125	-2.4570305	0.19290593	-1.5275466
1277136619144	11.645397	5.9793324	1.1168685	3.3316555	0.0	-51.9375	-17.0	7.8125	2.5341518	0.08511128	-1.0964465
1277136619184	7.082581	12.980191	4.630918	5.688308	0.0	-51.4375	-16.75	9.3125	2.078239	0.30350426	-0.49949378
1277136619224	4.2495484	4.399372	-1.4982382	-3.509202	0.0	-50.9375	-16.25	10.5625	1.533692	-0.24021551	-0.7680771
1277136619254	6.0474343	2.1792557	-1.8387469	-3.1207242	0.0	-50.1875	-16.5	10.5625	0.32906798	-0.27860793	-1.2249217
1277136619284	7.1234417	4.1814466	-2.5606253	-1.1588345	0.0	-49.6875	-18.0	10.5625	1.0678858	-0.30060783	-1.039992
1277136619324	7.5865335	6.0201936	-3.0237172	0.3393383	0.0	-49.1875	-19.75	10.0625	1.2194679	-0.30261874	-0.9000088
1277136619364	6.6331096	5.434519	-0.46309182	-1.2190666	0.0	-48.6875	-20.5	9.8125	2.0111046	-0.053951915	-0.88439626
1277136619404	5.7886477	5.012288	0.3405087	-2.1419635	0.0	-47.9375	-21.5	11.3125	2.3008013	0.044440277	-0.8571537
1277136619434	7.082581	5.938472	3.405087	0.04337597	0.0	-47.4375	-22.25	13.375	2.7214403	0.35297742	-0.8730392
1277136619474	8.349273	5.706926	1.8387469	0.4724722	0.0	-46.9375	-22.0	14.625	2.8017197	0.1798497	-0.97121406
1277136619544	6.8237944	4.0180025	-0.14982383	-1.8863621	0.0	-46.6875	-22.25	16.125	2.8518524	-0.01891759	-1.0386362
1277136619584	8.281172	4.8216033	-0.42223078	-0.21478176	0.0	-46.6875	-22.5	16.125	2.8570015	-0.04403389	-1.0435404
1277136619614	9.234595	5.7477865	-0.27240697	1.0740204	0.0	-46.1875	-22.25	16.125	2.7857661	-0.025038479	-1.0140553
1277136619654	8.580819	6.0201936	-0.08172209	0.6757097	0.0	-45.6875	-23.0	16.875	2.7189586	-0.007796233	-0.9590059
1277136619694	9.343558	7.246025	0.27240697	2.0204868	0.0	-44.875	-23.25	18.125	2.6991224	0.023034407	-0.9111675
1277136619734	14.9006605	6.891896	2.5333846	6.80497	0.0	-43.875	-23.0	20.125	-3.0522833	0.15310422	-1.1375773
1277136619764	14.2877445	4.903325	1.920469	5.420643	0.0	-43.875	-23.25	20.625	-2.8585799	0.12645696	-1.2402065
1277136619794	11.223166	4.7943625	1.4573772	2.484376	0.0	-43.625	-23.5	19.875	-2.9685202	0.118852064	-1.1670768
1277136619824	10.079058	8.158588	1.607201	3.2598362	0.0	-44.125	-23.75	18.125	2.772456	0.12331407	-0.890314
1277136619864	8.308413	13.102775	-2.9556155	5.987275	0.0	-45.6875	-23.5	15.125	1.8181392	-0.18824604	-0.5651133
1277136619904	7.6954966	10.651112	0.46309182	3.3417826	0.0	-46.6875	-22.25	12.875	2.0986	0.035227593	-0.6256718
1277136619944	8.281172	5.6252036	0.27240697	0.20808506	0.0	-48.6875	-20.25	12.0625	2.474314	0.027203972	-0.9741147
1277136619974	5.434519	2.5606253	-1.0351465	-3.710559	0.0	-49.6875	-18.0	12.625	2.1923618	-0.17063174	-1.1304711
1277136620014	3.5957718	1.7570249	-1.4165162	-5.5612726	0.0	-50.4375	-16.0	12.625	0.94933313	-0.3401843	-1.1162809
1277136620044	2.070293	2.3426998	-0.14982383	-6.676666	0.0	-51.6875	-13.75	12.625	1.910774	-0.047885574	-0.723748
1277136620074	1.7570249	3.7864566	-0.5720546	-5.593381	0.0	-52.4375	-11.4375	12.0625	1.7454894	-0.13619518	-0.43445885
1277136620114	1.1441092	4.862464	0.08172209	-4.8107295	0.0	-53.4375	-9.9375	10.3125	1.7820972	0.016358493	-0.23109068
1277136620154	2.8330324	6.5922484	0.5720546	-2.6086602	0.0	-53.9375	-9.6875	9.5625	1.82603	0.07955812	-0.4058888
1277136620194	16.630445	6.6331096	8.853226	10.1670685	0.0	-53.6875	-10.6875	8.8125	2.8376071	0.4592141	-1.1912788
1277136620234	16.208214	-3.718355	1.6889231	6.9081593	0.0	-53.4375	-11.4375	9.5625	-2.1319604	0.10121625	-1.796306
1277136620277	6.782933	0.9942854	-2.070293	-2.6454425	0.0	-52.4375	-13.0	11.3125	-0.83972216	-0.29328477	-1.4252466
1277136620314	14.859799	17.583868	5.6660647	13.902216	0.0	-51.9375	-13.25	13.125	2.2109416	0.24132049	-0.7016316
1277136620354	5.434519	6.0201936	0.6946377	-1.6666718	0.0	-51.9375	-13.5	13.875	2.1098545	0.085440464	-0.734313
1277136620384	2.9556155	1.0760075	-2.1111538	-6.0184546	0.0	-51.6875	-14.75	13.625	0.20300505	-0.59112805	-1.2216554
1277136620424	4.7535014	5.012288	-2.3018389	-2.5253544	0.0	-51.4375	-15.0	12.625	1.4728614	-0.3216479	-0.75890505
1277136620454	8.580819	7.6273947	-2.2201166	1.8867893	0.0	-51.4375	-15.75	11.8125	1.6736332	-0.19101956	-0.844154
1277136620494	7.205164	5.8976107	-1.1168685	-0.42882538	0.0	-50.9375	-16.75	12.0625	1.8730577	-0.11938012	-0.884861
1277136620534	5.47538	4.2904096	-0.6946377	-2.815948	0.0	-50.6875	-17.5	11.8125	1.9375083	-0.0995302	-0.9061468
1277136620564	6.6331096	5.284695	-0.27240697	-1.3213482	0.0	-50.9375	-18.25	11.5625	2.0869784	-0.03210891	-0.89806193
1277136620604	7.164303	5.6252036	0.6946377	-0.67140675	0.0	-50.6875	-18.75	11.3125	2.3132749	0.07611279	-0.905163
1277136620634	7.246025	4.903325	0.7218784	-1.0277786	0.0	-50.9375	-18.75	12.0625	2.469291	0.08232202	-0.9758854
1277136620674	8.471856	5.5162406	0.6537767	0.32393074	0.0	-50.4375	-18.5	12.625	2.4967046	0.06457985	-0.99363035
1277136620714	9.80665	6.238119	0.7627395	1.8409376	0.0	-49.9375	-18.5	15.125	2.5975273	0.065531656	-1.0042468
1277136620754	10.18802	5.325556	2.6014864	1.9799957	0.0	-49.9375	-18.0	17.125	2.8931615	0.22254723	-1.0891327
1277136620784	10.337844	6.742072	1.3756552	2.611843	0.0	-48.9375	-17.5	18.375	2.673129	0.11100255	-0.9928944
1277136620824	11.141444	7.4639506	2.3426998	3.8069677	0.0	-48.4375	-17.5	19.875	2.7264605	0.17294589	-0.98054016
1277136620864	10.528529	5.175732	2.152015	2.1210194	0.0	-48.4375	-18.0	19.125	2.9579961	0.18141556	-1.1138984
1277136620904	10.61025	6.4015636	0.5720546	2.5983763	0.0	-48.1875	-19.0	17.375	2.7291327	0.046131108	-1.0279262
1277136620934	10.760075	12.026767	-4.0588636	6.833563	0.0	-48.9375	-19.5	15.625	1.7250484	-0.24640484	-0.72986656
1277136620964	10.61025	10.460427	-1.6480621	5.183816	0.0	-50.1875	-18.25	13.875	1.9340377	-0.11016337	-0.79250854
1277136621004	10.61025	7.504812	2.152015	3.366458	0.0	-50.9375	-16.5	12.875	2.49341	0.16409977	-0.9551764
1277136621044	6.973618	4.2904096	1.4165162	-1.4972897	0.0	-51.6875	-13.75	13.125	2.524474	0.17130901	-1.0192504
1277136621084	3.568531	2.2609777	-2.4925237	-4.901642	0.0	-51.9375	-10.4375	13.625	0.9561218	-0.53304577	-1.0060453
1277136621124	2.3426998	1.7570249	-0.040861044	-6.8779902	0.0	-52.1875	-8.1875	12.625	2.021159	-0.013952583	-0.9272952
1277136621164	0.6946377	3.5957718	-0.0	-6.1443973	0.0	-52.9375	-5.1875	11.3125	1.7891067	-0.0	-0.1908311
1277136621204	0.8036005	4.5628166	1.4165162	-4.9619017	0.0	-53.9375	-3.6875	10.3125	1.8254169	0.2967165	-0.17433159
1277136621244	4.099725	7.7363577	2.070293	-0.8097019	0.0	-54.6875	-3.9375	8.3125	1.8787322	0.2321913	-0.4873036
1277136621277	17.474907	8.539958	8.689782	11.496296	0.0	-54.9375	-4.6875	7.8125	2.5252686	0.42016882	-1.1162308
1277136621314	17.079916	-2.2609777	3.445948	7.7634983	0.0	-54.6875	-5.6875	7.8125	-2.5267372	0.19740476	-1.7024075
1277136621354	10.61025	1.56634	0.3405087	0.9239969	0.0	-53.6875	-6.6875	8.5625	3.0229404	0.03173768	-1.4242297
1277136621394	12.762266	16.548723	3.568531	11.394058	0.0	-52.9375	-7.6875	10.5625	1.996477	0.16912644	-0.65692747
1277136621434	4.2495484	6.2789803	0.14982383	-2.223333	0.0	-52.1875	-8.4375	11.5625	1.8795384	0.019758316	-0.5949781
1277136621474	3.9499009	0.8036005	-2.1111538	-5.256435	0.0	-51.6875	-9.6875	12.0625	0.059127297	-0.48246914	-1.3700874
1277136621514	6.932757	4.7126403	-1.334794	-1.3182011	0.0	-51.4375	-11.1875	10.5625	1.7098798	-0.15790366	-0.97378093
1277136621554	9.275456	7.3549876	-1.0760075	2.0798016	0.0	-50.9375	-11.6875	9.8125	1.8107111	-0.09064794	-0.90036803
1277136621594	5.407278	4.4810944	-0.42223078	-2.7712297	0.0	-50.6875	-13.0	9.8125	1.8726848	-0.06005109	-0.87878966
1277136621624	5.243834	4.1814466	-0.38136974	-3.088932	0.0	-50.1875	-14.25	9.5625	1.8969619	-0.056801263	-0.89764124
1277136621664	7.1234417	5.366417	0.313268	-0.8825264	0.0	-49.6875	-15.0	10.8125	2.1805518	0.035110716	-0.9251572
1277136621704	8.281172	5.5571017	0.6537767	0.18767834	0.0	-49.9375	-15.25	10.8125	2.3183858	0.06546152	-0.9797635
1277136621744	7.0553403	4.7943625	0.8036005	-1.2387152	0.0	-49.6875	-14.75	11.0625	2.3536081	0.09392968	-0.97393656
1277136621778	7.014479	5.434519	0.53119355	-0.91738224	0.0	-49.1875	-14.25	11.8125	2.2307606	0.05979235	-0.9116379
1277136621814	9.343558	6.1700177	0.50395286	1.4016132	0.0	-48.4375	-14.0	13.125	2.3650227	0.04497778	-0.98717964
1277136621854	10.760075	5.938472	1.1849703	2.5403662	0.0	-47.4375	-14.0	14.375	2.6288636	0.09612013	-1.0664965
1277136621894	11.917805	5.706926	3.9090397	3.973178	0.0	-46.4375	-14.25	16.625	2.9026294	0.28762794	-1.1242056
1277136621924	14.1787815	5.829509	1.7570249	5.6241035	0.0	-45.6875	-14.75	17.625	2.9805012	0.11411263	-1.1807209
1277136621954	11.958665	4.7535014	1.9477097	3.2086878	0.0	-45.6875	-15.25	17.375	3.031087	0.15021151	-1.192452
1277136621984	11.686258	7.3141265	1.920469	4.112879	0.0	-45.6875	-16.0	16.375	2.702534	0.1384109	-1.0115687
1277136622024	10.691973	14.206022	-2.070293	8.093502	0.0	-46.1875	-16.0	14.125	1.9006205	-0.115917265	-0.6451864
1277136622054	9.847511	12.571581	-1.1168685	6.201645	0.0	-47.6875	-15.0	12.875	1.9095513	-0.06982484	-0.6644842
1277136622094	11.836082	6.238119	1.879608	3.7040834	0.0	-47.9375	-13.0	11.5625	2.6038244	0.13957232	-1.0857495
1277136622134	9.193735	4.399372	0.23154591	0.38809586	0.0	-48.4375	-9.9375	11.5625	2.3848767	0.022714231	-1.1244811
1277136622174	7.6954966	3.759216	-0.5720546	-1.2229671	0.0	-49.1875	-6.4375	10.3125	1.9959326	-0.06669386	-1.1163945
1277136622214	3.718355	3.336985	-0.46309182	-4.7890725	0.0	-49.1875	-2.1875	7.3125	1.6908827	-0.09242543	-0.8393997
1277136622244	0.14982383	3.445948	-0.6946377	-6.288195	0.0	-50.1875	1.8125	3.5625	1.6387831	-0.19873248	-0.043450896
1277136622279	-0.6537767	1.6889231	1.334794	-7.556859	0.0	-50.6875	5.3125	-1.6875	1.2483199	0.6351483	0.36933368
1277136622314	0.42223078	1.334794	3.8681788	-5.6929216	0.0	-50.6875	7.5625	-5.4375	1.683817	1.2235392	-0.30636716
1277136622354	8.281172	-0.6537767	4.2495484	-0.47584724	0.0	-50.6875	8.0625	-6.9375	2.9094706	0.47285765	-1.6495802
1277136622384	13.593107	-2.5606253	3.9090397	4.5672836	0.0	-50.6875	8.3125	-6.1875	-2.991128	0.27542233	-1.7569911
1277136622424	10.732834	-0.040861044	2.8738933	1.3043652	0.0	-50.6875	7.0625	-3.9375	2.5061018	0.2616271	-1.5746034
1277136622454	17.352324	10.651112	5.47538	11.277208	0.0	-51.1875	4.8125	-1.4375	1.8629504	0.26270673	-1.0202808
1277136622494	11.876944	7.6273947	3.7864566	4.807596	0.0	-51.4375	2.8125	0.8125	1.9380908	0.26208356	-0.99992263
1277136622534	3.445948	2.7921712	-0.9125633	-5.278566	0.0	-51.4375	0.5625	2.5625	1.4055573	-0.20292388	-0.88982046
1277136622574	5.5571017	10.038197	-2.1111538	1.8597012	0.0	-51.1875	-1.6875	4.5625	1.5647388	-0.18196343	-0.50559956
1277136622614	10.310603	8.771504	0.95342433	3.7637901	0.0	-49.9375	-3.6875	7.5625	1.908728	0.07031537	-0.8658806
1277136622654	8.158588	4.903325	1.0351465	-0.23185635	0.0	-48.9375	-5.9375	9.8125	2.199194	0.108323336	-1.0296407
1277136622694	6.742072	4.9850473	0.19068487	-1.4196014	0.0	-47.6875	-8.9375	11.8125	2.114785	0.022737594	-0.93411773
1277136622734	5.175732	3.2961242	0.95342433	-3.596847	0.0	-46.9375	-11.4375	13.125	2.4800189	0.15414506	-1.0037266
1277136622764	5.434519	2.2609777	0.88532263	-3.8543558	0.0	-46.1875	-13.5	13.875	2.8935142	0.1492903	-1.1765392
1277136622794	7.014479	3.7864566	-0.8036005	-1.7950373	0.0	-45.1875	-15.5	14.375	2.4564462	-0.10047341	-1.0758134
1277136622834	9.043911	4.7943625	-2.0294318	0.62871456	0.0	-44.875	-17.0	14.625	2.2741225	-0.1957236	-1.0833437
1277136622874	9.084772	4.2904096	-0.14982383	0.24139118	0.0	-43.875	-18.25	14.875	2.985176	-0.014911301	-1.1295828
1277136622914	7.9270425	3.718355	2.3018389	-0.7533293	0.0	-43.625	-19.0	14.875	3.0916045	0.2570758	-1.1321957
1277136622954	7.9679036	5.5162406	1.1849703	-0.04342556	0.0	-43.125	-19.25	15.625	2.750415	0.12167076	-0.9652517
1277136622984	9.997335	6.742072	0.27240697	2.254712	0.0	-42.125	-19.0	16.375	2.7201407	0.022587012	-0.97746795
1277136623024	11.032481	6.5922484	0.6537767	3.0619478	0.0	-42.125	-19.0	16.375	2.7201407	0.022587012	-0.97746795
1277136623054	13.756551	5.8567495	1.4573772	5.215605	0.0	-41.875	-19.25	16.125	-3.077912	0.09716737	-1.1682969
1277136623094	12.762266	4.7535014	2.7240696	4.0818987	0.0	-41.875	-19.75	15.875	-2.9847858	0.19741768	-1.2142497
1277136623134	10.378705	7.3958488	2.3018389	3.143816	0.0	-41.875	-20.0	14.625	2.7996733	0.1786912	-0.95166504
1277136623174	9.193735	13.756551	-2.5333846	6.9320927	0.0	-42.375	-19.75	13.875	1.876907	-0.1519324	-0.5891442
1277136623214	9.193735	11.032481	0.84446156	4.5792294	0.0	-43.375	-19.0	13.375	2.2133946	0.058734484	-0.6947383
1277136623254	8.471856	5.8976107	-0.040861044	0.5159378	0.0	-44.625	-17.5	12.0625	2.3885403	-0.003958421	-0.96266466
1277136623284	6.0201936	2.5333846	-0.84446156	-3.220765	0.0	-46.4375	-15.75	11.5625	2.5494637	-0.12857692	-1.1724762
1277136623324	4.0588636	1.4573772	-1.2666923	-5.311894	0.0	-48.1875	-13.75	11.3125	0.8016092	-0.28568584	-1.2260728
1277136623384	1.1849703	2.8330324	-0.61291564	-6.675214	0.0	-49.6875	-11.6875	10.3125	1.6732651	-0.19700167	-0.39615583
1277136623424	1.3075534	5.7477865	0.6537767	-3.8758683	0.0	-50.9375	-9.4375	8.8125	1.7983911	0.11045898	-0.22368143
1277136623464	1.607201	7.164303	0.50395286	-2.4470105	0.0	-51.6875	-7.9375	7.8125	1.7555221	0.06852883	-0.22068101
1277136623504	13.593107	9.956474	10.18802	9.88344	0.0	-51.9375	-8.1875	6.3125	2.4583132	0.54383165	-0.9386124
1277136623544	17.393185	-0.88532263	-3.6774938	7.993086	0.0	-51.4375	-8.1875	6.5625	-1.207189	-0.20810263	-1.621653
1277136623584	7.205164	-0.38136974	0.14982383	-2.5898452	0.0	-51.4375	-8.4375	8.8125	-2.2955055	0.020761903	-1.623677
1277136623624	11.836082	15.6634	4.862464	10.419039	0.0	-51.1875	-9.4375	10.0625	2.0662827	0.24278854	-0.64710873
1277136623664	5.7886477	7.668256	-1.8387469	-0.024442673	0.0	-50.4375	-9.1875	11.3125	1.6860807	-0.18909338	-0.6466199
1277136623704	8.240311	6.3607025	-4.140586	1.3962831	0.0	-50.4375	-9.6875	10.5625	1.272033	-0.37857673	-0.9134254
1277136623744	6.238119	7.504812	-1.525479	0.07076931	0.0	-49.6875	-11.4375	9.5625	1.6734802	-0.15506168	-0.69348735
1277136623774	3.2961242	5.175732	-0.5720546	-3.643868	0.0	-49.4375	-12.4375	8.8125	1.7219992	-0.09295791	-0.5670697
1277136623814	3.255263	4.0588636	-0.42223078	-4.586555	0.0	-49.4375	-14.25	8.3125	1.7340564	-0.08097411	-0.67596745
1277136623854	4.5628166	3.990762	0.5720546	-3.7179127	0.0	-48.6875	-16.0	8.8125	2.1541665	0.09409169	-0.8521777
1277136623894	7.4639506	4.9850473	0.50395286	-0.81692123	0.0	-48.4375	-17.25	8.5625	2.3054779	0.056088142	-0.981952
1277136623934	10.378705	5.243834	0.50395286	1.8324776	0.0	-47.9375	-18.75	9.0625	2.7328534	0.043311708	-1.1029581
1277136623974	9.847511	3.7864566	2.8738933	1.1281567	0.0	-47.1875	-19.0	10.8125	-3.1080358	0.26594448	-1.2037152
1277136624014	9.343558	5.5162406	2.5606253	1.3417931	0.0	-46.4375	-19.5	11.8125	2.8529792	0.23175357	-1.0374812
1277136624044	10.419566	6.0882955	0.61291564	2.276825	0.0	-45.4375	-20.0	13.125	2.7940207	0.050745234	-1.0419908
1277136624084	12.9529505	6.2108784	0.46309182	4.565837	0.0	-44.625	-20.0	14.125	3.0614662	0.032226294	-1.1236867
1277136624124	14.982383	7.1234417	0.38136974	6.787344	0.0	-44.375	-20.75	13.375	3.1198988	0.022984419	-1.1269772
1277136624164	12.108489	8.62168	3.718355	5.5157204	0.0	-44.875	-21.0	13.125	2.7931368	0.24512224	-0.9520381
1277136624204	8.580819	12.258313	0.19068487	5.1577425	0.0	-45.6875	-21.25	12.3125	2.0422065	0.012742918	-0.61072594
1277136624244	6.851035	13.102775	-0.6946377	4.9954414	0.0	-46.6875	-20.25	12.0625	1.8792222	-0.04694559	-0.48177502
1277136624284	8.894087	8.430995	2.3426998	2.6703167	0.0	-47.6875	-18.25	11.3125	2.366434	0.18888308	-0.81212133
1277136624324	9.193735	3.173541	-1.334794	0.010569572	0.0	-48.6875	-16.0	10.0625	2.8929684	-0.136387	-1.2384173
1277136624364	5.09401	2.982856	-1.3756552	-3.7453966	0.0	-49.9375	-12.75	9.0625	1.4025927	-0.22895391	-1.041061
1277136624394	2.6423476	2.6014864	-1.2666923	-5.888201	0.0	-50.6875	-10.1875	5.5625	1.2718253	-0.3291763	-0.79319024
1277136624434	0.8036005	3.445948	-1.4165162	-5.9952397	0.0	-51.4375	-7.9375	3.0625	1.4805211	-0.38078722	-0.22910698
1277136624474	-0.27240697	5.407278	0.84446156	-4.327054	0.0	-51.9375	-5.6875	-0.4375	1.5715709	0.15472682	0.050335284
1277136624514	2.8738933	4.5628166	6.5513873	-1.321414	0.0	-52.1875	-5.1875	-3.1875	2.074958	0.8821273	-0.5620799
1277136624544	18.38747	0.5720546	9.888372	11.078899	0.0	-52.4375	-4.9375	-3.9375	-2.988522	0.4932094	-1.5396953
1277136624584	13.525005	-2.4108016	-1.8387469	4.05404	0.0	-52.6875	-4.6875	-3.9375	-0.9145251	-0.13305134	-1.7471914
1277136624624	11.917805	9.656827	2.6423476	5.7583876	0.0	-53.1875	-5.4375	-1.4375	1.7789412	0.17058787	-0.889815
1277136624664	12.830367	15.050485	2.0294318	10.074347	0.0	-52.9375	-5.9375	0.8125	1.701119	0.102257095	-0.7059371
1277136624704	0.53119355	6.2789803	-1.607201	-3.3035083	0.0	-52.9375	-6.1875	3.0625	1.577323	-0.24972989	-0.08439774
1277136624734	6.6331096	9.915613	-1.6889231	2.2420006	0.0	-52.6875	-7.4375	4.5625	1.5593097	-0.14063846	-0.5895859
1277136624784	6.782933	8.430995	-2.3018389	1.2562752	0.0	-51.6875	-8.9375	4.3125	1.4567224	-0.20959915	-0.67749304
1277136624844	4.862464	3.0645783	0.61291564	-4.0264378	0.0	-51.6875	-10.4375	4.8125	2.0617213	0.106236584	-1.0084292
1277136624894	8.158588	1.920469	3.636633	-0.6701374	0.0	-50.6875	-12.75	6.0625	-3.1113784	0.4093716	-1.3396126
1277136624944	9.915613	5.407278	-1.6889231	1.6130915	0.0	-49.1875	-16.0	7.0625	1.5145801	-0.14843957	-1.0715458
1277136624974	8.771504	4.6036777	0.95342433	0.14534283	0.0	-48.1875	-18.0	8.5625	2.692985	0.09594951	-1.0874711
1277136625014	6.891896	4.440233	1.0760075	-1.5379324	0.0	-46.9375	-19.25	9.3125	2.6103814	0.13049999	-0.9984606
1277136625054	8.281172	5.829509	-0.040861044	0.32067108	0.0	-46.6875	-20.0	8.5625	2.2423818	-0.004034745	-0.957426
1277136625094	9.615966	6.3607025	-0.7218784	1.7452517	0.0	-46.6875	-19.5	8.8125	2.1107168	-0.06253075	-0.9863979
1277136625134	10.228881	7.3549876	-0.5720546	2.8049746	0.0	-46.9375	-19.5	9.5625	2.1341481	-0.04537488	-0.947405
1277136625174	12.571581	6.4015636	0.92618364	4.3313293	0.0	-47.1875	-19.25	10.0625	2.8332238	0.06555728	-1.0998086
1277136625214	12.871228	6.6331096	2.2201166	4.842431	0.0	-46.9375	-19.75	11.3125	2.935524	0.15213954	-1.094949
1277136625254	10.269742	7.7363577	-0.3405087	3.0554953	0.0	-46.9375	-19.75	11.3125	2.935524	0.15213954	-1.094949
1277136625286	8.580819	8.281172	0.7218784	2.1402893	0.0	-47.1875	-19.5	10.8125	2.2008352	0.060460538	-0.80316687
1277136625324	8.19945	12.789507	-0.50395286	5.3938904	0.0	-47.4375	-19.0	10.5625	1.8706826	-0.03315969	-0.57009846
1277136625364	6.6331096	9.656827	-1.0760075	1.9581385	0.0	-48.1875	-16.75	9.3125	1.7512224	-0.09158799	-0.60186815
1277136625394	8.049625	4.099725	0.23154591	-0.77017784	0.0	-49.1875	-14.75	8.5625	2.3916311	0.02562629	-1.0997314
1277136625424	6.8237944	2.152015	-0.9942854	-2.5828047	0.0	-49.9375	-12.4375	7.8125	1.7793002	-0.13807769	-1.2652996
1277136625454	5.053149	2.1792557	-1.879608	-3.9914632	0.0	-50.6875	-9.9375	7.0625	0.8492093	-0.3291344	-1.1636297
1277136625494	3.6774938	1.3756552	-0.53119355	-5.84451	0.0	-51.4375	-8.4375	6.5625	1.5360202	-0.13447224	-1.2128377
1277136625534	2.3426998	2.1792557	-0.040861044	-6.606796	0.0	-51.9375	-5.9375	5.5625	1.7313492	-0.012770005	-0.82152694
1277136625574	2.4516625	4.8216033	-0.23154591	-4.3925834	0.0	-52.4375	-3.4375	4.5625	1.6461408	-0.042780515	-0.47040424
1277136625604	1.9477097	6.469665	0.08172209	-3.0496674	0.0	-52.6875	-2.1875	3.5625	1.6463498	0.01209476	-0.29242224
1277136625644	2.6014864	6.701211	2.3018389	-2.2586427	0.0	-52.9375	-1.9375	3.0625	1.7598811	0.30989623	-0.37030265
1277136625674	14.669114	4.5628166	11.836082	9.586519	0.0	-52.9375	-3.4375	3.3125	2.791749	0.6564673	-1.2692337
1277136625714	16.930092	0.0	1.3756552	7.1792393	0.0	-52.6875	-4.6875	4.3125	-2.6408553	0.08107691	-1.5707964
1277136625754	5.8567495	-2.4108016	-2.070293	-3.1433482	0.0	-52.4375	-5.1875	5.5625	-1.2162327	-0.31593022	-1.9612864
1277136625785	7.9270425	8.349273	-0.84446156	1.7372437	0.0	-51.6875	-5.6875	7.5625	1.7080688	-0.07321763	-0.7594626
1277136625824	18.46919	16.930092	-0.14982383	15.248518	0.0	-50.9375	-5.9375	10.0625	1.8865287	-0.0059797936	-0.828849
1277136625854	1.0351465	4.140586	-0.6537767	-5.4888496	0.0	-50.6875	-6.1875	10.5625	1.7303239	-0.1519989	-0.24497867
1277136625912	2.9147544	7.504812	-3.9499009	-0.83894634	0.0	-50.4375	-6.9375	11.0625	1.5492359	-0.45610926	-0.37045327
1277136625954	8.008764	9.534244	-1.0760075	2.6913462	0.0	-50.4375	-7.6875	9.5625	1.7536483	-0.08620112	-0.6986598
1277136625984	3.405087	4.7943625	0.38136974	-3.9137754	0.0	-50.6875	-8.1875	8.0625	1.8471843	0.06476236	-0.617557
1277136626014	1.3075534	3.0237172	-0.14982383	-6.5089226	0.0	-50.1875	-10.1875	8.0625	1.7294728	-0.045448087	-0.40814912
1277136626044	4.0588636	3.8273177	-0.7218784	-4.181364	0.0	-49.6875	-12.1875	7.3125	1.63178	-0.12868227	-0.81475073
1277136626074	7.273266	5.134871	-1.0351465	-0.8434572	0.0	-49.4375	-14.5	7.3125	1.6684939	-0.11574686	-0.9560599
1277136626114	7.8861814	4.140586	-0.29964766	-0.8945179	0.0	-48.9375	-16.5	8.0625	2.2327394	-0.03362878	-1.0873154
1277136626154	6.851035	2.1792557	0.040861044	-2.6172476	0.0	-48.6875	-18.0	8.3125	-2.8702319	0.0056835413	-1.2628256
1277136626194	9.384419	3.0645783	0.38136974	0.072844505	0.0	-47.9375	-19.25	9.3125	-2.8477578	0.038611744	-1.2551539
1277136626234	10.841797	4.5628166	5.7886477	3.3033571	0.0	-46.4375	-19.5	11.8125	3.140374	0.45731896	-1.1724423
1277136626274	9.425281	4.630918	3.445948	1.2457647	0.0	-45.1875	-20.5	12.3125	3.0854142	0.3170683	-1.1141092
1277136626304	10.528529	5.09401	2.7240696	2.202489	0.0	-43.375	-21.0	13.375	-3.1410701	0.22882473	-1.1201688
1277136626344	12.408136	6.2108784	1.3075534	4.1305866	0.0	-43.125	-22.25	13.375	-3.108383	0.09395543	-1.1067097
1277136626374	13.593107	9.997335	-1.6889231	7.151291	0.0	-43.625	-22.75	11.0625	2.2574947	-0.09976021	-0.93665886
1277136626404	15.785983	13.0619135	-3.0645783	10.910553	0.0	-44.875	-21.5	9.8125	1.7804654	-0.14846916	-0.8795477
1277136626434	16.3989	12.489859	-1.56634	10.866373	0.0	-46.6875	-20.0	8.8125	1.9585208	-0.07584002	-0.9198948
1277136626464	13.33432	9.724928	-0.23154591	6.698862	0.0	-47.6875	-17.75	8.5625	2.0906146	-0.014028858	-0.9406651
1277136626504	8.662541	7.1234417	2.1111538	1.6056252	0.0	-48.4375	-15.5	9.3125	2.3316844	0.18606141	-0.88258886
1277136626544	2.1792557	7.164303	0.313268	-2.3116832	0.0	-49.1875	-13.25	8.5625	1.7912861	0.041809294	-0.29528955
1277136626584	1.334794	3.0237172	-2.1792557	-5.847648	0.0	-49.6875	-10.9375	6.3125	1.302485	-0.5829101	-0.41571385
1277136626624	-1.525479	0.95342433	-0.0	-8.007732	0.0	-49.9375	-8.1875	4.3125	1.6991655	-0.0	1.012197
1277136626664	-2.3426998	1.6480621	0.6946377	-6.8592997	0.0	-50.6875	-5.9375	3.0625	1.3965347	0.23792039	0.95773304
1277136626704	-0.7218784	2.5333846	0.23154591	-7.1622677	0.0	-50.9375	-5.4375	1.8125	1.5914198	0.0876737	0.27758944
1277136626744	10.923519	6.891896	5.8976107	4.3920584	0.0	-51.1875	-6.6875	2.0625	2.3488073	0.4283412	-1.0079494
1277136626774	18.496431	1.879608	-0.19068487	8.786016	0.0	-51.9375	-7.9375	2.5625	-2.2238336	-0.010256098	-1.4695239
1277136626804	10.56939	-0.42223078	-3.5276701	1.3438988	0.0	-52.4375	-8.1875	3.3125	-0.65663	-0.32189775	-1.6107235
1277136626844	14.47843	13.824653	5.5162406	10.958101	0.0	-52.4375	-7.9375	5.0625	2.0648346	0.2688823	-0.8084932
1277136626884	8.962189	14.246883	-3.2961242	7.3444138	0.0	-52.6875	-6.6875	6.3125	1.5638609	-0.193385	-0.5615158
1277136626914	5.284695	10.923519	-5.407278	3.478301	0.0	-52.6875	-5.1875	6.8125	1.4601709	-0.41919228	-0.45059615
1277136626945	6.932757	8.812365	-3.1054392	1.827981	0.0	-52.6875	-5.4375	5.5625	1.4537121	-0.27018887	-0.6665833
1277136626984	10.18802	10.501288	-2.4516625	5.0285606	0.0	-52.6875	-5.9375	4.3125	1.4962932	-0.16602133	-0.7702578
1277136627014	7.246025	8.539958	-2.1383946	1.5954771	0.0	-52.6875	-7.1875	3.3125	1.45403	-0.18866064	-0.7036138
1277136627044	5.053149	4.7535014	-1.4573772	-2.7176418	0.0	-52.1875	-9.6875	3.3125	1.3668066	-0.20705906	-0.81594425
1277136627074	4.5628166	2.6423476	-0.6946377	-4.488397	0.0	-51.1875	-11.9375	4.3125	1.422338	-0.13098815	-1.0458828
1277136627114	7.273266	2.1792557	3.5276701	-1.4344339	0.0	-50.1875	-14.25	6.5625	3.1145935	0.43493825	-1.2796831
1277136627154	5.47538	1.9477097	4.399372	-2.517766	0.0	-48.6875	-16.25	9.5625	3.1155002	0.6479746	-1.2290336
1277136627214	7.9679036	3.5957718	0.08172209	-1.0645828	0.0	-47.4375	-17.75	11.8125	2.8765817	0.009348278	-1.1468768
1277136627254	9.507003	3.6774938	0.6946377	0.41047192	0.0	-45.9375	-19.5	13.625	-3.0468535	0.068040095	-1.2017039
1277136627286	9.193735	1.7297841	1.7297841	-0.29302406	0.0	-44.375	-21.5	15.125	-2.6392243	0.18283877	-1.3848224
1277136627324	10.269742	1.4165162	3.0237172	0.9922838	0.0	-43.375	-22.75	14.875	-2.5930688	0.2837956	-1.4337301
1277136627364	13.102775	4.2904096	0.95342433	4.0136003	0.0	-43.125	-24.75	13.375	-2.5976503	0.06904232	-1.2543565
1277136627394	13.824653	9.384419	-2.1111538	7.035124	0.0	-43.625	-26.0	11.8125	2.6331422	-0.12568286	-0.97442853
1277136627434	16.630445	15.431854	-3.255263	13.113005	0.0	-44.625	-25.0	9.3125	1.7482333	-0.14251123	-0.8227639
1277136627474	15.704261	15.132206	-1.2258313	12.0362015	0.0	-46.4375	-23.0	8.5625	1.9242098	-0.05614998	-0.8039473
1277136627514	8.662541	12.489859	2.6014864	5.6142426	0.0	-48.4375	-19.25	7.8125	2.0512414	0.16950941	-0.60639477
1277136627554	4.2086873	9.275456	1.334794	0.46607208	0.0	-50.1875	-15.5	6.8125	1.8503952	0.1303042	-0.4259635
1277136627594	2.6832085	4.2086873	-0.19068487	-4.811751	0.0	-51.4375	-13.25	5.5625	1.682776	-0.038185198	-0.56756645
1277136627634	1.9477097	1.3756552	-1.7297841	-6.86078	0.0	-51.9375	-11.4375	3.3125	0.6685913	-0.6275823	-0.9558588
1277136627674	-0.6537767	0.5720546	-0.7218784	-8.677146	0.0	-51.9375	-10.1875	1.0625	2.045401	-0.693342	0.8519663
1277136627704	-2.3018389	1.920469	0.14982383	-6.805132	0.0	-52.4375	-8.9375	-1.1875	1.4989885	0.049936768	0.8754763
1277136627744	-1.0760075	3.173541	-0.88532263	-6.3406796	0.0	-52.6875	-8.4375	-2.9375	1.560157	-0.25829533	0.32689193
1277136627774	7.9679036	6.510526	5.829509	2.0194902	0.0	-52.4375	-8.9375	-4.1875	2.201173	0.5154589	-0.88571876
1277136627804	18.768839	5.829509	8.117727	11.457169	0.0	-52.4375	-9.6875	-3.9375	2.7782528	0.39170238	-1.2696478
1277136627844	19.57244	6.851035	-6.4015636	11.895817	0.0	-52.1875	-9.4375	-1.1875	0.46568495	-0.2994235	-1.2340904
1277136627884	7.014479	11.727119	4.7535014	4.6613846	0.0	-51.9375	-8.4375	0.8125	1.858452	0.33477002	-0.539052
1277136627924	0.6946377	8.62168	-3.336985	-0.53565407	0.0	-52.1875	-6.4375	3.0625	1.5521407	-0.36820158	-0.08039506
1277136627954	5.6660647	11.495573	-3.0645783	3.37076	0.0	-51.9375	-5.6875	4.5625	1.5234296	-0.23471214	-0.45794427
1277136627984	9.234595	12.176591	-2.4516625	5.6710033	0.0	-51.6875	-6.4375	3.5625	1.5107431	-0.15907012	-0.64884865
1277136628014	7.8861814	9.534244	-2.4925237	2.815011	0.0	-51.9375	-7.9375	3.3125	1.4428511	-0.19878645	-0.6910737
1277136628044	5.09401	5.706926	-1.56634	-1.9982338	0.0	-51.6875	-10.4375	2.3125	1.3770891	-0.20196663	-0.72871244
1277136628074	3.8273177	3.8273177	0.08172209	-4.3933887	0.0	-51.1875	-12.1875	2.3125	1.678753	0.015097219	-0.7853982
1277136628114	5.597963	3.1463003	1.5390993	-3.2032251	0.0	-50.6875	-14.75	3.3125	2.4743984	0.23523952	-1.0587535
1277136628154	7.082581	3.214402	3.3778462	-1.3269587	0.0	-49.6875	-16.75	5.5625	2.9402869	0.40971226	-1.1447486
1277136628194	9.043911	1.334794	2.9147544	-0.21134949	0.0	-48.4375	-18.75	7.8125	-2.6758018	0.30864608	-1.4242638
1277136628234	7.3549876	1.0760075	-0.08172209	-2.372922	0.0	-47.1875	-20.5	9.3125	-2.1482835	-0.010993641	-1.4255306
1277136628274	10.310603	3.214402	-0.19068487	0.9950762	0.0	-46.1875	-21.5	11.0625	-2.5536358	-0.0176541	-1.2685885
1277136628304	10.337844	4.8216033	4.4810944	2.448923	0.0	-44.875	-22.25	12.3125	-3.1014237	0.3743174	-1.1343856
1277136628344	12.489859	4.903325	1.4982382	3.6946049	0.0	-44.625	-22.75	13.125	-2.8852408	0.11119932	-1.1966989
1277136628374	13.906375	5.6660647	0.92618364	5.238262	0.0	-44.875	-23.0	12.875	-2.874219	0.0616002	-1.1838895
1277136628404	13.525005	10.61025	0.27240697	7.3857136	0.0	-45.4375	-22.25	11.3125	2.4248257	0.015845312	-0.9055836
1277136628434	16.126492	15.935807	-4.903325	13.389389	0.0	-46.9375	-21.0	9.3125	1.5112908	-0.21299309	-0.7913454
1277136628464	15.322891	16.88923	-4.440233	13.42593	0.0	-48.1875	-19.0	9.0625	1.5715739	-0.19230404	-0.7368106
1277136628504	10.079058	15.636159	6.0474343	9.754749	0.0	-49.6875	-16.0	9.3125	2.1434462	0.3143006	-0.5725692
1277136628544	4.140586	8.539958	-0.5720546	-0.29862309	0.0	-50.9375	-13.25	9.5625	1.75568	-0.060201798	-0.45145312
1277136628584	1.7297841	3.9499009	-2.1111538	-5.0055213	0.0	-51.6875	-10.6875	8.5625	1.4384575	-0.45528722	-0.41277215
1277136628614	3.8681788	-0.8036005	-2.1792557	-5.2946954	0.0	-52.6875	-7.6875	5.8125	-0.7632271	-0.50407296	-1.7756292
1277136628654	0.040861044	-2.1383946	2.6832085	-6.3753223	0.0	-53.1875	-5.6875	3.5625	-1.543938	0.89782625	-3.1224866
1277136628684	-2.3018389	-0.19068487	-0.84446156	-7.3473945	0.0	-53.1875	-3.6875	1.5625	-3.1053922	-0.35051438	1.6534479
1277136628714	-2.3018389	2.2609777	-0.7218784	-6.500355	0.0	-53.6875	-2.4375	0.0625	1.7725484	-0.22010747	0.7943531
1277136628754	1.879608	6.2789803	1.4573772	-3.0923023	0.0	-53.4375	-2.9375	-0.6875	1.6355702	0.21879569	-0.29085964
1277136628788	18.087822	9.534244	7.273266	11.895227	0.0	-53.4375	-4.1875	-1.1875	2.1980746	0.34175864	-1.0856979
1277136628824	15.28203	1.3756552	-2.5606253	5.7493677	0.0	-53.4375	-4.6875	0.0625	0.013950895	-0.16535929	-1.4810205
1277136628864	9.275456	14.560152	4.5219555	8.039364	0.0	-52.9375	-4.6875	1.3125	1.792096	0.25618035	-0.56721324
1277136628904	3.5957718	10.310603	-6.2108784	2.7557192	0.0	-52.6875	-3.9375	1.8125	1.3903258	-0.5171483	-0.33555636
1277136628934	9.234595	11.413852	-4.7535014	5.6254444	0.0	-52.4375	-3.9375	1.3125	1.3189133	-0.31311846	-0.6802465
1277136628964	9.656827	10.119919	-1.879608	4.307173	0.0	-51.6875	-5.9375	-0.9375	1.3851451	-0.1335718	-0.7619865
1277136628994	8.921328	6.5513873	-1.334794	1.3420019	0.0	-51.4375	-8.4375	-2.4375	1.2452427	-0.12001485	-0.937386
1277136629024	7.273266	4.0180025	-0.61291564	-1.4747591	0.0	-51.4375	-10.9375	-2.4375	1.1895902	-0.07362912	-1.066086
1277136629054	4.3312707	3.255263	2.5333846	-3.8254561	0.0	-50.6875	-13.0	-0.4375	2.3565207	0.43736985	-0.9262897
1277136629094	3.9499009	3.8681788	6.0201936	-1.6330795	0.0	-50.1875	-14.5	3.0625	2.5386078	0.8279464	-0.79585075
1277136629134	5.407278	2.5606253	-0.53119355	-3.8001852	0.0	-49.1875	-15.75	5.5625	1.7183303	-0.088552654	-1.1285304
1277136629174	5.938472	2.1111538	-0.7218784	-3.462872	0.0	-48.4375	-17.5	7.0625	-2.91705	-0.11404016	-1.2292261
1277136629214	9.466142	3.5957718	0.08172209	0.31975555	0.0	-48.1875	-18.5	8.0625	-3.1200209	0.0080702845	-1.2077751
1277136629254	11.645397	4.2086873	0.84446156	2.6046934	0.0	-48.1875	-19.5	8.5625	-2.980644	0.06809211	-1.2239988
1277136629288	10.61025	4.140586	7.3141265	3.729166	0.0	-47.4375	-20.5	11.0625	-3.091874	0.5708572	-1.1987286
1277136629324	13.756551	4.8216033	1.7297841	4.8726797	0.0	-46.6875	-20.5	12.625	-2.933951	0.11811251	-1.2336805
1277136629364	15.4046135	5.134871	-0.9125633	6.4568615	0.0	-46.6875	-20.75	12.3125	-2.6610174	-0.05614057	-1.2490457
1277136629404	14.246883	11.917805	-0.9125633	8.790138	0.0	-47.1875	-19.75	10.8125	2.0777469	-0.049090732	-0.87418026
1277136629434	12.340035	16.630445	-1.6889231	10.970757	0.0	-48.9375	-17.75	7.5625	1.7094526	-0.08137631	-0.63837093
1277136629464	9.656827	16.317177	1.4573772	9.209883	0.0	-50.4375	-15.75	5.3125	1.8013157	0.0767126	-0.5343829
1277136629504	6.66035	10.800936	1.56634	2.979041	0.0	-51.1875	-13.25	4.3125	1.8106095	0.12281578	-0.55256915
1277136629544	4.399372	5.6252036	-0.7627395	-2.6247869	0.0	-51.1875	-11.1875	3.8125	1.5560193	-0.10640422	-0.6637196
1277136629584	4.0180025	1.3075534	-1.9885708	-5.136698	0.0	-51.4375	-8.9375	3.3125	0.37209222	-0.43987072	-1.2561812
1277136629624	4.903325	-2.8738933	-1.1849703	-4.0009623	0.0	-51.4375	-7.6875	2.0625	-1.3817613	-0.20554942	-2.1009407
1277136629654	0.3405087	0.38136974	1.4982382	-8.223581	0.0	-51.4375	-5.6875	-0.1875	2.3814976	1.2419447	-0.7288547
1277136629684	-0.19068487	4.0588636	-0.6946377	-5.6843624	0.0	-51.6875	-4.4375	-1.9375	1.5274584	-0.16931565	0.04694535
1277136629714	0.42223078	4.944186	-1.6480621	-4.5779443	0.0	-51.4375	-3.4375	-3.1875	1.4635894	-0.32066217	-0.08519275
1277136629774	11.563675	5.012288	6.0474343	4.172373	0.0	-51.4375	-2.6875	-2.6875	2.368963	0.44738325	-1.1617893
1277136629804	19.082108	-2.0294318	-2.0294318	9.490086	0.0	-51.6875	-3.6875	-0.4375	-1.0050368	-0.105364546	-1.6767507
1277136629834	15.6634	5.012288	-3.255263	6.95825	0.0	-51.9375	-3.9375	2.0625	0.99655855	-0.19541264	-1.2610934
1277136629874	12.217452	14.410328	5.938472	9.997114	0.0	-52.4375	-5.1875	4.8125	1.9812608	0.304552	-0.7032306
1277136629914	1.4982382	8.853226	-3.0645783	-0.31897545	0.0	-52.4375	-4.9375	5.5625	1.587809	-0.32890433	-0.16764243
1277136629944	6.6331096	12.408136	-4.2904096	4.902789	0.0	-52.1875	-4.9375	4.3125	1.4722219	-0.29597995	-0.4909254
1277136629974	6.5513873	9.915613	-2.982856	2.4464102	0.0	-52.1875	-6.4375	2.0625	1.4142983	-0.24590856	-0.5838704
1277136630004	7.6273947	8.049625	-2.4925237	1.5593643	0.0	-51.6875	-7.9375	0.0625	1.2971495	-0.22109304	-0.75847155
1277136630044	6.932757	5.325556	-1.0760075	-0.99855995	0.0	-51.4375	-10.1875	-0.9375	1.2914152	-0.122467175	-0.9157657
1277136630074	3.5276701	2.6832085	1.0760075	-5.2457447	0.0	-51.4375	-11.9375	0.5625	2.0739584	0.23816487	-0.92053443
1277136630114	4.862464	3.8273177	4.1814466	-2.3382893	0.0	-50.6875	-13.25	3.3125	2.5264509	0.5942508	-0.90396166
1277136630144	6.932757	3.990762	-0.53119355	-1.7897015	0.0	-50.1875	-14.5	5.3125	1.7250813	-0.066307396	-1.0484823
1277136630184	6.6331096	2.8330324	-0.9125633	-2.5363688	0.0	-50.1875	-16.0	7.0625	1.6555336	-0.12585162	-1.1671443
1277136630224	8.812365	3.0645783	0.19068487	-0.47467422	0.0	-49.6875	-17.0	8.0625	3.1127217	0.020434918	-1.2361194
1277136630264	12.176591	4.0180025	-0.38136974	3.021411	0.0	-49.4375	-17.25	8.8125	-3.0195425	-0.029733717	-1.252069
1277136630294	11.917805	5.434519	4.862464	4.165165	0.0	-48.9375	-18.0	10.5625	3.0022552	0.3554577	-1.142964
1277136630334	12.680544	6.510526	2.8738933	4.7344093	0.0	-48.1875	-18.5	12.0625	2.894044	0.19894972	-1.0964653
1277136630374	13.988097	5.6252036	0.6946377	5.2861395	0.0	-47.9375	-19.0	12.0625	3.1237314	0.04604074	-1.1884446
1277136630414	11.836082	6.2789803	1.6889231	3.6978273	0.0	-48.4375	-19.5	11.0625	2.8379776	0.12539227	-1.0830516
1277136630444	11.073342	12.762266	1.8387469	7.189682	0.0	-49.1875	-18.0	8.8125	2.0667527	0.10839708	-0.7146592
1277136630474	10.038197	15.935807	-1.7297841	9.106506	0.0	-49.9375	-16.25	6.8125	1.6625869	-0.09158729	-0.56212556
1277136630514	9.00305	11.958665	0.88532263	5.1882944	0.0	-50.4375	-14.0	5.3125	1.8094474	0.05907576	-0.64532095
1277136630554	6.2789803	6.66035	0.3405087	-0.64685726	0.0	-50.9375	-11.4375	4.5625	1.7788329	0.03718285	-0.75593305
1277136630594	4.0588636	2.982856	-2.5333846	-4.168402	0.0	-51.1875	-9.1875	4.0625	0.92265594	-0.4660054	-0.93702996
1277136630624	6.3607025	-1.6480621	-0.5720546	-3.2110534	0.0	-51.9375	-7.6875	3.5625	-1.5393255	-0.08684192	-1.8243217
1277136630654	2.2609777	-0.84446156	1.334794	-7.0486054	0.0	-52.9375	-5.9375	3.3125	-2.392384	0.5051788	-1.928246
1277136630694	-0.3405087	0.88532263	-0.6946377	-8.630953	0.0	-52.9375	-3.9375	2.5625	1.7862759	-0.63208777	0.36717385
1277136630724	-0.46309182	3.5276701	-1.2666923	-6.029956	0.0	-53.1875	-2.9375	2.0625	1.6326191	-0.3420267	0.13052775
1277136630764	-0.0	4.3312707	-2.1383946	-4.976263	0.0	-52.9375	-2.1875	1.8125	1.5832031	-0.45860347	0.0
1277136630804	14.628253	6.6331096	5.8567495	7.289707	0.0	-52.4375	-3.1875	1.3125	2.3369584	0.3496542	-1.1450812
1277136630844	15.431854	-0.9125633	-2.0294318	5.7848053	0.0	-51.9375	-4.1875	2.0625	-0.9981733	-0.13053347	-1.6298625
1277136630884	12.789507	15.5135765	1.4573772	10.351885	0.0	-51.9375	-5.4375	4.0625	1.7529289	0.07235891	-0.68944734
1277136630924	1.6480621	9.847511	-0.0	0.17781734	0.0	-51.9375	-5.4375	5.3125	1.6759653	-0.0	-0.16582148
1277136630954	7.504812	11.727119	-3.636633	4.5833683	0.0	-51.6875	-5.1875	5.3125	1.4971648	-0.2554896	-0.56928027
1277136630994	7.9679036	9.656827	-1.9885708	2.8699503	0.0	-51.9375	-6.1875	4.5625	1.5312874	-0.15752001	-0.68986297
1277136631024	8.539958	7.3958488	-0.9125633	1.5274677	0.0	-51.9375	-7.1875	3.3125	1.5624589	-0.08060197	-0.85707
1277136631054	7.5865335	4.099725	0.6537767	-1.1584911	0.0	-51.1875	-8.9375	3.0625	1.9612198	0.0756694	-1.0753573
1277136631094	4.2495484	1.4165162	1.9885708	-4.905671	0.0	-50.6875	-10.9375	4.5625	2.919953	0.41779894	-1.2490457
1277136631134	4.4810944	2.3426998	0.14982383	-4.7479057	0.0	-50.4375	-12.75	6.0625	2.130326	0.029621132	-1.0890784
1277136631174	5.434519	2.7649305	-0.50395286	-3.6884146	0.0	-50.1875	-14.75	7.3125	1.878288	-0.08246241	-1.1001558
1277136631214	6.742072	3.255263	-0.7627395	-2.2810907	0.0	-49.6875	-16.5	7.8125	1.9270387	-0.10152753	-1.1209803
1277136631254	9.534244	4.1814466	-1.3075534	0.6860132	0.0	-49.1875	-17.25	8.5625	2.0424583	-0.12494078	-1.1574869
1277136631284	11.836082	5.47538	-1.0351465	3.2755575	0.0	-48.6875	-18.0	9.5625	2.4949954	-0.07920908	-1.1375132
1277136631324	11.536434	7.8589406	6.932757	5.779093	0.0	-47.4375	-18.25	10.8125	2.7900407	0.46096662	-0.9727805
1277136631364	15.976667	7.5456724	-0.42223078	7.867323	0.0	-47.9375	-18.75	12.0625	2.8275726	-0.023892246	-1.1295588
1277136631404	13.947236	7.164303	3.3778462	6.2327538	0.0	-48.4375	-18.5	12.625	2.9016104	0.21218537	-1.0962712
1277136631444	12.217452	9.534244	-1.3075534	5.7457657	0.0	-48.9375	-18.5	11.3125	1.9982904	-0.08417333	-0.9081344
1277136631484	9.697687	13.252599	-1.9885708	6.7351437	0.0	-50.1875	-17.5	9.5625	1.7101871	-0.12050639	-0.6317232
1277136631524	6.782933	10.95076	2.8738933	3.391326	0.0	-50.4375	-15.25	8.0625	2.0124283	0.2195112	-0.5545643
1277136631564	4.399372	6.701211	-0.46309182	-1.777008	0.0	-50.9375	-13.75	6.0625	1.6781952	-0.057704803	-0.5809339
1277136631604	3.7864566	2.152015	-2.5606253	-4.7544007	0.0	-51.4375	-11.1875	6.0625	0.6594098	-0.531502	-1.0539776
1277136631634	3.718355	-0.9125633	-1.8387469	-5.5593066	0.0	-51.6875	-8.6875	4.8125	-0.89924985	-0.44772616	-1.811461
1277136631664	2.1111538	-1.8387469	0.61291564	-6.9407077	0.0	-52.4375	-6.6875	4.0625	-1.8538878	0.21552654	-2.287338
1277136631704	-0.10896278	1.2666923	-0.23154591	-8.514367	0.0	-52.6875	-4.4375	3.8125	1.6419346	-0.18014868	0.085810274
1277136631734	0.3405087	3.5957718	-0.3405087	-6.1787767	0.0	-52.6875	-2.6875	3.0625	1.6154346	-0.09399739	-0.09441542
1277136631764	2.7921712	5.6660647	1.879608	-3.2162457	0.0	-52.9375	-2.4375	3.3125	1.7927382	0.289219	-0.45786172
1277136631794	15.5135765	4.140586	6.2789803	7.4340305	0.0	-52.6875	-3.9375	2.5625	2.7109852	0.37276897	-1.3099754
1277136631834	15.28203	-1.879608	-2.1111538	5.7345963	0.0	-52.9375	-4.4375	3.0625	-1.2156885	-0.13626328	-1.6931764
1277136631874	-0.42223078	4.7126403	4.7535014	-3.099711	0.0	-52.9375	-4.4375	4.5625	1.6272674	0.78771585	0.08935679
1277136631914	17.352324	18.0061	0.88532263	15.215471	0.0	-52.9375	-5.1875	4.8125	1.7496762	0.035388988	-0.7669103
1277136631944	6.742072	7.7772183	-2.5606253	0.7998314	0.0	-52.9375	-5.4375	4.0625	1.423106	-0.2438297	-0.71422404
1277136631984	7.7363577	9.466142	-6.891896	4.227498	0.0	-52.4375	-7.1875	2.0625	1.1249483	-0.5133296	-0.6851808
1277136632014	10.378705	9.084772	-3.405087	4.4005747	0.0	-51.9375	-9.9375	-0.9375	1.153663	-0.24202894	-0.85178053
1277136632044	5.938472	5.9793324	-1.7297841	-1.203743	0.0	-51.4375	-11.1875	-1.6875	1.2179376	-0.20244983	-0.7819696
1277136632074	3.173541	4.6036777	-0.29964766	-4.2070966	0.0	-51.6875	-11.9375	0.0625	1.5140282	-0.05353835	-0.60354185
1277136632114	3.718355	2.3699405	5.7477865	-2.562354	0.0	-51.6875	-13.0	3.3125	2.7618856	0.9164112	-1.0033563
1277136632154	6.851035	4.7535014	2.0294318	-1.2246313	0.0	-51.4375	-14.25	6.3125	2.368352	0.23873621	-0.9642186
1277136632194	6.3607025	3.336985	0.38136974	-2.613636	0.0	-50.6875	-15.5	8.8125	2.437357	0.053044334	-1.0876431
1277136632224	8.117727	2.4925237	-1.1168685	-1.2417469	0.0	-49.6875	-16.75	10.0625	-2.7150123	-0.13077302	-1.272887
1277136632264	11.917805	3.990762	-1.2258313	2.8212118	0.0	-49.1875	-17.75	10.8125	-2.931432	-0.09722665	-1.247675
1277136632294	11.876944	5.47538	5.7477865	4.478958	0.0	-48.9375	-18.0	11.8125	3.0117867	0.4140802	-1.1388249
1277136632334	12.176591	5.2165933	2.4516625	3.6652784	0.0	-49.1875	-18.75	11.8125	3.04117	0.18300278	-1.1660396
1277136632374	12.408136	7.164303	0.7218784	4.5394363	0.0	-49.6875	-19.0	11.8125	2.6152284	0.050340097	-1.0471697
1277136632404	12.108489	6.932757	2.0294318	4.2928963	0.0	-49.9375	-19.0	9.8125	2.693287	0.14443766	-1.0508026
1277136632444	12.789507	7.5865335	-1.56634	5.145955	0.0	-50.4375	-18.75	7.5625	1.7735393	-0.10494618	-1.0354035
1277136632484	12.571581	12.598822	-3.6774938	8.367477	0.0	-50.6875	-17.0	5.3125	1.3854113	-0.20375468	-0.7843159
1277136632524	10.079058	11.495573	2.8330324	5.742037	0.0	-50.9375	-15.0	3.0625	1.9458351	0.18322746	-0.71983576
1277136632564	8.158588	5.5162406	0.27240697	0.04554081	0.0	-51.6875	-11.6875	2.0625	1.7467895	0.027652903	-0.97627294
1277136632594	4.5628166	3.9090397	-1.7570249	-3.5466962	0.0	-52.1875	-7.9375	1.3125	1.1858739	-0.28449935	-0.8624159
1277136632634	0.5720546	3.0645783	-1.879608	-6.1663465	0.0	-52.6875	-4.6875	1.8125	1.4570425	-0.54256314	-0.18454279
1277136632664	0.040861044	-0.95342433	0.5720546	-8.694025	0.0	-52.9375	-1.1875	2.0625	-1.614675	0.5400148	-3.0987618
1277136632704	0.23154591	0.3405087	0.6537767	-9.034003	0.0	-52.6875	1.5625	2.3125	2.0867033	1.0087224	-0.5971767
1277136632744	0.14982383	2.5606253	-0.19068487	-7.2345676	0.0	-52.6875	3.0625	2.3125	1.6144365	-0.07420445	-0.05844401
1277136632774	2.3699405	6.0201936	0.9942854	-3.2608156	0.0	-53.4375	3.3125	0.8125	1.6356516	0.15248615	-0.3750334
1277136632814	15.745122	4.440233	9.534244	9.128141	0.0	-53.6875	1.8125	-0.1875	2.5743117	0.5276802	-1.2959276
1277136632844	10.61025	-2.9147544	-0.53119355	1.2094917	0.0	-53.6875	0.5625	-1.1875	-1.3073431	-0.04823827	-1.838894
1277136632874	-0.27240697	1.3075534	-4.1814466	-5.417072	0.0	-54.1875	0.3125	-1.6875	1.7629012	-1.2616217	0.2053954
1277136632914	9.466142	14.206022	0.9942854	7.2932777	0.0	-53.6875	0.5625	-0.4375	1.5989523	0.058178402	-0.5877813
1277136632944	9.847511	7.8861814	2.9147544	3.1417522	0.0	-53.1875	1.0625	0.3125	1.842689	0.22705114	-0.8955496
1277136632984	5.706926	9.425281	-6.0474343	2.7622156	0.0	-53.4375	0.3125	0.8125	1.3052495	-0.5019592	-0.5444475
1277136633014	10.038197	10.691973	-4.140586	5.4323835	0.0	-52.9375	-1.4375	-0.1875	1.3032318	-0.2751686	-0.7538712
1277136633044	8.390134	7.8861814	-1.7570249	1.8412409	0.0	-52.6875	-3.6875	-1.1875	1.3542924	-0.15142289	-0.8163506
1277136633074	5.134871	5.6660647	-0.46309182	-2.1459947	0.0	-52.9375	-5.6875	-0.9375	1.4767568	-0.060487557	-0.7362574
1277136633114	2.9147544	3.5276701	1.8387469	-4.8749933	0.0	-52.6875	-7.9375	0.0625	1.9664264	0.3820739	-0.6905462
1277136633154	4.5628166	3.2961242	1.4573772	-3.9922132	0.0	-52.4375	-9.9375	1.5625	2.1123486	0.25334963	-0.9452023
1277136633194	6.6331096	3.2961242	-0.040861044	-2.3996096	0.0	-51.9375	-12.4375	3.0625	1.7985486	-0.0055165417	-1.1096158
1277136633234	6.6331096	1.6480621	0.46309182	-2.9561973	0.0	-50.9375	-15.25	3.5625	-2.8028147	0.06765177	-1.3272676
1277136633264	10.419566	2.7240696	-0.42223078	0.9713917	0.0	-50.1875	-17.0	3.8125	-2.0047023	-0.03918512	-1.3150818
1277136633296	12.53072	3.759216	0.53119355	3.2865849	0.0	-49.6875	-19.0	5.3125	-2.6576862	0.040581215	-1.2793396
1277136633334	12.14935	4.2495484	8.240311	5.476284	0.0	-49.4375	-19.75	6.3125	-3.0734458	0.56946766	-1.2343212
1277136633374	16.04477	5.175732	-0.5720546	7.061962	0.0	-49.4375	-20.0	6.8125	-2.4850323	-0.033918876	-1.2587543
1277136633414	13.797412	6.1700177	3.5957718	5.729349	0.0	-49.4375	-19.75	6.8125	3.0284297	0.23356557	-1.1502845
1277136633444	10.923519	13.184497	1.7297841	7.402254	0.0	-49.6875	-18.5	4.8125	1.9123757	0.10068684	-0.6918864
1277136633474	11.032481	16.04477	-2.3699405	9.808825	0.0	-50.1875	-16.75	1.8125	1.4674777	-0.12111583	-0.6023594
1277136633514	10.038197	13.143636	-3.405087	7.078703	0.0	-51.1875	-14.5	-0.1875	1.3022561	-0.20305164	-0.6522309
1277136633554	8.158588	8.117727	5.053149	2.7629309	0.0	-51.6875	-11.9375	-1.9375	2.0991545	0.41371548	-0.7879086
1277136633594	6.66035	3.0645783	-3.7864566	-1.5550346	0.0	-52.4375	-9.1875	-1.4375	0.4990757	-0.4767281	-1.1395563
1277136633634	7.0553403	-0.61291564	0.08172209	-2.7242656	0.0	-53.1875	-6.4375	-0.1875	-1.6086757	0.011539038	-1.6574514
1277136633674	-0.27240697	2.8330324	-0.10896278	-6.9584665	0.0	-53.4375	-2.6875	1.0625	1.592403	-0.03826627	0.09585915
1277136633714	-0.42223078	1.1849703	0.08172209	-8.54605	0.0	-54.6875	1.0625	1.8125	1.5816218	0.064873435	0.3422956
1277136633754	1.1849703	2.5606253	-1.4165162	-6.6495194	0.0	-55.75	4.3125	1.0625	1.4230527	-0.4652788	-0.43341926
1277136633784	4.2086873	5.8567495	1.879608	-2.3536315	0.0	-56.5	5.5625	0.0625	1.7170411	0.25494707	-0.62310344
1277136633814	16.467001	3.5957718	8.962189	9.282942	0.0	-57.0	4.8125	-2.4375	2.5194066	0.48870215	-1.3558087
1277136633864	16.507862	-0.61291564	-0.5720546	6.7224884	0.0	-57.75	4.3125	-3.6875	0.3639672	-0.034615774	-1.607908
1277136633904	6.3198414	13.443283	4.903325	5.8363953	0.0	-59.0	4.0625	-3.9375	1.6247422	0.31882477	-0.43945217
1277136633944	0.42223078	13.6748295	-5.7477865	5.033036	0.0	-59.5	4.3125	-5.1875	1.5067236	-0.39772868	-0.030866686
1277136633974	14.09706	11.114203	0.53119355	8.152603	0.0	-58.75	3.3125	-4.9375	1.4778918	0.029582022	-0.9031651
1277136634014	14.09706	5.6660647	-0.5720546	5.397252	0.0	-57.25	0.5625	-5.6875	1.2333533	-0.037634395	-1.1886252
1277136634044	10.147159	3.0237172	-0.3405087	0.7869158	0.0	-54.6875	-3.6875	-6.6875	0.9631867	-0.032148506	-1.2811878
1277136634074	5.134871	3.0645783	-0.38136974	-3.8146572	0.0	-53.4375	-7.4375	-6.6875	1.1327089	-0.06368961	-1.0327206
1277136634114	1.1168685	3.486809	1.1441092	-5.9707384	0.0	-53.4375	-9.6875	-5.4375	1.6213138	0.30287194	-0.30998638
1277136634154	3.718355	4.6036777	1.6480621	-3.6636767	0.0	-52.9375	-11.4375	-3.9375	1.7884334	0.2716114	-0.6794138
1277136634194	6.66035	4.3312707	0.27240697	-1.857161	0.0	-52.4375	-12.75	-1.9375	1.5600811	0.034273937	-0.9942055
1277136634224	7.6273947	3.1463003	0.7627395	-1.5206299	0.0	-51.1875	-14.25	0.0625	2.2301097	0.09218186	-1.1795608
1277136634264	9.847511	3.486809	-0.29964766	0.6442404	0.0	-50.4375	-15.25	1.3125	1.4907855	-0.028675903	-1.2304912
1277136634297	12.340035	3.5276701	-0.42223078	3.0346584	0.0	-50.1875	-16.25	2.5625	-1.9956183	-0.032886595	-1.2923509
1277136634334	12.340035	3.7864566	7.9679036	5.3624372	0.0	-50.1875	-17.0	4.0625	-3.0927198	0.55303526	-1.2730732
1277136634374	12.871228	5.366417	3.5276701	4.5777655	0.0	-50.4375	-17.5	4.8125	2.9599466	0.24776983	-1.1757798
1277136634404	13.143636	5.175732	0.7627395	4.3399086	0.0	-50.6875	-18.0	3.8125	2.876062	0.05394312	-1.1956614
1277136634444	13.143636	7.8180795	1.0351465	5.5213985	0.0	-50.4375	-18.5	2.0625	2.0880752	0.06758427	-1.0341954
