#timestamp	accel_x	accel_y	accel_z	accel_mag	temperature	mag_x	mag_y	mag_z	azimuth	pitch	roll
1277223424002	3.214402	4.099725	8.117727	-0.16104889	0.0	3.625	-21.75	-50.1875	-0.84007865	1.0002369	-0.6649413
1277223424042	3.214402	4.0588636	8.281172	-0.04014778	0.0	3.625	-21.5	-50.1875	-0.84998333	1.0120414	-0.6698108
1277223424072	3.214402	4.140586	8.471856	0.15573788	0.0	3.875	-21.5	-50.6875	-0.8507856	1.0167148	-0.6601315
1277223424102	2.982856	4.140586	8.471856	0.08345699	0.0	4.125	-21.25	-50.6875	-0.864569	1.0286418	-0.6242829
1277223424132	2.8330324	4.1814466	8.580819	0.15030861	0.0	4.375	-20.75	-50.9375	-0.85958517	1.0387901	-0.59548193
1277223424162	2.7921712	4.140586	8.689782	0.21597385	0.0	4.625	-21.25	-50.9375	-0.90483665	1.0491835	-0.59329754
1277223424202	2.8330324	4.2086873	8.771504	0.3263855	0.0	4.625	-21.0	-50.6875	-0.8928161	1.0464162	-0.5924702
1277223424243	2.6014864	4.2495484	8.580819	0.11589241	0.0	5.375	-20.75	-50.6875	-0.88659614	1.0447127	-0.54932696
1277223424282	2.6423476	4.2086873	8.580819	0.10927105	0.0	5.875	-21.0	-51.1875	-0.89409316	1.0458636	-0.560633
1277223424322	2.7921712	4.140586	9.043911	0.5245161	0.0	6.125	-20.5	-50.9375	-0.91437346	1.0662643	-0.59329754
1277223424352	2.3699405	3.8681788	9.112013	0.3721609	0.0	7.125	-19.75	-51.4375	-0.97221786	1.1088668	-0.54968804
1277223424382	1.8387469	3.718355	9.343558	0.41632557	0.0	7.625	-19.25	-52.125	-1.0671363	1.1529781	-0.45924234
1277223424412	1.879608	3.9499009	9.80665	0.9313679	0.0	8.125	-18.5	-52.375	-1.0257443	1.151227	-0.44415146
1277223424472	1.2258313	3.405087	8.19945	-0.8440466	0.0	9.625	-17.5625	-52.875	-1.0200131	1.1551396	-0.34555557
1277223424512	3.5276701	3.405087	9.043911	0.48078918	0.0	10.625	-16.8125	-52.625	-0.73518336	1.0740162	-0.8030781
1277223424552	2.0294318	3.214402	8.390134	-0.5954981	0.0	10.375	-16.0625	-52.875	-0.8747471	1.1453799	-0.56315684
1277223424582	2.6014864	3.2961242	7.8180795	-0.9322748	0.0	9.375	-15.8125	-52.875	-0.729203	1.0779133	-0.66815543
1277223424623	3.3778462	3.3778462	7.8180795	-0.64466	0.0	6.875	-15.8125	-53.375	-0.62073207	1.0223138	-0.7853982
1277223424662	3.9090397	3.759216	8.771504	0.5060406	0.0	3.875	-16.0625	-54.125	-0.58856565	1.0170386	-0.80493385
1277223424692	3.1463003	3.9499009	8.730643	0.27923393	0.0	2.9375	-15.5625	-53.875	-0.58721375	1.0464072	-0.6726348
1277223424733	2.7240696	3.9499009	9.084772	0.46736336	0.0	2.6875	-15.3125	-54.375	-0.6102062	1.0848806	-0.60374933
1277223424772	2.3426998	3.9090397	9.956474	1.1432447	0.0	3.4375	-14.5625	-54.375	-0.6809074	1.1415406	-0.539907
1277223424802	2.2201166	3.8273177	9.615966	0.7784376	0.0	4.875	-13.8125	-54.625	-0.6654917	1.1395478	-0.52563703
1277223424832	2.070293	3.6774938	9.00305	0.13643742	0.0	5.375	-13.3125	-55.125	-0.6331159	1.1324581	-0.5127411
1277223424872	2.3426998	3.636633	9.084772	0.2554779	0.0	6.125	-11.5625	-54.875	-0.5697932	1.1263942	-0.5722833
1277223424912	2.152015	4.099725	9.193735	0.487216	0.0	6.375	-10.625	-55.125	-0.50731426	1.1042509	-0.4833819
1277223424942	1.5390993	3.3778462	10.119919	0.9725628	0.0	5.875	-9.125	-55.375	-0.59255797	1.2192359	-0.4275385
1277223424972	1.6480621	3.0237172	10.378705	1.1284533	0.0	6.375	-8.125	-55.625	-0.6075989	1.2504239	-0.4990311
1277223425012	2.3018389	3.445948	9.00305	0.10435009	0.0	6.875	-7.875	-55.875	-0.45013168	1.1394163	-0.5889142
1277223425042	0.5720546	3.0237172	6.66035	-2.4697318	0.0	8.375	-6.875	-55.375	-0.47454235	1.1379743	-0.18697926
1277223425082	2.6832085	4.1814466	8.539958	0.07337952	0.0	10.625	-7.125	-55.125	-0.43537998	1.0438874	-0.5705139
1277223425123	0.10896278	4.4810944	9.234595	0.45833015	0.0	11.5625	-7.375	-54.875	-0.5886615	1.1189015	-0.024311317
1277223425162	2.8330324	4.099725	5.7477865	-2.19936	0.0	12.8125	-7.125	-54.375	-0.37847123	0.8565131	-0.60468036
1277223425192	0.8036005	4.399372	8.430995	-0.2629652	0.0	13.3125	-7.875	-54.625	-0.60763454	1.0830919	-0.18067071
1277223425222	-5.597963	2.3426998	11.032481	2.7846594	0.0	13.0625	-8.375	-54.375	0.20637998	1.0679162	1.1744514
1277223425262	2.982856	5.8567495	8.240311	0.7338276	0.0	13.3125	-8.375	-53.875	-0.44930908	0.8975117	-0.47106174
1277223425292	-0.14982383	4.7126403	8.580819	-0.015742302	0.0	13.5625	-8.625	-54.125	-0.63219863	1.0683496	0.031781204
1277223425322	-1.2258313	4.0180025	8.921328	0.054236412	0.0	13.3125	-8.625	-54.375	-0.6976918	1.1307188	0.29611513
1277223425352	-0.6946377	3.9499009	9.425281	0.43640327	0.0	13.0625	-8.375	-54.625	-0.77236927	1.1684971	0.174082
1277223425382	0.19068487	4.2086873	9.152874	0.2692871	0.0	12.3125	-8.375	-54.875	-0.6746729	1.1394159	-0.04527648
1277223425422	0.3405087	4.4810944	9.152874	0.38997936	0.0	11.5625	-8.375	-55.375	-0.6022038	1.1143788	-0.0758421
1277223425452	0.61291564	4.862464	8.921328	0.37221622	0.0	10.625	-8.125	-55.125	-0.5104418	1.0684513	-0.12538913
1277223425492	0.50395286	4.5219555	8.853226	0.14732647	0.0	10.125	-7.625	-54.625	-0.516033	1.0960659	-0.11098779
1277223425532	0.50395286	3.990762	9.112013	0.15371704	0.0	10.125	-6.875	-55.125	-0.5655756	1.1550795	-0.12561497
1277223425572	0.313268	3.1463003	9.425281	0.13484192	0.0	10.125	-5.625	-54.875	-0.6819036	1.2471279	-0.09924002
1277223425612	-0.19068487	3.214402	9.534244	0.25667667	0.0	10.625	-3.625	-55.125	-0.6519524	1.245089	0.059252597
1277223425652	-0.08172209	3.568531	9.384419	0.23368931	0.0	10.8125	-2.1875	-55.625	-0.5512563	1.2073342	0.022896763
1277223425692	0.7218784	3.8273177	8.921328	-0.072197914	0.0	10.8125	-1.4375	-55.375	-0.44739932	1.1591653	-0.18642206
1277223425722	0.6537767	4.0588636	8.812365	-0.08247566	0.0	10.375	-1.4375	-55.625	-0.41563877	1.1342863	-0.1597021
1277223425763	0.313268	3.9499009	8.921328	-0.0449934	0.0	9.375	-2.4375	-56.125	-0.42211813	1.1528275	-0.07914468
1277223425803	0.040861044	3.3778462	9.00305	-0.19070435	0.0	9.125	-2.1875	-56.3125	-0.47398746	1.211836	-0.012096184
1277223425842	-0.3405087	3.2961242	8.962189	-0.25148392	0.0	9.375	-1.9375	-56.125	-0.49881878	1.2166467	0.102940634
1277223425885	-0.3405087	3.5276701	9.084772	-0.05506134	0.0	9.625	-1.9375	-55.875	-0.48914814	1.1988443	0.09622698
1277223425935	-0.84446156	4.0588636	9.043911	0.14221	0.0	12.0625	-1.9375	-55.375	-0.5382833	1.1409743	0.20512737
1277223425972	-1.0351465	3.990762	8.662541	-0.2130413	0.0	13.8125	-2.4375	-54.625	-0.61105335	1.1265833	0.25379255
1277223426012	-0.9942854	3.7864566	8.62168	-0.3377943	0.0	15.3125	-3.4375	-54.625	-0.7161171	1.144565	0.2567925
1277223426053	-1.3075534	3.759216	8.812365	-0.13715363	0.0	17.0625	-4.375	-54.625	-0.8231353	1.1465691	0.33473685
1277223426092	-1.1849703	3.8681788	8.539958	-0.3568964	0.0	17.5625	-4.875	-54.625	-0.81348366	1.1283869	0.2972613
1277223426134	-1.334794	3.5957718	8.771504	-0.23322105	0.0	18.0	-5.125	-54.625	-0.9095129	1.158578	0.35544565
1277223426172	-1.4573772	3.2961242	9.193735	0.06822395	0.0	18.25	-4.875	-54.375	-1.0308384	1.1972059	0.41630566
1277223426212	-1.0351465	4.2904096	8.689782	-0.06029415	0.0	17.8125	-4.375	-53.875	-0.7676023	1.1008508	0.23674533
1277223426252	-0.50395286	3.9090397	9.193735	0.19631577	0.0	17.3125	-3.875	-53.625	-0.8198878	1.1657925	0.12821266
1277223426282	-1.334794	3.990762	10.147159	1.178462	0.0	16.8125	-3.875	-54.375	-0.8662666	1.1776783	0.32277408
1277223426312	-1.0351465	3.990762	9.615966	0.655879	0.0	16.0625	-3.4375	-54.875	-0.77950203	1.1657552	0.25379255
1277223426352	-0.38136974	3.9499009	8.539958	-0.38974762	0.0	15.5625	-2.6875	-55.875	-0.6566362	1.1358093	0.096253365
1277223426397	-0.27240697	3.336985	8.853226	-0.34148884	0.0	14.5625	-1.6875	-56.5625	-0.6926344	1.2092434	0.08145205
1277223426446	-0.9125633	3.0237172	9.615966	0.31473446	0.0	13.3125	-0.9375	-56.125	-0.7644758	1.2534417	0.29310903
1277223426485	-0.6946377	3.173541	9.507003	0.24009037	0.0	13.0625	-0.4375	-56.5625	-0.6933757	1.2415224	0.21548569
1277223426522	-0.7218784	3.214402	9.152874	-0.078927994	0.0	13.0625	-0.4375	-56.125	-0.6716223	1.2252963	0.2209111
1277223426552	-0.84446156	3.173541	9.152874	-0.08247566	0.0	13.5625	-0.9375	-55.375	-0.7235008	1.2263111	0.26006806
1277223426630	-0.42223078	3.336985	8.853226	-0.3359928	0.0	14.0625	-1.1875	-55.625	-0.68182886	1.207712	0.12586178
1277223426675	-0.7627395	2.8738933	8.853226	-0.4674511	0.0	14.0625	-1.9375	-54.875	-0.81766164	1.2467793	0.25942212
1277223426714	-0.7627395	3.214402	8.962189	-0.25494957	0.0	14.0625	-2.9375	-54.625	-0.7792548	1.2176292	0.23297925
1277223426752	0.08172209	3.9499009	8.471856	-0.4588833	0.0	14.0625	-3.875	-54.125	-0.6242765	1.1344393	-0.020686703
1277223426784	-0.14982383	3.0645783	8.158588	-1.0901918	0.0	15.5625	-4.625	-53.875	-0.83285177	1.2110839	0.048849992
1277223426822	-0.9942854	2.3426998	8.390134	-1.0390282	0.0	17.3125	-5.125	-53.625	-1.2533301	1.2762889	0.4013781
1277223426862	-0.9942854	2.7649305	8.539958	-0.7753525	0.0	19.75	-5.125	-53.125	-1.2076119	1.2394212	0.3452067
1277223426926	-1.4165162	2.4925237	9.425281	0.045004845	0.0	22.0	-4.625	-53.375	-1.4945856	1.2755158	0.516789
1277223426967	-2.4108016	2.4108016	9.193735	-0.0011062622	0.0	24.5	-3.625	-51.9375	-1.6106001	1.2156793	0.7853982
1277223427012	-2.9147544	2.1792557	8.308413	-0.73611164	0.0	26.6875	-2.4375	-50.9375	-1.6048152	1.1579385	0.9287922
1277223427063	-2.9556155	2.1792557	8.117727	-0.89697456	0.0	28.6875	-0.9375	-49.9375	-1.6298695	1.1459781	0.93545526
1277223427108	-4.0180025	1.920469	8.308413	-0.37997246	0.0	31.9375	0.5625	-47.5	-1.7605735	1.0787592	1.1249307
1277223427152	-5.325556	1.4573772	9.384419	1.0815468	0.0	33.875	2.3125	-46.0	-1.9388793	1.0389835	1.3036789
1277223427182	-6.510526	0.88532263	9.956474	2.1223955	0.0	36.625	5.25	-44.0	-2.0652099	0.9874812	1.435642
1277223427222	-5.8976107	0.46309182	8.812365	0.8072109	0.0	38.625	8.25	-42.3125	-2.1801703	0.97959095	1.4924352
1277223427252	-5.47538	0.92618364	8.62168	0.44863987	0.0	39.5625	10.25	-40.8125	-2.0768507	0.99858505	1.4032283
1277223427282	-5.434519	1.2666923	9.084772	0.8550377	0.0	40.5625	11.4375	-39.8125	-2.0515149	1.0199753	1.3418021
1277223427312	-4.944186	0.9942854	9.80665	1.2207689	0.0	41.3125	10.9375	-38.125	-2.294269	1.0958055	1.3723414
1277223427342	-4.944186	1.1849703	9.00305	0.53279114	0.0	42.8125	10.25	-35.875	-2.262855	1.0567218	1.3355639
1277223427378	-5.6252036	1.4982382	6.932757	-0.75398445	0.0	44.8125	10.25	-33.6875	-1.987124	0.87232316	1.3104954
1277223427412	-7.6273947	2.3426998	5.7886477	0.051029205	0.0	47.25	9.5	-30.5	-1.5794208	0.62762266	1.2727994
1277223427442	-8.240311	1.2258313	5.6660647	0.26855087	0.0	49.5	10.0	-27.75	-1.7863929	0.59725803	1.423119
1277223427481	-7.6546354	0.313268	6.4015636	0.17691612	0.0	51.0	10.9375	-25.0625	-2.361609	0.6960741	1.5298939
1277223427512	-7.7363577	-0.08172209	5.2165933	-0.47547913	0.0	51.75	11.9375	-23.0625	-2.2852035	0.59323984	1.5813593
1277223427554	-7.7772183	-1.0760075	5.366417	-0.29658508	0.0	52.0	13.4375	-21.875	-2.6672897	0.59957075	1.7082773
1277223427592	-8.158588	-0.7218784	5.09401	-0.16130924	0.0	51.5	14.1875	-21.125	-2.3676074	0.55639887	1.6590472
1277223427633	-8.158588	-0.9125633	5.597963	0.1297741	0.0	51.0	14.6875	-21.625	-2.4859776	0.5984688	1.6821864
1277223427662	-7.7363577	-0.9125633	6.238119	0.1732359	0.0	50.5	14.9375	-22.875	-2.592815	0.6752202	1.6882116
1277223427693	-7.8861814	-0.19068487	6.742072	0.5704279	0.0	49.5	14.6875	-24.3125	-2.3712807	0.70720047	1.5949712
1277223427732	-7.6954966	-0.27240697	7.7772183	1.1377544	0.0	48.75	14.4375	-26.0625	-2.4897213	0.7903667	1.6061798
1277223427772	-7.3958488	-0.61291564	7.3141265	0.61307526	0.0	48.75	14.1875	-27.0625	-2.567935	0.7781317	1.6534803
1277223427812	-7.4639506	-0.23154591	7.246025	0.5985918	0.0	49.25	12.9375	-26.5625	-2.5071652	0.770344	1.6018083
1277223427852	-7.6546354	0.6537767	6.3607025	0.16728592	0.0	50.0	12.4375	-26.3125	-2.1474993	0.6915508	1.4855938
1277223427892	-6.891896	1.0351465	6.0201936	-0.5972805	0.0	51.0	11.6875	-25.3125	-2.156032	0.7124677	1.4217131
1277223427932	-6.701211	1.607201	6.5513873	-0.29823303	0.0	51.25	10.25	-24.5625	-2.1674573	0.76012117	1.3354051
1277223427972	-6.973618	1.3756552	6.3198414	-0.2953844	0.0	50.75	9.75	-25.0625	-2.1650214	0.72676903	1.3760314
1277223428012	-8.117727	0.42223078	6.469665	0.58239937	0.0	50.75	9.25	-25.3125	-2.3383334	0.67223835	1.5188297
1277223428042	-8.771504	0.313268	6.4015636	1.0569334	0.0	50.25	8.5	-25.8125	-2.2646618	0.6301527	1.5350972
1277223428082	-8.62168	0.7627395	5.6252036	0.5160465	0.0	50.25	8.25	-26.5625	-1.9202406	0.5763121	1.4825585
1277223428122	-7.3141265	1.9885708	5.175732	-0.6284666	0.0	50.5	7.25	-27.5	-1.7514309	0.59912103	1.3053323
1277223428162	-7.014479	2.5333846	5.938472	-0.27321434	0.0	49.75	6.0	-28.5	-1.8135363	0.6724569	1.2242098
1277223428202	-6.5922484	2.3018389	6.510526	-0.259758	0.0	49.5	5.0	-30.25	-1.9596959	0.75042874	1.2348579
1277223428242	-6.0201936	2.1111538	7.014479	-0.32495117	0.0	49.0	4.0	-31.4375	-2.114227	0.8327603	1.2335169
1277223428282	-5.938472	1.4165162	7.164303	-0.3939352	0.0	48.0	3.5625	-32.9375	-2.3186426	0.8650541	1.3366398
1277223428322	-4.2904096	1.0760075	6.973618	-1.5485172	0.0	47.25	2.3125	-34.4375	-2.534601	1.005546	1.3250709
1277223428362	-3.8273177	0.61291564	6.891896	-1.8995485	0.0	45.8125	1.8125	-35.625	-2.7473493	1.0584737	1.4120023
1277223428402	-4.944186	0.5720546	7.9270425	-0.44661713	0.0	44.0625	0.8125	-37.125	-2.8135033	1.0101343	1.4556061
1277223428442	-4.440233	0.8036005	8.499097	-0.18396378	0.0	43.3125	-0.1875	-37.875	-2.7801032	1.0827175	1.3917527
1277223428482	-4.0180025	1.3075534	7.9679036	-0.7876959	0.0	42.5625	-0.1875	-38.125	-2.5149548	1.083201	1.2561812
1277223428522	-4.2904096	1.56634	8.117727	-0.4922247	0.0	42.8125	-0.6875	-37.875	-2.4421268	1.0582979	1.2207514
1277223428562	-4.903325	1.7570249	8.662541	0.30123615	0.0	43.5625	-0.9375	-37.375	-2.4342616	1.0294355	1.226717
1277223428602	-5.5571017	2.2201166	8.349273	0.4656744	0.0	44.0625	-1.1875	-35.875	-2.2660441	0.94893056	1.1907126
1277223428642	-5.597963	2.5606253	7.4639506	-0.13170528	0.0	45.5625	-2.9375	-34.6875	-2.158074	0.8811517	1.1417884
1277223428682	-5.175732	3.214402	6.782933	-0.68915176	0.0	46.5	-4.875	-33.4375	-1.9846553	0.83895725	1.0150406
1277223428722	-4.7943625	3.1463003	7.5456724	-0.32918835	0.0	47.5	-7.375	-31.4375	-2.2424977	0.9209391	0.99003994
1277223428762	-6.5922484	4.5628166	6.0882955	0.2603445	0.0	48.75	-10.125	-29.75	-1.7756463	0.64948684	0.9653591
1277223428802	-6.3607025	4.6036777	4.903325	-0.5494919	0.0	49.5	-12.0625	-27.0625	-1.675932	0.5582224	0.94429564
1277223428842	-6.2108784	4.372132	5.5571017	-0.3953848	0.0	50.5	-14.3125	-23.8125	-2.0945635	0.63164526	0.957426
1277223428882	-7.3549876	4.440233	4.862464	0.065283775	0.0	51.0	-15.5625	-20.125	-2.1185937	0.5150224	1.027658
1277223428922	-6.66035	4.1814466	5.366417	-0.28597832	0.0	51.5	-16.3125	-16.9375	-2.4220448	0.5988095	1.0101775
1277223428962	-5.7477865	5.7886477	2.9556155	-1.1301794	0.0	52.0	-16.5625	-14.6875	-1.6764482	0.3476052	0.78185624
1277223429002	-6.8237944	6.2789803	3.1054392	-0.02741146	0.0	52.0	-17.0625	-12.25	-1.7542889	0.32314914	0.82695425
1277223429042	-7.04172	5.6252036	1.9477097	-0.58589554	0.0	52.5	-18.0	-11.0	-1.5860722	0.21283425	0.89676344
1277223429082	-7.5456724	4.099725	1.56634	-1.0774841	0.0	52.0	-19.25	-9.8125	-1.5953884	0.18041468	1.0730951
1277223429122	-7.273266	4.944186	3.8681788	-0.19893551	0.0	51.5	-21.25	-8.3125	-2.471131	0.4143683	0.97377336
1277223429162	-6.66035	8.049625	2.9147544	1.0401249	0.0	51.5	-22.25	-7.0625	-1.8250746	0.27206475	0.691233
1277223429202	-6.0474343	2.9556155	1.879608	-2.8180847	0.0	51.25	-22.75	-5.625	-2.9308972	0.27230766	1.1161982
1277223429242	-4.0588636	9.152874	1.9477097	0.39349937	0.0	51.5	-23.0	-5.375	-1.6428515	0.19212897	0.4173956
1277223429282	-7.8180795	8.812365	2.1792557	2.1737213	0.0	51.5	-23.0	-6.125	-1.7127314	0.18292056	0.7256822
1277223429322	-7.082581	7.273266	2.982856	0.7745018	0.0	51.0	-23.5	-7.3125	-1.9385316	0.28577676	0.77211624
1277223429362	-3.8681788	6.2108784	2.2609777	-2.148332	0.0	50.5	-23.75	-10.3125	-1.7013857	0.29969794	0.5570208
1277223429402	-3.3642259	6.932757	5.243834	-0.48576355	0.0	48.25	-24.5	-14.6875	-1.9253093	0.59751487	0.45179045
1277223429442	-4.0180025	7.014479	6.8237944	0.77217007	0.0	44.0625	-25.1875	-20.625	-2.0221486	0.70107955	0.520191
1277223429492	-3.255263	7.7772183	7.9270425	1.7657251	0.0	38.875	-25.9375	-28.25	-1.8021908	0.75459963	0.39640662
1277223429532	-1.9477097	6.4015636	8.349273	0.89306736	0.0	30.9375	-26.1875	-36.375	-1.7433109	0.89518774	0.29535615
1277223429562	-0.61291564	4.0588636	8.158588	-0.6736002	0.0	23.5	-25.4375	-43.0625	-1.8818196	1.104643	0.14987436
1277223429592	0.6946377	4.671779	6.742072	-1.5747862	0.0	17.5625	-23.5	-47.5	-1.110316	0.95970315	-0.14760661
1277223429622	2.9147544	5.325556	8.539958	0.6713371	0.0	12.0625	-20.75	-50.4375	-0.8215714	0.9527948	-0.50077915
1277223429652	2.1792557	6.5922484	8.730643	1.348216	0.0	8.875	-19.75	-51.4375	-0.6430308	0.89895314	-0.31926918
1277223429693	3.405087	5.012288	9.697687	1.6285057	0.0	6.125	-19.5	-51.6875	-0.7668799	1.0123117	-0.5967306
1277223429732	4.140586	4.8216033	10.337844	2.3285608	0.0	4.125	-19.5	-51.9375	-0.7531958	1.0195802	-0.7095561
1277223429772	5.7886477	5.366417	8.962189	2.136034	0.0	1.9375	-19.75	-52.125	-0.5557572	0.84871745	-0.82323116
1277223429812	5.8567495	4.372132	8.008764	1.035737	0.0	-1.3125	-19.25	-52.375	-0.5124788	0.83107024	-0.9295315
1277223429852	6.0882955	2.9147544	7.8861814	0.57386017	0.0	-4.75	-17.5625	-52.625	-0.50063396	0.8628676	-1.1242951
1277223429892	4.2086873	1.4982382	5.134871	-3.0004272	0.0	-9.5	-15.3125	-52.625	-0.43934548	0.8547969	-1.2287978
1277223429932	1.0760075	-1.6889231	7.3958488	-2.1444812	0.0	-12.6875	-13.3125	-52.625	-0.7810058	1.3063684	-2.5743418
1277223429972	3.0237172	-0.42223078	7.3141265	-1.8808956	0.0	-13.9375	-11.0625	-53.125	-0.95389766	1.1753645	-1.7095388
1277223430012	5.175732	1.2666923	8.117727	-0.09633541	0.0	-14.4375	-9.375	-52.875	-0.35242552	0.9899347	-1.3307773
1277223430052	5.434519	0.23154591	7.9679036	-0.15910625	0.0	-14.1875	-8.375	-53.125	-0.40818018	0.9717961	-1.5282155
1277223430092	6.469665	-0.3405087	7.9270425	0.4310503	0.0	-13.6875	-7.125	-53.875	-0.31801602	0.8856068	-1.6233793
1277223430132	5.7886477	0.040861044	9.043911	0.9312477	0.0	-12.6875	-6.625	-54.375	-0.33807936	1.0014291	-1.5637376
1277223430172	7.5865335	1.4165162	7.7772183	1.1499519	0.0	-11.4375	-7.375	-54.875	-0.17164259	0.78924304	-1.3862072
1277223430214	8.240311	3.336985	9.956474	3.5413666	0.0	-9.75	-9.375	-54.875	-0.18296568	0.84190625	-1.1860225
1277223430252	6.1700177	3.759216	11.182305	3.5066805	0.0	-7.75	-11.3125	-54.625	-0.28597334	0.9971597	-1.0235873
1277223430292	6.6331096	3.445948	10.228881	2.8623161	0.0	-5.5	-12.3125	-54.375	-0.34215322	0.9397263	-1.091665
1277223430332	5.5162406	2.1792557	7.9270425	0.09365654	0.0	-2.3125	-11.5625	-54.625	-0.34451616	0.92844033	-1.1945543
1277223430372	2.9556155	0.92618364	7.43671	-1.7507124	0.0	1.6875	-9.625	-54.875	-0.4525583	1.1761537	-1.2671244
1277223430412	1.334794	-0.7218784	9.575105	-0.11204243	0.0	5.625	-7.875	-55.375	-0.24156108	1.4136201	-2.0665615
1277223430452	-0.08172209	0.23154591	13.0619135	3.2575712	0.0	8.125	-6.875	-55.625	-2.5581186	1.552002	0.33929262
1277223430492	-3.9499009	1.0760075	14.47843	5.2394266	0.0	8.625	-7.375	-55.625	0.74457127	1.2952355	1.304836
1277223430532	-5.202973	-0.50395286	11.114203	2.4754677	0.0	6.125	-6.875	-56.125	0.3734632	1.1311667	1.6673537
1277223430572	-4.099725	-1.7978859	6.238119	-2.1284819	0.0	2.1875	-6.375	-55.625	0.20148799	0.9483401	1.9840778
1277223430612	0.84446156	-2.7921712	5.8976107	-3.2270494	0.0	-4.25	-5.375	-54.875	-0.19934587	1.1114619	-2.8478997
1277223430652	0.040861044	-2.3699405	7.6273947	-1.8194456	0.0	-10.6875	-5.125	-53.875	-0.47980115	1.2694968	-3.124353
1277223430692	2.070293	-1.525479	9.384419	-0.07625866	0.0	-15.1875	-7.375	-52.625	-1.1698854	1.3033323	-2.205823
1277223430732	4.2086873	-1.607201	6.469665	-1.9229512	0.0	-18.125	-9.375	-51.6875	-0.69160163	0.9625271	-1.9355825
1277223430772	1.2258313	-0.5720546	6.510526	-3.157074	0.0	-17.1875	-11.5625	-51.6875	-1.5678118	1.3659335	-2.0074234
1277223430812	0.19068487	1.7297841	11.563675	1.8872414	0.0	-15.1875	-13.0625	-51.6875	2.032126	1.4214231	-0.10979292
1277223430852	-4.5628166	0.6537767	15.595298	6.455576	0.0	-13.4375	-13.8125	-51.6875	0.54793346	1.2834141	1.4284813
1277223430892	4.630918	-0.7218784	8.349273	-0.23184681	0.0	-12.6875	-14.8125	-51.6875	-0.7924118	1.0592828	-1.7254342
1277223430932	2.9147544	-0.88532263	10.269742	0.9053612	0.0	-11.9375	-15.8125	-51.1875	-1.1640646	1.2824408	-1.8656793
1277223430972	-0.61291564	-2.0294318	9.384419	-0.18575668	0.0	-11.1875	-15.8125	-51.1875	-0.20719656	1.3486226	2.8482897
1277223431012	1.0351465	-1.7570249	9.00305	-0.57553005	0.0	-9.75	-15.5625	-51.4375	-0.6933953	1.348045	-2.6091912
1277223431052	0.19068487	-1.0351465	10.651112	0.89634323	0.0	-8.25	-15.3125	-51.6875	-0.53000385	1.4722942	-2.9594243
1277223431122	1.0351465	1.0351465	10.61025	0.9041147	0.0	-6.75	-16.5625	-50.9375	-2.5040834	1.4336897	-0.7853982
1277223431162	-0.7627395	0.19068487	8.008764	-1.759387	0.0	-4.25	-19.75	-49.1875	1.3684722	1.4729401	1.3258177
1277223431202	-2.5606253	1.8387469	4.5219555	-4.294312	0.0	-2.0625	-24.75	-45.5	0.9402579	0.9619939	0.94803554
1277223431242	-0.46309182	4.5628166	3.0237172	-4.3133254	0.0	-0.5625	-31.4375	-39.8125	0.22852631	0.5828849	0.101146184
1277223431282	2.6014864	6.973618	11.917805	4.244441	0.0	-0.5625	-39.125	-31.6875	-2.4041452	1.0125332	-0.35705724
1277223431322	0.14982383	8.471856	7.9679036	1.824441	0.0	-2.3125	-44.3125	-26.8125	3.0015895	0.75467527	-0.017683046
1277223431362	-0.08172209	9.656827	2.8330324	0.25749683	0.0	-5.0	-45.5625	-25.3125	0.43878087	0.28535438	0.008462421
1277223431402	-1.8387469	6.3198414	5.8567495	-0.99626446	0.0	-6.0	-45.0625	-26.8125	1.9642961	0.72716606	0.2831319
1277223431442	-0.61291564	7.164303	7.5865335	0.64602375	0.0	-6.5	-41.3125	-31.9375	2.2146091	0.8121943	0.085343525
1277223431482	-1.7978859	9.193735	5.7886477	1.2054157	0.0	-5.25	-38.875	-34.9375	0.8910119	0.5534956	0.19311841
1277223431522	0.7627395	10.691973	10.56939	5.2469893	0.0	-2.5625	-37.875	-36.125	-2.993159	0.77836376	-0.07121693
1277223431562	-3.8273177	7.7772183	9.724928	3.220541	0.0	-0.5625	-36.625	-37.625	1.5295155	0.84280133	0.45732304
1277223431602	-0.0	2.1792557	4.630918	-4.688588	0.0	1.4375	-35.625	-38.375	-3.0513964	1.1309537	0.0
1277223431642	-0.9942854	5.243834	12.108489	3.4259577	0.0	3.625	-35.375	-37.875	2.966751	1.1556304	0.18738587
1277223431682	-1.4165162	4.0588636	10.038197	1.1133442	0.0	6.875	-35.625	-37.375	2.8621655	1.1661692	0.3357777
1277223431722	-1.1849703	3.486809	7.9679036	-1.0288668	0.0	11.5625	-35.375	-35.875	3.1183693	1.137854	0.32759845
1277223431762	-2.1111538	3.255263	9.00305	-0.0031499863	0.0	17.0625	-34.875	-35.1875	2.927836	1.1638925	0.57534504
1277223431802	-3.486809	1.879608	9.425281	0.4171791	0.0	22.75	-31.9375	-35.625	2.392675	1.1729392	1.0763892
1277223431842	-4.372132	0.95342433	9.765789	0.935565	0.0	26.4375	-28.9375	-35.625	2.132476	1.1411276	1.3560891
1277223431882	-3.9499009	0.46309182	8.049625	-0.8281956	0.0	28.9375	-25.9375	-36.125	2.0790596	1.1119161	1.4540877
1277223431922	-1.3756552	2.5606253	10.079058	0.6831846	0.0	29.9375	-23.5	-36.875	-2.5617573	1.2900195	0.4929893
1277223431962	-0.53119355	2.6423476	8.349273	-1.0331373	0.0	29.9375	-22.5	-37.375	-2.1163938	1.258548	0.19838662
1277223432002	-2.5606253	0.53119355	7.3958488	-1.9620633	0.0	30.6875	-20.5	-38.375	2.523452	1.2309217	1.3662508
1277223432042	-4.2904096	-0.53119355	9.847511	0.94803524	0.0	30.4375	-19.0	-39.8125	1.969444	1.1571183	1.693979
1277223432082	-1.56634	2.3426998	7.6954966	-1.6113873	0.0	30.4375	-17.8125	-40.8125	-2.3675554	1.2197623	0.5893431
1277223432122	-1.334794	2.4925237	6.4424243	-2.7710848	0.0	30.1875	-16.3125	-41.3125	-2.041176	1.1572313	0.4916575
1277223432162	-1.3075534	3.759216	6.5513873	-2.1410074	0.0	29.9375	-16.3125	-41.3125	-1.5761609	1.0248626	0.33473682
1277223432202	-2.8330324	5.597963	5.053149	-1.7507467	0.0	31.1875	-17.5625	-38.875	-1.0424539	0.6780306	0.46850196
1277223432242	-2.3018389	5.284695	3.336985	-3.1461744	0.0	33.875	-20.25	-33.6875	-1.0533019	0.52476895	0.41078687
1277223432282	-0.38136974	6.2108784	0.3405087	-3.5747643	0.0	36.375	-24.0	-26.0625	-0.95607674	0.054666974	0.06132651
1277223432322	1.334794	9.343558	1.4982382	-0.25005722	0.0	38.375	-27.9375	-15.6875	-1.2919344	0.15742478	-0.14189707
1277223432362	-1.4982382	13.565866	5.243834	4.8144045	0.0	38.125	-31.6875	-3.625	-1.8377777	0.36682075	0.10999599
1277223432402	-7.246025	17.543009	8.539958	11.006638	0.0	34.375	-34.375	6.9375	-2.4958215	0.42279705	0.3916999
1277223432442	-18.768839	17.883516	1.9477097	16.191101	0.0	28.9375	-37.875	13.375	2.7251787	0.07498865	0.809548
1277223432482	-18.34661	15.213928	-3.718355	14.315701	0.0	23.75	-40.8125	14.5625	2.005836	-0.15476269	0.8784726
1277223432522	-9.152874	7.8180795	-4.3312707	2.9862137	0.0	21.25	-43.0625	11.375	1.3507541	-0.34539595	0.8638883
1277223432562	-2.0294318	4.903325	-1.879608	-4.1768975	0.0	21.25	-44.8125	6.4375	-0.23414576	-0.34040666	0.39242193
1277223432603	-3.9771416	5.7886477	4.399372	-1.5192757	0.0	22.75	-44.8125	2.75	2.9152896	0.55960596	0.6019878
1277223432643	-7.3549876	6.6331096	0.040861044	0.09767532	0.0	24.25	-44.8125	-0.1875	1.5714192	0.004125587	0.836959
1277223432683	-6.238119	10.691973	3.8681788	3.1623602	0.0	24.75	-44.5625	-2.375	3.0583382	0.30287254	0.52815366
1277223432722	-3.445948	10.528529	5.366417	2.5028143	0.0	24.9375	-44.0625	-4.875	-2.6164942	0.45110315	0.31630737
1277223432762	1.607201	8.008764	6.782933	0.81086254	0.0	24.9375	-44.3125	-8.0625	-2.0776854	0.6929946	-0.19804958
1277223432802	5.8567495	4.862464	4.6036777	-0.91064453	0.0	24.0	-44.0625	-10.75	-1.4859159	0.54392606	-0.8778908
1277223432842	3.1463003	3.5276701	2.8738933	-4.274659	0.0	21.75	-44.5625	-13.5	-1.5320477	0.5462707	-0.7283173
1277223432882	-12.14935	4.6036777	1.6480621	3.2897873	0.0	19.25	-45.3125	-14.6875	1.289186	0.126175	1.20859
1277223432922	-4.5219555	10.800936	5.243834	3.02324	0.0	17.8125	-45.3125	-14.25	2.9877515	0.42105123	0.3964912
1277223432962	-1.4573772	10.419566	3.2961242	1.2185822	0.0	17.3125	-46.0625	-12.75	-1.7713386	0.3036046	0.13896774
1277223433002	-5.284695	10.651112	1.7570249	2.212556	0.0	18.5	-45.8125	-9.0625	1.1351703	0.1467105	0.46057388
1277223433042	-11.114203	9.234595	1.9477097	4.7740507	0.0	20.25	-45.8125	-6.125	1.5672698	0.13398185	0.8775063
1277223433082	-2.9556155	6.4424243	10.228881	2.6380472	0.0	22.5	-45.5625	-4.125	-3.1047666	0.9648209	0.43012625
1277223433122	0.84446156	4.5219555	3.6774938	-3.9172397	0.0	24.5	-44.3125	-1.9375	-2.1882622	0.6743949	-0.18462041
1277223433162	-2.2201166	8.662541	1.9477097	-0.6544857	0.0	26.1875	-43.5625	-0.9375	-2.146634	0.21445414	0.25088918
1277223433202	-2.4516625	10.991621	3.173541	1.8936815	0.0	27.6875	-42.5625	0.0625	-2.2013564	0.27467605	0.21945603
1277223433232	-5.407278	9.697687	2.9556155	1.683322	0.0	28.1875	-42.5625	0.3125	-2.858883	0.26015916	0.50864744
1277223433272	-3.1054392	11.304889	7.6273947	4.179822	0.0	28.6875	-43.0625	0.3125	-2.6004777	0.5767957	0.26808614
1277223433302	-2.1111538	9.302697	5.175732	1.0462456	0.0	28.4375	-43.5625	-0.9375	-2.4630125	0.49712297	0.22316016
1277223433332	-1.8387469	9.112013	3.759216	0.2203865	0.0	27.9375	-44.0625	-2.375	-2.2812872	0.38429752	0.19911969
1277223433372	0.313268	8.390134	4.9850473	-0.042266846	0.0	26.6875	-44.0625	-4.125	-2.1476934	0.5358054	-0.037320327
1277223433412	-0.38136974	5.7477865	4.944186	-2.2153745	0.0	24.75	-44.5625	-7.5625	-2.4113803	0.7092943	0.0662536
1277223433452	-4.0588636	5.6252036	6.0201936	-0.6218796	0.0	22.0	-45.0625	-10.75	2.803743	0.7147835	0.62504286
1277223433492	-7.7772183	6.1291566	5.6252036	1.5817032	0.0	19.25	-45.3125	-14.25	1.9315612	0.5166193	0.9033592
1277223433532	-4.5628166	7.8589406	5.938472	1.0491171	0.0	16.8125	-45.3125	-17.9375	2.5019982	0.5788168	0.52602464
1277223433572	2.1111538	8.349273	7.3141265	1.4921894	0.0	15.5625	-45.0625	-20.625	-1.9392606	0.7040819	-0.24766372
1277223433612	2.3018389	6.782933	6.0474343	-0.43231773	0.0	15.3125	-44.0625	-22.875	-1.7859806	0.7011615	-0.3271624
1277223433652	0.6537767	6.1291566	9.00305	1.1043024	0.0	14.8125	-43.0625	-24.5625	-2.3780704	0.97044784	-0.10626487
1277223433692	-8.853226	6.2789803	6.238119	2.7121086	0.0	14.8125	-43.3125	-24.5625	1.4669306	0.52163893	0.953902
1277223433722	-5.134871	7.504812	2.8330324	-0.2821989	0.0	14.8125	-43.3125	-23.3125	0.9292875	0.30201894	0.6000502
1277223433752	-1.920469	8.853226	4.0180025	0.103554726	0.0	14.8125	-44.5625	-21.375	-1.4502069	0.41746113	0.21361355
1277223433792	-10.378705	8.308413	4.7126403	4.2985344	0.0	15.5625	-46.0625	-18.1875	1.4394579	0.34065756	0.8957354
1277223433832	-8.539958	9.234595	7.3958488	4.78469	0.0	18.25	-45.8125	-14.25	2.1285336	0.5315448	0.7463376
1277223433862	0.92618364	6.701211	8.662541	1.1844215	0.0	21.5	-45.3125	-11.0	-2.3336062	0.9077868	-0.13734128
1277223433892	-0.6946377	4.4810944	4.440233	-3.460124	0.0	25.9375	-43.5625	-8.3125	-2.5286975	0.7748825	0.15379114
1277223433932	3.759216	7.8589406	5.175732	0.32660484	0.0	30.9375	-41.3125	-6.5625	-1.7135756	0.53607666	-0.44616687
1277223433972	-1.1441092	8.730643	-1.1849703	-0.9219856	0.0	33.875	-39.8125	-5.125	-1.2035501	-0.13377115	0.13030274
1277223434012	-2.0294318	5.053149	-2.3426998	-3.878653	0.0	36.125	-38.375	-2.625	-0.7224937	-0.40627733	0.38189977
1277223434052	-3.2961242	8.349273	4.440233	0.20786285	0.0	36.375	-37.875	1.5625	-2.4264433	0.45936593	0.37599814
1277223434092	-9.302697	11.032481	6.2108784	5.9042006	0.0	35.625	-38.125	6.4375	-3.041654	0.4064207	0.7005388
1277223434132	-7.205164	10.923519	-1.7570249	3.3965616	0.0	33.625	-39.3125	10.1875	-2.041208	-0.1334715	0.583095
1277223434172	-6.3198414	11.114203	-0.19068487	2.9801502	0.0	30.6875	-40.8125	13.375	-2.6657517	-0.014913186	0.51703197
1277223434212	-3.486809	10.038197	-0.50395286	0.83182716	0.0	28.4375	-42.0625	14.8125	-2.333101	-0.04738851	0.33431575
1277223434252	-4.0588636	8.894087	-0.8036005	0.0027809143	0.0	25.4375	-43.0625	16.0625	-2.7262056	-0.08201312	0.42812642
1277223434292	-2.6423476	8.662541	1.1441092	-0.6780901	0.0	23.25	-43.5625	17.8125	-2.7599673	0.1256634	0.29606637
1277223434332	-5.202973	7.246025	1.4982382	-0.7611799	0.0	21.25	-44.0625	18.0625	2.8254116	0.16640094	0.6227344
1277223434372	-4.8216033	9.384419	1.6889231	0.8782759	0.0	19.75	-44.8125	18.3125	3.0292315	0.15873168	0.47461718
1277223434412	-0.61291564	9.765789	-1.7570249	0.1348505	0.0	19.25	-45.5625	17.0625	-2.0521317	-0.17766964	0.0626793
1277223434452	-0.6537767	7.014479	-0.38136974	-2.7514544	0.0	19.25	-46.0625	15.0625	-2.2676919	-0.054081522	0.09293539
1277223434492	-3.1463003	5.6252036	4.7126403	-1.8222218	0.0	19.75	-46.75	14.8125	3.0085654	0.6313424	0.5099721
1277223434532	-3.568531	4.2086873	3.3778462	-3.336928	0.0	19.0	-46.5	13.625	2.7386725	0.54931206	0.70327157
1277223434572	-2.5606253	7.3141265	-4.399372	-0.8955488	0.0	18.5	-47.0	11.875	-0.1315552	-0.5163343	0.33675775
1277223434622	-1.7297841	8.539958	-3.568531	-0.39084148	0.0	17.0625	-47.75	11.625	-0.7197653	-0.3887085	0.19984803
1277223434662	0.53119355	4.399372	-0.10896278	-5.373986	0.0	12.3125	-48.25	11.625	-2.0978692	-0.024584256	-0.12016135
1277223434702	4.3312707	16.507862	0.5720546	7.269552	0.0	4.375	-48.75	13.125	-2.2941024	0.03350638	-0.2565925
1277223434742	3.405087	17.924377	3.1054392	8.700689	0.0	-9.0	-44.3125	15.8125	3.1169267	0.16859253	-0.1877326
1277223434782	9.80665	13.565866	3.0237172	7.2035217	0.0	-21.625	-39.8125	16.0625	-2.9025505	0.17870909	-0.62592477
1277223434822	9.575105	2.1792557	-0.84446156	0.049560547	0.0	-30.3125	-36.375	14.8125	-1.9524314	-0.08578329	-1.3470123
1277223434862	11.563675	3.568531	-4.5628166	3.126729	0.0	-34.75	-33.375	13.125	-1.4373577	-0.3605553	-1.27147
1277223434902	7.7772183	7.246025	0.27240697	0.8265152	0.0	-34.25	-34.375	11.625	-3.002334	0.025621418	-0.82074153
1277223434972	4.8216033	8.812365	0.92618364	0.2811365	0.0	-33.25	-34.375	12.125	2.481094	0.091941856	-0.50064534
1277223435012	4.6036777	8.962189	0.42223078	0.27764225	0.0	-33.75	-32.875	13.625	2.3720546	0.04188239	-0.47452992
1277223435052	4.903325	8.471856	0.19068487	-0.016282082	0.0	-34.25	-31.9375	14.5625	2.417595	0.019478014	-0.524669
1277223435092	6.3607025	7.8861814	-0.14982383	0.32611084	0.0	-34.5	-31.4375	15.3125	2.688788	-0.014786621	-0.67873
1277223435132	7.014479	7.6273947	-1.0351465	0.60735893	0.0	-34.75	-32.375	15.3125	2.8068128	-0.09956383	-0.74356216
1277223435172	6.851035	7.668256	-0.6537767	0.4970503	0.0	-34.25	-33.375	14.5625	2.8618882	-0.06349333	-0.7291723
1277223435212	5.9793324	7.7772183	0.313268	0.008423805	0.0	-33.5	-33.875	14.125	2.7799656	0.031922452	-0.6554417
1277223435252	5.7886477	7.7772183	0.8036005	-0.07837486	0.0	-33.5	-34.125	14.125	2.7949743	0.08269885	-0.6398484
1277223435292	6.510526	7.6273947	0.5720546	0.23781872	0.0	-34.0	-33.625	13.875	2.9029527	0.05698304	-0.70656383
1277223435332	7.014479	7.246025	0.46309182	0.28900433	0.0	-34.0	-33.375	13.625	3.064802	0.045886513	-0.7691627
1277223435362	7.164303	6.973618	0.313268	0.19618607	0.0	-34.75	-33.375	13.375	3.119917	0.03132304	-0.7988848
1277223435392	7.246025	7.246025	-0.08172209	0.44110203	0.0	-34.5	-33.625	12.375	3.0900376	-0.007974721	-0.7853982
1277223435432	6.66035	7.9270425	-0.10896278	0.5475826	0.0	-34.25	-33.625	12.625	2.7794478	-0.0105236955	-0.69878066
1277223435472	5.829509	8.117727	0.23154591	0.19006348	0.0	-34.5	-33.625	12.625	2.591728	0.023164274	-0.6227843
1277223435512	5.829509	7.9270425	0.46309182	0.044015884	0.0	-34.0	-33.875	12.875	2.689865	0.047028553	-0.63408834
1277223435542	5.9793324	7.8589406	0.53119355	0.08261299	0.0	-34.25	-33.875	13.625	2.7462845	0.053740036	-0.65039754
1277223435582	6.0201936	7.8861814	0.6537767	0.13628769	0.0	-34.0	-33.625	13.375	2.7590895	0.06580035	-0.6520127
1277223435622	6.469665	7.8180795	0.61291564	0.3596964	0.0	-33.5	-33.875	13.125	2.8835819	0.06032526	-0.6913013
1277223435662	6.510526	7.6273947	0.38136974	0.22876453	0.0	-34.0	-33.875	13.125	2.8881576	0.038011543	-0.70656383
1277223435702	6.0474343	7.8180795	0.3405087	0.083231926	0.0	-34.0	-33.625	12.875	2.730525	0.03443681	-0.65838426
1277223435742	6.2108784	7.9679036	0.7627395	0.32470036	0.0	-34.25	-33.875	12.625	2.7764692	0.07535638	-0.6621074
1277223435782	6.4424243	7.7363577	0.61291564	0.27956486	0.0	-34.75	-33.625	12.625	2.81916	0.060805116	-0.69439185
1277223435822	6.3607025	7.5456724	0.53119355	0.076560974	0.0	-34.25	-33.875	11.875	2.8486617	0.053772967	-0.7003929
1277223435862	6.3198414	7.7363577	0.53119355	0.19703865	0.0	-34.25	-34.375	11.625	2.8164616	0.053124756	-0.68496203
1277223435892	5.8976107	8.008764	0.50395286	0.15206909	0.0	-34.0	-34.375	11.625	2.6791408	0.05062581	-0.63473666
1277223435932	5.6660647	8.19945	0.46309182	0.1708107	0.0	-34.0	-34.875	11.625	2.6097116	0.046430476	-0.60468036
1277223435972	5.706926	7.8861814	0.38136974	-0.06466389	0.0	-34.25	-34.625	11.875	2.6451855	0.03915703	-0.6264303
1277223436012	6.2108784	7.6954966	0.313268	0.087480545	0.0	-34.25	-34.625	12.125	2.7966096	0.0316673	-0.6790429
1277223436042	6.3198414	7.668256	0.23154591	0.13297462	0.0	-34.5	-34.875	11.875	2.812497	0.023297343	-0.6892978
1277223436072	6.2108784	7.8180795	0.23154591	0.18089104	0.0	-34.5	-34.625	11.875	2.7428925	0.023185553	-0.67133236
1277223436112	6.1291566	7.8861814	0.53119355	0.1953783	0.0	-34.25	-34.625	11.625	2.7535524	0.05313358	-0.66068435
1277223436152	6.0882955	7.9270425	0.6537767	0.20997429	0.0	-33.75	-34.375	11.125	2.7526872	0.0653156	-0.6549479
1277223436192	6.0201936	7.8180795	0.38136974	0.068092346	0.0	-33.5	-34.125	11.375	2.7325246	0.038630337	-0.6562006
1277223436232	6.1700177	8.008764	0.46309182	0.31381798	0.0	-33.0	-34.125	11.625	2.7732387	0.045773927	-0.65643495
1277223436272	6.1700177	7.8589406	0.46309182	0.19567585	0.0	-33.25	-34.125	11.875	2.794775	0.04631497	-0.6655864
1277223436312	6.0882955	7.8861814	0.53119355	0.17039204	0.0	-33.25	-34.125	12.125	2.7840145	0.05326677	-0.6574461
1277223436352	5.9793324	7.8589406	0.38136974	0.0756979	0.0	-33.75	-34.125	11.875	2.7168808	0.03860059	-0.65039754
1277223436392	5.938472	7.9270425	0.42223078	0.10706329	0.0	-34.0	-34.125	11.375	2.6747737	0.042603463	-0.6429511
1277223436432	5.938472	7.9679036	0.42223078	0.1397667	0.0	-34.0	-34.125	11.625	2.675044	0.0424633	-0.64048576
1277223436472	5.9793324	7.9679036	0.46309182	0.16602993	0.0	-34.25	-34.125	11.875	2.685368	0.04645275	-0.6437745
1277223436512	6.0474343	7.8861814	0.3405087	0.13715553	0.0	-34.0	-34.375	12.375	2.7331998	0.03424999	-0.6541915
1277223436553	6.1291566	7.8861814	0.23154591	0.18394661	0.0	-34.25	-34.625	12.875	2.7489436	0.023178458	-0.66068435
1277223436592	6.1700177	7.8861814	0.313268	0.2112894	0.0	-34.5	-34.625	12.625	2.7500684	0.0312758	-0.66390646
1277223436632	5.9793324	7.9270425	0.42223078	0.1315937	0.0	-34.5	-34.625	12.375	2.7071068	0.042498246	-0.6462446
1277223436672	5.9793324	8.008764	0.3405087	0.1937828	0.0	-34.25	-34.125	11.875	2.661435	0.034055978	-0.6413207
1277223436712	5.9793324	8.049625	0.3405087	0.22653675	0.0	-34.0	-33.875	11.625	2.6493616	0.033944756	-0.6388828
1277223436752	5.938472	7.9679036	0.42223078	0.1397667	0.0	-34.0	-33.875	11.625	2.6493616	0.033944756	-0.6388828
1277223436832	5.938472	7.8589406	0.50395286	0.056531906	0.0	-34.0	-34.125	10.875	2.683745	0.051116608	-0.6470962
1277223436872	6.0474343	7.9270425	0.38136974	0.1710701	0.0	-33.75	-34.125	11.125	2.698757	0.038231444	-0.6516977
1277223436902	6.0882955	7.8861814	0.23154591	0.15893078	0.0	-33.5	-34.375	11.125	2.7182488	0.023236655	-0.6574461
1277223436942	6.1291566	7.8861814	0.313268	0.18617535	0.0	-33.5	-34.625	11.875	2.7705011	0.031354427	-0.66068435
1277223436982	6.0882955	7.9270425	0.313268	0.1935234	0.0	-33.5	-34.625	12.125	2.759185	0.031331383	-0.6549479
1277223437022	6.0882955	7.8589406	0.27240697	0.13842392	0.0	-33.75	-34.375	12.375	2.7512898	0.02739457	-0.6591205
1277223437062	6.1291566	7.8180795	0.42223078	0.136549	0.0	-33.75	-34.375	12.625	2.7912424	0.042477053	-0.6648912
1277223437102	6.1291566	7.8861814	0.50395286	0.19396877	0.0	-34.25	-34.375	12.875	2.7704725	0.05041352	-0.66068435
1277223437142	6.1700177	7.8589406	0.38136974	0.1922245	0.0	-34.25	-34.375	12.625	2.7652247	0.03815052	-0.6655865
1277223437182	6.1700177	7.8589406	0.3405087	0.19075012	0.0	-34.75	-34.875	12.125	2.7434819	0.034066316	-0.6655865
1277223437212	6.1700177	7.8861814	0.38136974	0.21364975	0.0	-35.0	-34.625	11.625	2.7085457	0.03806891	-0.66390646
1277223437252	6.1700177	7.8861814	0.42223078	0.21528816	0.0	-34.25	-34.125	11.375	2.72351	0.04214312	-0.66390646
1277223437292	6.1700177	7.7772183	0.38136974	0.12812138	0.0	-34.5	-34.375	11.375	2.7369661	0.0383968	-0.67066985
1277223437332	6.1700177	7.8180795	0.46309182	0.16360283	0.0	-34.25	-33.875	11.375	2.731832	0.046464067	-0.66811997
1277223437372	6.1700177	7.7772183	0.50395286	0.13358212	0.0	-34.25	-33.875	11.625	2.7510483	0.050720043	-0.67066985
1277223437412	6.1291566	7.8180795	0.61291564	0.14646912	0.0	-35.0	-34.125	11.625	2.7229488	0.06161924	-0.6648912
1277223437452	6.0882955	7.8861814	0.46309182	0.16699791	0.0	-34.75	-33.375	11.625	2.6665173	0.04644824	-0.6574461
1277223437482	5.9793324	7.8861814	0.38136974	0.097374916	0.0	-35.0	-33.375	11.625	2.620375	0.03851606	-0.6487309
1277223437512	5.938472	7.8861814	0.3405087	0.07126713	0.0	-35.0	-33.375	12.125	2.6214342	0.03447854	-0.64543265
1277223437542	5.9793324	7.9270425	0.42223078	0.1315937	0.0	-34.5	-33.125	11.875	2.6405938	0.042498246	-0.6462446
1277223437582	5.938472	7.8589406	0.50395286	0.056531906	0.0	-34.75	-33.875	11.875	2.6697526	0.051116608	-0.6470962
1277223437622	6.1700177	7.8589406	0.5720546	0.20131207	0.0	-34.25	-33.875	11.875	2.750144	0.057191126	-0.6655865
1277223437652	6.238119	7.7363577	0.53119355	0.14561272	0.0	-34.75	-34.125	10.875	2.7448719	0.05339952	-0.67859364
1277223437693	6.3607025	7.6954966	0.50395286	0.19000816	0.0	-35.25	-34.125	11.125	2.7609687	0.050433505	-0.69072086
1277223437732	6.2789803	7.7363577	0.42223078	0.16606808	0.0	-35.25	-33.875	10.875	2.705385	0.042351242	-0.68178606
1277223437772	6.1700177	7.8589406	0.42223078	0.19386673	0.0	-35.0	-34.375	10.875	2.6877482	0.04223345	-0.6655864
1277223437812	6.1700177	7.8589406	0.50395286	0.19764996	0.0	-34.25	-34.375	11.375	2.7488272	0.050394952	-0.6655865
1277223437852	6.0474343	7.8861814	0.38136974	0.1386385	0.0	-34.0	-34.875	11.375	2.7308333	0.038356178	-0.65419143
1277223437892	6.0474343	7.9679036	0.50395286	0.20898342	0.0	-33.75	-34.875	11.875	2.7559206	0.05033788	-0.64922
1277223437932	6.0201936	7.8861814	0.5720546	0.13124847	0.0	-34.5	-34.875	11.625	2.7316158	0.057594772	-0.6520127
1277223437972	6.1291566	7.8589406	0.5720546	0.17617321	0.0	-35.0	-34.375	11.625	2.71976	0.057335302	-0.6623617
1277223438012	6.3198414	7.6954966	0.5720546	0.16773224	0.0	-35.0	-33.875	11.125	2.7613173	0.057383873	-0.687558
1277223438042	6.3198414	7.6954966	0.6537767	0.17275333	0.0	-35.25	-33.625	11.125	2.749461	0.06555956	-0.687558
1277223438072	6.238119	7.6954966	0.61291564	0.118593216	0.0	-35.0	-33.375	10.875	2.7214506	0.061792526	-0.68118274
1277223438102	6.2108784	7.8180795	0.61291564	0.19700146	0.0	-34.75	-33.625	10.875	2.7135139	0.061307583	-0.67133236
1277223438142	6.1700177	7.8861814	0.61291564	0.22513103	0.0	-34.75	-33.625	11.875	2.7188218	0.061135463	-0.66390646
1277223438182	6.0201936	7.7772183	0.50395286	0.04128456	0.0	-34.75	-33.875	11.375	2.6876023	0.05119582	-0.6587354
1277223438212	6.0474343	7.9679036	0.53119355	0.21039104	0.0	-35.0	-34.125	11.625	2.6688106	0.05305387	-0.64921993
1277223438252	6.0882955	7.8589406	0.5720546	0.15113735	0.0	-35.0	-34.125	11.125	2.6880298	0.057479613	-0.6591206
1277223438292	6.0474343	7.8180795	0.6946377	0.10174751	0.0	-34.75	-33.875	10.1875	2.6782508	0.07016351	-0.65838426
1277223438332	6.1291566	7.8589406	0.6946377	0.18394661	0.0	-34.75	-33.875	10.1875	2.6782508	0.07016351	-0.65838426
1277223438372	6.238119	7.8589406	0.6946377	0.25116253	0.0	-34.5	-33.375	9.6875	2.690572	0.06911951	-0.67092496
1277223438412	6.4015636	7.6273947	0.61291564	0.16996384	0.0	-34.5	-33.375	10.1875	2.7789958	0.06147395	-0.69824094
1277223438452	6.469665	7.668256	0.7218784	0.2521677	0.0	-35.0	-33.625	10.375	2.7899275	0.07182747	-0.700822
1277223438492	6.2108784	7.6954966	0.7627395	0.11189079	0.0	-35.0	-33.375	9.9375	2.7091825	0.07697637	-0.6790429
1277223438542	6.0201936	7.9270425	0.84446156	0.1830368	0.0	-35.25	-33.625	10.375	2.6487434	0.084634334	-0.6495218
1277223438582	6.0474343	7.8589406	0.8036005	0.14222813	0.0	-35.25	-33.625	10.1875	2.6549249	0.08086106	-0.6558631
1277223438622	6.1700177	7.9270425	0.6537767	0.25985622	0.0	-34.5	-33.625	10.1875	2.6816244	0.06499149	-0.66139996
1277223438662	6.2789803	7.8589406	0.42223078	0.2614584	0.0	-34.5	-33.375	10.625	2.6897585	0.04194975	-0.67410654
1277223438702	6.1700177	7.9270425	0.38136974	0.24584007	0.0	-34.5	-33.625	10.625	2.6551728	0.03794694	-0.66139996
1277223438742	6.1291566	7.7772183	0.6537767	0.11701393	0.0	-34.5	-33.625	10.625	2.6551728	0.03794694	-0.66139996
1277223438812	5.938472	7.8589406	0.92618364	0.087096214	0.0	-35.0	-33.625	10.625	2.6715803	0.093750305	-0.6470962
1277223438852	6.0882955	7.8589406	0.53119355	0.14887333	0.0	-35.25	-33.875	10.625	2.646605	0.053382017	-0.65912056
1277223438892	6.1700177	7.8589406	0.5720546	0.20131207	0.0	-35.25	-33.625	10.1875	2.647572	0.057191126	-0.6655865
1277223438922	6.1291566	7.8861814	0.61291564	0.20005131	0.0	-35.75	-33.625	9.9375	2.609213	0.06128888	-0.6606844
1277223438962	6.0474343	7.8589406	0.6537767	0.13124847	0.0	-36.0	-33.625	9.9375	2.592429	0.065833755	-0.6558631
1277223439002	6.0201936	7.8589406	0.7218784	0.11941624	0.0	-35.75	-34.375	9.1875	2.610529	0.07278979	-0.6536824
1277223439042	6.0201936	7.8180795	0.7218784	0.08709526	0.0	-35.5	-34.125	9.4375	2.6283753	0.073028006	-0.6562006
1277223439082	6.0882955	7.8180795	0.61291564	0.121359825	0.0	-35.25	-34.125	9.1875	2.629237	0.061775286	-0.66164595
1277223439122	6.0201936	7.8861814	0.61291564	0.13368416	0.0	-35.25	-34.125	8.6875	2.5815525	0.061698593	-0.6520127
1277223439162	5.8567495	8.049625	0.6537767	0.1695919	0.0	-35.75	-33.375	8.9375	2.4863412	0.06558036	-0.62899745
1277223439202	5.7886477	8.049625	0.95342433	0.15396881	0.0	-36.25	-33.375	8.4375	2.489239	0.09586615	-0.6234433
1277223439232	5.7886477	7.9679036	0.92618364	0.08545494	0.0	-36.25	-32.875	8.1875	2.471911	0.0937659	-0.6282879
1277223439272	5.938472	7.9270425	0.95342433	0.14385033	0.0	-36.75	-32.625	8.4375	2.4935484	0.09596394	-0.642951
1277223439312	6.2108784	7.8589406	0.5720546	0.22655487	0.0	-37.0	-32.375	7.9375	2.4438493	0.057047077	-0.66879493
1277223439352	6.2789803	7.7772183	0.313268	0.19379234	0.0	-37.0	-32.125	7.6875	2.3891249	0.03133054	-0.67920995
1277223439392	6.238119	7.9270425	0.42223078	0.28940868	0.0	-37.5	-32.375	7.6875	2.370104	0.041833546	-0.6667276
1277223439432	5.938472	8.076866	0.5720546	0.23468685	0.0	-37.5	-32.375	7.1875	2.3034098	0.057000827	-0.6339906
1277223439472	5.706926	8.008764	0.7218784	0.053897858	0.0	-37.25	-32.625	6.9375	2.3124485	0.0732743	-0.61912245
1277223439512	5.829509	7.8180795	0.9942854	-0.0038881302	0.0	-37.25	-32.875	7.1875	2.4399364	0.101603836	-0.64070785
1277223439553	5.8567495	7.8180795	1.0760075	0.020947456	0.0	-36.75	-32.625	6.9375	2.4609556	0.109708294	-0.6429434
1277223439592	5.8567495	7.6954966	1.1441092	-0.068520546	0.0	-37.0	-32.375	6.9375	2.4767978	0.117759556	-0.6505432
1277223439632	5.8976107	7.7363577	1.1849703	-0.006793022	0.0	-37.25	-32.375	6.9375	2.4759233	0.121213704	-0.65134186
1277223439672	6.2108784	7.8180795	1.3075534	0.2634573	0.0	-37.5	-31.9375	6.4375	2.497986	0.13021268	-0.6713323
1277223439712	6.469665	7.8861814	1.1441092	0.45772552	0.0	-37.75	-31.9375	6.4375	2.4945765	0.11169619	-0.68704486
1277223439742	6.3198414	7.7363577	0.9942854	0.2322855	0.0	-37.5	-32.125	6.0	2.4617555	0.09920555	-0.68496203
1277223439782	5.9793324	7.7772183	0.84446156	0.039702415	0.0	-37.5	-31.9375	6.0	2.3486676	0.08586938	-0.65544164
1277223439822	5.6660647	7.9679036	0.46309182	-0.018584251	0.0	-37.5	-31.6875	5.75	2.15093	0.047329552	-0.6181443
1277223439862	5.7886477	8.349273	0.14982383	0.3541193	0.0	-37.75	-31.4375	4.75	1.964588	0.014745858	-0.606223
1277223439902	7.0553403	7.8589406	-0.27240697	0.75814915	0.0	-38.0	-30.9375	4.75	2.0019298	-0.025787253	-0.73156893
1277223439932	7.3958488	6.851035	-0.61291564	0.293396	0.0	-38.0	-30.9375	4.75	2.0019298	-0.025787253	-0.73156893
1277223439972	6.3198414	7.3958488	0.23154591	-0.07563877	0.0	-38.25	-31.4375	5.0	2.1891644	0.023796886	-0.70710766
1277223440012	4.862464	8.471856	0.8036005	-0.0055446625	0.0	-38.75	-31.6875	6.0	2.0738945	0.08208294	-0.52104855
1277223440053	4.372132	8.689782	0.84446156	-0.042380333	0.0	-38.75	-31.6875	6.25	2.0342145	0.08659304	-0.4661523
1277223440092	4.440233	8.962189	0.46309182	0.2058897	0.0	-38.75	-30.9375	6.4375	1.9559499	0.04626769	-0.45999354
1277223440132	5.243834	8.62168	-0.42223078	0.29332256	0.0	-39.0	-30.4375	6.6875	1.8356346	-0.041817326	-0.5464379
1277223440172	6.1700177	7.6954966	-0.61291564	0.07593346	0.0	-39.1875	-29.9375	7.1875	1.9118524	-0.062059604	-0.6758193
1277223440212	6.0201936	8.158588	-0.84446156	0.3677492	0.0	-39.1875	-29.6875	7.1875	1.8003197	-0.083094254	-0.6357097
1277223440252	5.2165933	9.193735	0.08172209	0.76426697	0.0	-39.6875	-29.6875	6.9375	1.9224037	0.007730919	-0.5161095
1277223440292	5.706926	9.615966	1.2258313	1.4422817	0.0	-39.9375	-28.9375	7.1875	2.1236043	0.10918997	-0.53561485
1277223440332	6.66035	9.343558	1.607201	1.7797832	0.0	-39.6875	-28.1875	6.4375	2.2451553	0.1391628	-0.6192836
1277223440372	7.1234417	8.117727	1.7570249	1.1353817	0.0	-40.1875	-27.9375	6.25	2.4349139	0.16127394	-0.72025365
1277223440412	7.4639506	6.469665	1.7978859	0.23324585	0.0	-40.4375	-27.1875	6.25	2.7600417	0.1800453	-0.85663617
1277223440452	8.812365	4.4810944	0.61291564	0.09858322	0.0	-40.6875	-27.6875	5.75	-2.5227964	0.061917514	-1.1003712
1277223440492	8.962189	4.2904096	0.61291564	0.14845467	0.0	-41.1875	-27.4375	5.0	-2.4258115	0.061606936	-1.1243144
1277223440532	7.43671	5.8976107	2.8330324	0.098526955	0.0	-41.6875	-27.4375	4.75	2.9110672	0.29006582	-0.9003135
1277223440572	7.3549876	6.510526	2.4108016	0.30743694	0.0	-41.6875	-27.6875	4.25	2.7331736	0.24067762	-0.84622675
1277223440612	7.8861814	6.2108784	1.9885708	0.42669106	0.0	-41.6875	-26.9375	3.75	2.8061254	0.19556698	-0.90368396
1277223440652	7.668256	6.1291566	1.56634	0.13428211	0.0	-41.9375	-26.4375	4.0	2.700297	0.15822406	-0.8964887
1277223440692	7.273266	6.3607025	1.2666923	-0.06173134	0.0	-42.1875	-25.6875	3.25	2.4179723	0.13035375	-0.85223156
1277223440732	7.504812	6.5922484	0.7218784	0.20839119	0.0	-42.9375	-25.1875	2.75	2.1581244	0.07214199	-0.8500423
1277223440772	7.5865335	6.973618	-0.3405087	0.5036745	0.0	-43.4375	-24.75	1.8125	1.5888882	-0.033031996	-0.8274687
1277223440812	7.205164	6.851035	1.4165162	0.23613739	0.0	-43.9375	-24.75	1.0625	2.14303	0.14152002	-0.81058663
1277223440852	7.504812	6.5922484	1.3075534	0.2675562	0.0	-44.1875	-24.5	1.0625	2.177317	0.13015941	-0.8500423
1277223440892	7.9270425	6.2789803	1.4573772	0.41037178	0.0	-44.6875	-24.25	1.0625	2.324219	0.14313027	-0.9008934
1277223440932	7.9679036	6.0474343	1.607201	0.32459068	0.0	-44.4375	-24.25	1.3125	2.4564207	0.15931115	-0.9215764
1277223440972	7.6954966	6.4015636	1.56634	0.32518578	0.0	-44.4375	-24.5	1.5625	2.3383515	0.1552184	-0.8769291
1277223441012	7.504812	6.5513873	1.2258313	0.23055744	0.0	-44.1875	-24.5	1.3125	2.17607	0.12243437	-0.8531239
1277223441042	7.43671	6.5513873	1.1441092	0.17003822	0.0	-43.1875	-23.75	0.8125	2.1034667	0.114931114	-0.84860504
1277223441072	7.3958488	6.5513873	1.3756552	0.1689043	0.0	-43.4375	-24.0	1.3125	2.205407	0.13834348	-0.8458712
1277223441112	7.3549876	6.3607025	1.607201	0.0491848	0.0	-43.1875	-23.75	1.5625	2.3113105	0.16380253	-0.8577641
1277223441152	7.082581	6.2108784	1.6889231	-0.2363615	0.0	-42.9375	-23.5	1.5625	2.3236246	0.17740478	-0.85087824
1277223441192	6.742072	6.1700177	1.607201	-0.5272236	0.0	-43.4375	-24.5	2.25	2.3278413	0.17407832	-0.829673
1277223441232	6.5922484	6.66035	1.5390993	-0.30997562	0.0	-43.1875	-24.5	2.25	2.2081442	0.16278517	-0.7802595
1277223441262	6.701211	7.014479	1.334794	-0.014264107	0.0	-43.1875	-24.5	2.5	2.1303113	0.13673505	-0.762562
1277223441302	6.8237944	6.891896	1.1168685	-0.043976784	0.0	-42.6875	-24.9375	3.25	2.1677496	0.11465294	-0.780433
1277223441362	6.742072	6.782933	1.1441092	-0.17479134	0.0	-42.4375	-25.1875	3.0	2.182336	0.119064964	-0.782377
1277223441402	7.205164	7.014479	1.1168685	0.310894	0.0	-42.4375	-25.6875	2.75	2.1951723	0.110614724	-0.7988073
1277223441442	7.273266	7.082581	0.88532263	0.38389206	0.0	-42.1875	-26.6875	1.5625	2.0831301	0.08698655	-0.7986801
1277223441482	7.082581	7.0553403	0.7627395	0.21944332	0.0	-42.4375	-27.1875	0.5625	1.9539143	0.07614902	-0.7873249
1277223441522	7.205164	7.3141265	0.92618364	0.502018	0.0	-42.1875	-27.1875	0.3125	1.9763062	0.089966446	-0.7778936
1277223441562	7.0553403	7.273266	1.0760075	0.3833456	0.0	-42.1875	-26.6875	-0.1875	1.9701825	0.105791725	-0.7701902
1277223441602	7.246025	7.0553403	1.2258313	0.38086033	0.0	-41.9375	-26.1875	-0.1875	2.0630443	0.12061915	-0.79873073
1277223441642	7.6954966	6.701211	1.2258313	0.47097397	0.0	-41.6875	-25.9375	-0.4375	2.1707828	0.119556464	-0.85435206
1277223441682	7.5456724	6.5513873	1.5390993	0.30407047	0.0	-41.1875	-26.6875	-0.6875	2.3464174	0.1528186	-0.8558129
1277223441722	7.3141265	6.701211	1.6480621	0.24913311	0.0	-40.6875	-27.6875	-0.6875	2.3723807	0.16463469	-0.8291021
1277223441762	7.0553403	6.66035	1.607201	0.028042793	0.0	-40.6875	-28.4375	-0.1875	2.395195	0.16415787	-0.81418866
1277223441802	7.1234417	7.0553403	1.6889231	0.3606367	0.0	-40.4375	-29.4375	0.3125	2.4171932	0.16688704	-0.7902012
1277223441842	7.43671	7.164303	1.607201	0.64394665	0.0	-40.1875	-29.4375	1.0625	2.483417	0.15440312	-0.8040527
1277223441882	7.5865335	7.0553403	1.879608	0.72265434	0.0	-40.1875	-29.9375	2.0625	2.6790981	0.17947404	-0.82166135
1277223441912	7.6273947	7.164303	1.7570249	0.804265	0.0	-39.4375	-30.6875	2.5	2.733158	0.16635275	-0.81669545
1277223441942	7.3958488	7.273266	1.7570249	0.71409607	0.0	-39.1875	-30.4375	3.25	2.6738827	0.16779195	-0.7937545
1277223441982	7.014479	7.273266	1.8387469	0.46390533	0.0	-39.4375	-30.9375	3.75	2.639179	0.18000136	-0.7672876
1277223442022	7.668256	8.539958	2.0294318	1.8488903	0.0	-39.1875	-30.6875	4.0	2.5349724	0.17500935	-0.7316684
1277223442053	6.6331096	8.158588	1.1849703	0.77469444	0.0	-39.1875	-29.9375	4.75	2.2900884	0.11222214	-0.6826307
1277223442092	4.944186	7.082581	-0.95342433	-1.116602	0.0	-39.1875	-30.1875	5.25	1.5735931	-0.10993581	-0.6094341
1277223442132	5.407278	7.6954966	0.53119355	-0.3863802	0.0	-39.1875	-29.9375	6.0	2.097788	0.05641828	-0.61250556
1277223442172	4.7943625	8.076866	0.88532263	-0.37237835	0.0	-38.75	-29.9375	6.4375	2.105358	0.093979396	-0.53569436
1277223442202	4.372132	8.812365	0.7627395	0.060217857	0.0	-38.5	-30.1875	7.1875	2.036082	0.0773803	-0.46055168
1277223442232	4.099725	9.234595	0.38136974	0.30428123	0.0	-38.25	-30.4375	8.4375	1.9896724	0.037727505	-0.41781375
1277223442272	4.5219555	9.234595	0.46309182	0.48607922	0.0	-37.75	-30.4375	8.6875	2.0497925	0.045007322	-0.455354
1277223442312	5.175732	8.689782	0.42223078	0.31653023	0.0	-37.5	-30.4375	9.6875	2.1783001	0.041721407	-0.5371862
1277223442352	6.0882955	7.8589406	0.46309182	0.14547253	0.0	-37.25	-30.6875	10.375	2.4379044	0.046548773	-0.65912056
1277223442392	6.238119	7.7772183	0.53119355	0.17740822	0.0	-36.75	-31.4375	10.875	2.5498707	0.053229306	-0.6760211
1277223442432	5.9793324	7.5456724	0.46309182	-0.16797543	0.0	-35.5	-31.6875	11.875	2.6182685	0.048063677	-0.6701011
1277223442472	6.1291566	7.6954966	-0.3405087	0.037290573	0.0	-35.0	-32.625	12.125	2.5493145	-0.034597594	-0.6725788
1277223442512	5.938472	8.158588	-0.3405087	0.29007912	0.0	-34.5	-33.625	12.125	2.4849648	-0.03373105	-0.62919325
1277223442552	5.6252036	8.049625	0.50395286	0.02662754	0.0	-34.0	-33.125	11.875	2.5835297	0.051272195	-0.60993063
1277223442592	5.5571017	8.390134	0.84446156	0.29230213	0.0	-34.25	-33.625	12.125	2.5838082	0.08371648	-0.5849996
1277223442622	5.6252036	8.349273	0.6537767	0.28199196	0.0	-34.25	-33.375	12.875	2.590717	0.064848684	-0.59288067
1277223442662	5.8976107	7.8589406	0.42223078	0.028136253	0.0	-34.25	-32.875	13.375	2.67925	0.04294558	-0.6437783
1277223442702	6.5922484	7.3958488	-0.08172209	0.10107422	0.0	-34.25	-33.625	14.125	2.9130256	-0.008248414	-0.7280124
1277223442742	6.4015636	7.6954966	-0.08172209	0.20371246	0.0	-34.5	-33.875	14.125	2.8014731	-0.00816384	-0.6938672
1277223442782	5.829509	8.076866	0.53119355	0.16837311	0.0	-34.5	-33.625	14.125	2.6789134	0.053277563	-0.62517715
1277223442822	6.1291566	7.8861814	0.313268	0.18617535	0.0	-34.5	-33.375	13.875	2.7269814	0.031354427	-0.66068435
1277223442862	6.701211	7.3958488	-0.14982383	0.17469501	0.0	-34.75	-32.875	13.625	2.8640275	-0.015010948	-0.7361626
1277223442902	6.4424243	7.6273947	-0.10896278	0.17803001	0.0	-34.5	-33.125	13.875	2.7845457	-0.010913214	-0.7013757
1277223442942	6.1291566	7.7363577	-0.0	0.06339455	0.0	-34.5	-33.625	13.375	2.7099166	-0.0	-0.6699996
1277223442982	6.1700177	7.7772183	0.27240697	0.12453556	0.0	-34.25	-33.875	13.625	2.7723782	0.02743289	-0.6706698
1277223443022	6.4424243	7.6273947	0.19068487	0.17925644	0.0	-34.0	-33.875	13.625	2.8656514	0.019096559	-0.7013757
1277223443052	6.5922484	7.5865335	0.23154591	0.24655056	0.0	-34.25	-33.375	13.375	2.8743048	0.023034098	-0.7153879
1277223443082	6.5922484	7.504812	0.19068487	0.18416023	0.0	-34.25	-32.625	13.375	2.8552957	0.019087184	-0.720754
1277223443122	6.5513873	7.5865335	0.14982383	0.21824932	0.0	-34.75	-32.125	12.875	2.769131	0.014945726	-0.7123109
1277223443162	6.469665	7.5865335	0.23154591	0.16659737	0.0	-35.5	-31.9375	12.875	2.7186506	0.023218788	-0.7061074
1277223443202	6.6331096	7.5456724	0.3405087	0.24577522	0.0	-35.75	-31.9375	12.875	2.762723	0.03387977	-0.72112566
1277223443242	6.742072	7.3958488	0.19068487	0.20286942	0.0	-35.75	-32.375	13.125	2.824332	0.019051505	-0.7391883
1277223443282	6.8237944	7.164303	0.46309182	0.09819031	0.0	-35.75	-32.625	13.625	2.9313743	0.046771143	-0.76106024
1277223443322	6.932757	7.164303	0.50395286	0.1755495	0.0	-35.5	-32.875	13.625	2.9779305	0.05050662	-0.7689745
1277223443362	6.742072	7.3141265	0.6537767	0.1622715	0.0	-35.5	-32.625	13.625	2.907693	0.06562859	-0.74472296
1277223443402	6.4424243	7.5456724	0.61291564	0.13405704	0.0	-35.75	-32.375	14.125	2.794503	0.06169628	-0.7066906
1277223443442	6.3198414	7.7363577	0.5720546	0.19929218	0.0	-35.5	-32.375	14.125	2.746658	0.057202682	-0.6849621
1277223443482	6.1700177	7.8180795	0.6537767	0.1742773	0.0	-35.25	-32.125	14.125	2.7168326	0.06554953	-0.6681199
1277223443522	5.9793324	7.7363577	0.8036005	0.0040283203	0.0	-35.25	-32.375	14.5625	2.7267954	0.08200267	-0.6579888
1277223443562	5.7477865	7.8589406	0.6537767	-0.048196793	0.0	-34.75	-32.375	14.8125	2.6786304	0.06704615	-0.6314703
1277223443602	5.7477865	8.308413	0.6946377	0.3200121	0.0	-34.25	-32.375	15.0625	2.6496549	0.06864884	-0.60520357
1277223443642	5.434519	8.19945	-0.27240697	0.034039497	0.0	-34.0	-33.125	14.8125	2.502931	-0.027685232	-0.58531445
1277223443682	6.2789803	7.7363577	-1.879608	0.33286476	0.0	-33.25	-33.625	13.875	2.3859015	-0.18645301	-0.68178606
1277223443722	7.668256	7.7772183	-2.6014864	1.4207716	0.0	-32.75	-34.875	12.875	-2.4621496	-0.23383339	-0.7783436
1277223443762	9.234595	7.43671	-1.1441092	2.1051674	0.0	-31.5625	-36.125	13.375	-2.3816843	-0.09619655	-0.8928261
1277223443802	9.847511	8.049625	0.040861044	2.9122972	0.0	-30.0625	-36.875	14.5625	-2.5670772	0.0032126175	-0.8855189
1277223443842	9.847511	6.932757	-2.4108016	2.4753923	0.0	-27.3125	-38.375	16.3125	-2.0058045	-0.19756952	-0.9573834
1277223443882	9.112013	4.630918	-2.4516625	0.70452595	0.0	-24.625	-39.5625	18.3125	-1.9099464	-0.23541176	-1.1005934
1277223443922	6.5513873	5.47538	1.3756552	-1.1583614	0.0	-22.625	-40.5625	20.25	-2.5881503	0.15974529	-0.8746283
1277223443962	3.568531	7.6954966	0.313268	-1.3182335	0.0	-20.125	-41.0625	22.0	3.100088	0.036913734	-0.43420208
1277223444002	3.0645783	9.384419	-3.2961242	0.60120296	0.0	-18.625	-40.8125	23.1875	2.5727556	-0.32224402	-0.31564242
1277223444042	4.4810944	7.8861814	-2.9556155	-0.26685333	0.0	-16.9375	-40.8125	24.6875	-2.6388268	-0.31500325	-0.5167248
1277223444072	4.903325	6.2789803	-1.6889231	-1.6629009	0.0	-15.4375	-41.0625	24.1875	-2.422798	-0.20890506	-0.6629925
1277223444112	4.399372	5.8567495	-2.2609777	-2.1406202	0.0	-14.1875	-41.3125	24.1875	-2.24922	-0.2993871	-0.64424485
1277223444152	5.325556	6.701211	-3.8681788	-0.41353703	0.0	-13.4375	-42.0625	24.1875	-1.8822099	-0.42443952	-0.67151034
1277223444192	6.3607025	7.5456724	-4.944186	1.2314968	0.0	-12.9375	-42.5625	22.75	-1.685945	-0.4644355	-0.70039296
1277223444232	6.1700177	8.19945	-4.7126403	1.4853411	0.0	-11.9375	-43.5625	21.75	-1.7046515	-0.4305202	-0.64509386
1277223444272	4.2086873	9.466142	-5.6252036	1.9816408	0.0	-11.4375	-44.8125	19.75	-1.0546192	-0.4974495	-0.41835782
1277223444312	5.284695	13.797412	-2.7513103	5.2221985	0.0	-10.9375	-45.3125	17.0625	-2.516834	-0.18410692	-0.36578396
1277223444352	6.3198414	10.95076	0.040861044	2.8369732	0.0	-10.6875	-46.75	14.8125	-2.3854	0.0032317566	-0.5234219
1277223444392	4.7943625	3.568531	-1.879608	-3.5414085	0.0	-11.1875	-47.75	12.375	-1.5884796	-0.30469862	-0.9309415
1277223444432	7.082581	4.5628166	-1.334794	-1.276473	0.0	-10.9375	-48.5	9.9375	-1.692612	-0.15712479	-0.99848753
1277223444472	8.499097	7.5456724	2.2609777	1.7814398	0.0	-10.9375	-49.5	8.9375	-2.0841212	0.19637185	-0.8447512
1277223444512	5.9793324	7.4639506	1.1441092	-0.17483044	0.0	-11.6875	-49.5	7.6875	-2.111013	0.119065456	-0.6754082
1277223444552	5.134871	7.164303	0.9942854	-0.93632126	0.0	-12.1875	-49.75	6.4375	-2.121926	0.11232722	-0.62186617
1277223444592	5.053149	7.3549876	0.92618364	-0.8351412	0.0	-13.1875	-49.75	5.25	-2.1045842	0.10342037	-0.60197294
1277223444632	6.1700177	7.9679036	0.5720546	0.28710365	0.0	-14.4375	-49.75	3.25	-1.8748109	0.056704503	-0.65890944
1277223444672	6.469665	8.049625	0.42223078	0.52927303	0.0	-14.9375	-49.75	2.0625	-1.7742157	0.040862177	-0.6770066
1277223444712	5.6252036	7.246025	-0.27240697	-0.6293955	0.0	-15.4375	-49.25	1.0625	-1.550045	-0.029687198	-0.6601316
1277223444752	5.434519	7.3141265	-0.84446156	-0.65549946	0.0	-15.9375	-49.25	-0.1875	-1.293913	-0.09241075	-0.63901687
1277223444792	6.4015636	9.724928	-0.5720546	1.8501711	0.0	-15.9375	-49.0	-1.6875	-1.2769719	-0.049094383	-0.5821623
1277223444832	6.0474343	10.228881	-0.27240697	2.0792942	0.0	-15.9375	-48.5	-4.125	-1.1229696	-0.022920417	-0.53393245
1277223444872	6.5922484	9.152874	-2.5333846	1.754097	0.0	-15.6875	-48.25	-6.8125	-0.7314419	-0.22092964	-0.62417984
1277223444912	5.938472	12.408136	-3.8273177	4.4718533	0.0	-15.6875	-47.75	-8.3125	-0.29371747	-0.27136585	-0.44637743
1277223444942	4.8216033	9.765789	-2.9556155	1.4784794	0.0	-15.4375	-47.75	-9.3125	-0.3203823	-0.26499408	-0.45861414
1277223444982	10.882658	11.34575	0.61291564	5.9265623	0.0	-14.6875	-47.75	-8.5625	-1.2760234	0.03896666	-0.7645678
1277223445022	11.727119	11.563675	0.92618364	6.688856	0.0	-12.9375	-48.75	-6.8125	-1.4021875	0.056177173	-0.79241556
1277223445062	9.112013	9.697687	0.46309182	3.508317	0.0	-10.9375	-50.0	-5.125	-1.4348115	0.03478681	-0.7542714
1277223445102	6.510526	5.47538	-1.7297841	-1.125701	0.0	-8.25	-51.5	-2.875	-1.2672983	-0.20060486	-0.871548
1277223445142	4.440233	1.920469	1.0351465	-4.8593884	0.0	-5.5	-52.75	-1.4375	-1.6577895	0.21079385	-1.1625774
1277223445182	3.255263	2.070293	2.0294318	-5.4475856	0.0	-4.0	-52.75	-0.1875	-1.9023578	0.4842739	-1.0043378
1277223445222	2.8330324	4.3312707	0.6946377	-4.584725	0.0	-2.0625	-53.0	0.5625	-1.8083953	0.13341877	-0.5792437
1277223445262	5.6660647	4.2086873	-1.2258313	-2.6428523	0.0	-1.5625	-52.75	0.5625	-1.4496306	-0.17196096	-0.9319266
1277223445302	7.205164	4.2904096	-0.38136974	-1.4121618	0.0	-1.8125	-53.0	0.3125	-1.548597	-0.045446612	-1.0337194
1277223445342	4.7943625	12.980191	-5.243834	4.9909534	0.0	-2.5625	-53.4375	0.0625	-0.7295374	-0.36224076	-0.35381684
1277223445382	-1.7297841	18.700737	-5.8158884	9.853825	0.0	-3.5625	-53.6875	-1.1875	0.46680135	-0.30030993	0.09223572
1277223445422	2.6832085	11.985906	-3.173541	2.879283	0.0	-4.25	-53.4375	-3.625	-0.42147613	-0.2528478	-0.22023258
1277223445462	13.633968	12.367276	1.6889231	8.678129	0.0	-4.75	-53.4375	-6.5625	-1.4903616	0.091495916	-0.8340763
1277223445502	11.645397	3.5957718	-3.9771416	3.0137444	0.0	-4.5	-53.25	-8.5625	-1.2889591	-0.31542432	-1.2713114
1277223445542	3.486809	1.2666923	-2.7240696	-5.2041616	0.0	-5.0	-53.0	-9.3125	-1.1592313	-0.6333754	-1.222339
1277223445582	6.932757	6.5922484	1.3756552	-0.14159489	0.0	-5.75	-53.0	-8.5625	-1.4930334	0.1428179	-0.81056905
1277223445622	6.742072	8.812365	3.990762	1.9848509	0.0	-7.0	-52.5	-7.0625	-1.8968238	0.34526277	-0.6530761
1277223445662	3.8681788	7.082581	0.95342433	-1.6804714	0.0	-9.0	-51.75	-6.8125	-1.51581	0.11759838	-0.49988553
1277223445702	4.140586	7.014479	0.7218784	-1.6293354	0.0	-10.6875	-51.5	-6.8125	-1.4308566	0.08839324	-0.5332501
1277223445734	5.597963	7.9679036	-0.08172209	-0.06851101	0.0	-11.9375	-51.25	-7.3125	-1.1971352	-0.00839206	-0.61244476
1277223445772	5.5571017	7.3549876	0.14982383	-0.5871239	0.0	-12.6875	-50.75	-8.0625	-1.2291547	0.016251422	-0.64704716
1277223445812	5.434519	6.8237944	0.7627395	-1.049942	0.0	-13.1875	-50.75	-9.0625	-1.3467146	0.08721397	-0.6725463
1277223445852	6.0882955	8.308413	-0.23154591	0.49629498	0.0	-13.6875	-50.0	-10.5	-1.0116247	-0.02247565	-0.63239336
1277223445892	6.0201936	11.182305	-0.29964766	2.8967533	0.0	-14.1875	-49.0	-13.0	-0.6482726	-0.023590172	-0.49386874
1277223445932	4.372132	11.536434	-1.879608	2.672844	0.0	-15.9375	-47.5	-16.1875	-0.08180573	-0.15119107	-0.3622595
1277223445972	3.990762	13.252599	-5.8158884	5.2060814	0.0	-17.4375	-45.3125	-18.875	0.10009902	-0.39780653	-0.29249364
1277223446012	4.140586	11.563675	-4.7535014	3.3637266	0.0	-18.375	-43.5625	-20.875	0.071485825	-0.3692582	-0.3438445
1277223446052	9.847511	11.876944	2.2609777	5.7865305	0.0	-19.375	-43.0625	-19.875	-0.76610476	0.1455108	-0.69225156
1277223446092	13.756551	13.715691	1.879608	9.709902	0.0	-17.875	-43.8125	-16.9375	-0.9682611	0.09645791	-0.7868855
1277223446132	11.223166	9.615966	-1.56634	5.0553713	0.0	-16.1875	-45.8125	-13.75	-0.9294741	-0.10558821	-0.86236995
1277223446172	6.1291566	5.366417	0.27240697	-1.6556263	0.0	-13.9375	-47.5	-10.5	-1.240737	0.03342619	-0.8516517
1277223446212	2.5333846	0.5720546	3.9499009	-5.0793886	0.0	-11.1875	-48.75	-8.5625	-1.8593895	0.9891474	-1.3487144
1277223446252	1.9477097	0.7627395	2.2609777	-6.726494	0.0	-9.5	-50.0	-8.3125	-1.8897706	0.8242613	-1.1975449
1277223446292	1.9885708	2.7649305	-0.10896278	-6.3991394	0.0	-7.25	-50.25	-7.8125	-1.1952008	-0.031982694	-0.6235038
1277223446332	4.903325	2.070293	0.6946377	-4.4390407	0.0	-6.0	-50.75	-6.8125	-1.4924952	0.12977684	-1.1712809
1277223446372	10.732834	8.049625	-5.5571017	4.7147675	0.0	-5.0	-51.0	-5.375	-1.1219293	-0.3926988	-0.9272952
1277223446412	5.175732	18.659876	-11.141444	12.534142	0.0	-5.0	-50.75	-3.625	-0.30077916	-0.522103	-0.27057037
1277223446482	9.997335	11.141444	3.3778462	5.5389795	0.0	-5.0	-50.75	-3.625	-0.30077916	-0.522103	-0.27057037
1277223446522	12.108489	13.443283	-1.9477097	8.390354	0.0	-5.25	-50.25	-4.125	-1.2931275	-0.107240066	-0.7332068
1277223446562	4.099725	2.8738933	-0.8036005	-4.735873	0.0	-5.75	-50.0	-5.125	-1.3023497	-0.15914777	-0.9594018
1277223446602	8.390134	5.938472	1.7297841	0.6169739	0.0	-6.0	-49.5	-6.8125	-1.5394114	0.1667197	-0.95485973
1277223446642	7.6954966	6.2108784	2.5333846	0.40186214	0.0	-7.25	-49.25	-7.5625	-1.6225747	0.25078446	-0.89175344
1277223446682	5.407278	6.3198414	1.3075534	-1.387105	0.0	-8.5	-48.5	-7.5625	-1.5353351	0.15593089	-0.70773816
1277223446712	4.140586	6.4015636	0.9942854	-2.1181479	0.0	-10.25	-47.75	-8.5625	-1.4226573	0.12968427	-0.5741284
1277223446742	4.0180025	8.471856	-1.334794	-0.3357277	0.0	-11.4375	-46.75	-10.0625	-0.5286369	-0.1414068	-0.4428579
1277223446782	4.440233	8.921328	-1.56634	0.2809248	0.0	-12.6875	-45.5625	-11.0	-0.45939007	-0.155905	-0.46181387
1277223446822	5.053149	7.205164	-0.7627395	-0.97316456	0.0	-13.6875	-44.8125	-13.75	-0.6914859	-0.086454034	-0.6116135
1277223446862	5.597963	7.3549876	-0.50395286	-0.54992294	0.0	-14.4375	-43.5625	-16.1875	-0.67715645	-0.05446873	-0.6505744
1277223446902	5.938472	9.997335	-0.46309182	1.8306437	0.0	-15.6875	-42.3125	-17.4375	-0.400359	-0.03980428	-0.53600013
1277223446942	4.862464	10.378705	-2.1111538	1.8474503	0.0	-16.6875	-41.0625	-18.875	-0.0866688	-0.18215685	-0.4381348
1277223446982	4.9850473	12.9529505	-0.50395286	4.081604	0.0	-17.875	-40.3125	-19.125	0.10596763	-0.036294233	-0.3673852
1277223447022	5.012288	12.980191	-2.1111538	4.26692	0.0	-18.875	-39.8125	-18.875	0.12863363	-0.15057679	-0.36850914
1277223447055	10.079058	12.176591	-0.9942854	6.0314484	0.0	-18.625	-40.3125	-17.6875	-0.50908726	-0.062819384	-0.69142854
1277223447092	14.818938	11.917805	1.0351465	9.238207	0.0	-17.875	-41.3125	-15.6875	-0.99926126	0.054379866	-0.8934827
1277223447132	12.4489975	8.689782	-0.38136974	5.3800316	0.0	-16.1875	-42.3125	-13.5	-1.0544541	-0.025114756	-0.9613933
1277223447172	9.152874	4.7943625	-1.879608	0.6954422	0.0	-13.6875	-44.0625	-11.25	-1.0936034	-0.17994416	-1.0882831
1277223447212	3.990762	2.8738933	2.7649305	-4.164817	0.0	-12.1875	-45.5625	-9.3125	-1.8873401	0.51217765	-0.9466834
1277223447252	1.4982382	3.0645783	2.070293	-5.816353	0.0	-11.1875	-46.3125	-8.0625	-2.6035626	0.5454839	-0.45471925
1277223447292	2.4108016	4.671779	-0.5720546	-4.5184813	0.0	-10.5	-47.25	-7.8125	-0.7658171	-0.10838842	-0.47639316
1277223447332	4.8216033	4.5219555	0.08172209	-3.1958547	0.0	-9.75	-47.25	-6.8125	-1.3470633	0.012362229	-0.8174572
1277223447372	6.8237944	1.9477097	0.38136974	-2.700091	0.0	-9.25	-47.0	-6.3125	-1.4510194	0.053690262	-1.2927604
1277223447412	7.7772183	5.134871	-2.9556155	-0.029754639	0.0	-9.25	-47.25	-6.125	-1.1337005	-0.30711108	-0.98725253
1277223447452	1.4573772	18.38747	-10.228881	11.284889	0.0	-9.5	-47.25	-6.3125	0.19710839	-0.5063352	-0.07909391
1277223447492	-0.0	15.28203	-5.597963	6.4684105	0.0	-10.25	-47.0	-7.5625	0.4149549	-0.35113052	0.0
1277223447532	8.158588	9.425281	1.3756552	2.7349167	0.0	-10.9375	-47.0	-8.8125	-1.3914982	0.10990881	-0.7134852
1277223447572	12.762266	9.302697	1.9477097	6.105898	0.0	-11.6875	-46.5	-10.3125	-1.3863457	0.12270858	-0.94092214
1277223447612	6.973618	2.4925237	-4.2495484	-1.2683439	0.0	-11.9375	-45.8125	-10.5	-1.0512532	-0.5209495	-1.227525
1277223447652	5.012288	3.1054392	1.3075534	-3.7670736	0.0	-12.6875	-46.0625	-10.3125	-1.4945531	0.21822548	-1.0161147
1277223447692	7.205164	6.0882955	3.5957718	0.28846264	0.0	-13.6875	-45.8125	-10.3125	-1.7456001	0.36418658	-0.8692177
1277223447722	6.469665	7.9679036	2.152015	0.68025684	0.0	-14.6875	-46.0625	-10.3125	-1.5223427	0.20667794	-0.6819947
1277223447752	4.7943625	7.1234417	1.1849703	-1.1386929	0.0	-15.6875	-45.8125	-10.75	-1.2442188	0.13713641	-0.59240204
1277223447792	4.4810944	7.3141265	0.19068487	-1.2268476	0.0	-16.9375	-45.3125	-12.5	-0.6787851	0.022226684	-0.5496785
1277223447832	4.7943625	9.084772	-0.6946377	0.48905373	0.0	-17.4375	-44.5625	-14.0	-0.30338112	-0.067519985	-0.4855895
1277223447872	4.372132	7.9679036	-2.5333846	-0.37155247	0.0	-17.875	-43.8125	-15.9375	-0.1908747	-0.27184218	-0.5018584
1277223447912	5.9793324	7.246025	-0.42223078	-0.40263176	0.0	-18.875	-43.3125	-18.4375	-0.5663766	-0.04491407	-0.68991184
1277223447952	6.5922484	9.193735	-0.84446156	1.5377588	0.0	-19.625	-42.0625	-20.375	-0.34647676	-0.07450749	-0.62206894
1277223447992	7.014479	9.847511	-1.2258313	2.3456764	0.0	-20.625	-41.3125	-22.875	-0.25628182	-0.10104401	-0.6189399
1277223448032	7.43671	12.067628	-1.2258313	4.4213133	0.0	-21.875	-40.3125	-24.0625	-0.09024862	-0.086263426	-0.5522845
1277223448072	5.597963	15.091345	-1.2666923	6.33926	0.0	-23.125	-39.3125	-24.0625	0.28329784	-0.07853353	-0.35520527
1277223448112	4.9850473	10.651112	-2.7921712	2.2802477	0.0	-24.125	-39.5625	-22.875	0.15320599	-0.23311366	-0.43774667
1277223448152	9.724928	10.119919	-1.4165162	4.299855	0.0	-24.875	-40.5625	-20.125	-0.3907075	-0.100585334	-0.7654968
1277223448192	12.721405	10.119919	0.95342433	6.476959	0.0	-24.125	-42.0625	-17.6875	-0.8726666	0.058584675	-0.89880335
1277223448236	10.419566	8.076866	0.6537767	3.392992	0.0	-22.875	-45.0625	-14.6875	-1.049445	0.049550153	-0.91138417
1277223448272	5.7886477	4.7943625	-1.1849703	-2.1975431	0.0	-21.375	-47.75	-11.25	-0.89849985	-0.15636696	-0.8790743
1277223448312	1.4573772	3.8273177	2.8738933	-4.803494	0.0	-19.625	-49.75	-8.0625	3.1152096	0.61189055	-0.36383095
1277223448352	0.6537767	4.8216033	0.08172209	-4.940239	0.0	-17.6875	-51.25	-5.125	1.1923059	0.01679388	-0.13477127
1277223448392	3.405087	3.173541	-0.0	-5.151977	0.0	-16.1875	-52.0	-2.875	-1.4647285	-0.0	-0.82058036
1277223448432	6.0201936	1.7978859	0.10896278	-3.5227823	0.0	-14.9375	-52.5	-1.6875	-1.5451978	0.01734095	-1.2805854
1277223448472	8.049625	3.255263	-3.445948	-0.46492863	0.0	-14.4375	-53.0	-1.6875	-1.2643263	-0.3778007	-1.1865032
1277223448502	5.7886477	16.3989	-12.299174	11.493631	0.0	-15.4375	-53.6875	-1.4375	-0.09895585	-0.61556315	-0.33933604
1277223448542	-0.8036005	14.7916975	-5.6252036	6.038948	0.0	-15.6875	-53.9375	-2.375	0.72371554	-0.36291516	0.054274455
1277223448582	5.012288	8.281172	0.313268	-0.12166309	0.0	-15.1875	-53.9375	-4.125	-1.4130452	0.03235138	-0.5442805
1277223448622	12.108489	9.275456	-0.6946377	5.462014	0.0	-14.9375	-53.6875	-4.625	-1.375186	-0.045510042	-0.9171152
1277223448672	6.510526	3.6774938	1.6480621	-2.1498218	0.0	-14.1875	-53.6875	-4.625	-1.6666992	0.21693842	-1.0566208
1277223448712	13.021052	3.718355	3.9499009	4.299224	0.0	-13.9375	-53.9375	-4.375	-1.6476682	0.28381303	-1.2926348
1277223448752	0.14982383	14.750836	0.50395286	4.9535522	0.0	-15.4375	-53.6875	-5.875	1.3062963	0.034149315	-0.010156622
1277223448792	2.7921712	5.6660647	-4.4810944	-2.0619287	0.0	-16.9375	-53.0	-9.0625	-0.2069016	-0.6170109	-0.45786172
1277223448832	2.9147544	5.7477865	1.4165162	-3.2082138	0.0	-18.875	-51.75	-13.25	-1.3901377	0.21635857	-0.46931866
1277223448872	4.0588636	8.281172	2.6423476	-0.21320534	0.0	-21.375	-49.5	-17.4375	-0.9308854	0.2790397	-0.45572174
1277223448912	5.09401	7.5865335	0.23154591	-0.6656418	0.0	-23.375	-47.0	-20.375	-0.34257385	0.025333166	-0.5913097
1277223448952	6.5922484	7.3141265	-1.0760075	0.0984993	0.0	-24.125	-45.3125	-22.625	-0.41868597	-0.10884592	-0.7335348
1277223448992	6.469665	8.539958	1.6480621	1.0332556	0.0	-25.0625	-43.5625	-24.8125	-0.357449	0.15262848	-0.64833194
1277223449052	5.175732	12.108489	-1.879608	3.495103	0.0	-25.5625	-42.0625	-26.8125	0.2056382	-0.14177983	-0.40394112
1277223449092	5.8976107	12.639683	-0.61291564	4.1546917	0.0	-26.0625	-41.3125	-27.0625	0.20782666	-0.043915026	-0.43656817
1277223449132	4.0588636	12.408136	-0.7627395	3.2707348	0.0	-27.0625	-40.8125	-26.0625	0.42532438	-0.058358192	-0.3161419
1277223449172	6.1700177	10.651112	0.42223078	2.5097446	0.0	-26.8125	-41.8125	-23.3125	0.10344399	0.03428873	-0.5250478
1277223449212	14.560152	13.0619135	2.1792557	9.874832	0.0	-25.8125	-43.8125	-20.125	-0.8100995	0.11095371	-0.8395857
1277223449252	13.756551	8.281172	0.9942854	6.280895	0.0	-24.125	-45.8125	-16.9375	-1.0846168	0.061844084	-1.028922
1277223449292	6.973618	6.510526	-1.2666923	-0.18257618	0.0	-21.125	-48.5	-13.75	-0.8101535	-0.13200004	-0.8197281
1277223449332	2.7921712	5.9793324	-1.7570249	-2.9776115	0.0	-18.625	-50.25	-11.25	-0.17633243	-0.26021394	-0.43687654
1277223449372	1.2258313	4.0180025	-1.1441092	-5.452802	0.0	-16.9375	-51.75	-7.5625	0.050845493	-0.26590356	-0.29611516
1277223449412	0.313268	1.607201	1.4573772	-7.6145782	0.0	-14.1875	-53.0	-4.625	3.0271504	0.7272796	-0.19250165
1277223449452	3.486809	1.879608	1.4165162	-5.5998363	0.0	-13.1875	-53.6875	-2.625	-1.8103695	0.34343076	-1.0763892
1277223449492	8.471856	3.1463003	-0.42223078	-0.7595606	0.0	-11.9375	-53.9375	-1.4375	-1.509791	-0.0466873	-1.2152008
1277223449532	8.689782	12.026767	-10.269742	8.238377	0.0	-11.1875	-53.9375	-0.9375	-0.6539793	-0.60543233	-0.6256918
1277223449562	-1.4573772	18.428331	-7.504812	10.144529	0.0	-11.1875	-54.4375	-0.9375	0.6352536	-0.38564712	0.078919254
1277223449602	-3.0645783	10.460427	-3.8681788	1.7594643	0.0	-10.5	-54.1875	-0.6875	0.97794425	-0.34101164	0.2849937
1277223449642	6.0474343	4.4810944	-0.3405087	-2.2722216	0.0	-10.0	-54.1875	-0.6875	-1.5041672	-0.0452091	-0.933086
1277223449682	15.431854	13.293459	0.6946377	10.573257	0.0	-10.5	-53.6875	-1.6875	-1.5642608	0.03409104	-0.859704
1277223449722	8.117727	6.469665	-1.1168685	0.6337261	0.0	-11.9375	-53.25	-2.625	-1.3644644	-0.107180975	-0.8978997
1277223449762	6.742072	5.7886477	-0.53119355	-0.9046202	0.0	-13.9375	-52.5	-4.125	-1.353513	-0.059706528	-0.8613388
1277223449802	6.742072	7.5456724	0.19068487	0.31407452	0.0	-16.1875	-51.75	-5.125	-1.3857894	0.018842146	-0.72921336
1277223449842	5.053149	7.164303	1.6480621	-0.88601875	0.0	-17.875	-51.25	-5.625	-1.8395486	0.18581468	-0.6142897
1277223449882	3.214402	5.284695	0.38136974	-3.6094065	0.0	-20.375	-49.75	-6.5625	-1.2000747	0.06157751	-0.5464617
1277223449922	3.1054392	5.8567495	-0.23154591	-3.1734853	0.0	-22.125	-49.0	-7.5625	-0.34667864	-0.034914397	-0.48754013
1277223449962	4.5219555	7.8861814	-0.7627395	-0.68405724	0.0	-23.375	-48.25	-9.3125	-0.2643945	-0.08370767	-0.5206328
1277223450002	5.175732	7.7772183	-0.9942854	-0.4118681	0.0	-23.625	-47.25	-12.25	-0.35190174	-0.106032364	-0.5871939
1277223450042	6.238119	9.084772	0.27240697	1.2170248	0.0	-23.375	-47.0	-14.5	-0.50684154	0.024713602	-0.60171443
1277223450082	8.117727	11.073342	-0.42223078	3.9299688	0.0	-23.625	-46.0625	-17.4375	-0.4065415	-0.03074245	-0.63258886
1277223450122	6.5922484	12.721405	-5.202973	5.436802	0.0	-24.875	-44.5625	-20.125	0.043541726	-0.3483263	-0.4781024
1277223450162	4.2495484	14.410328	-3.3642259	5.589266	0.0	-26.5625	-43.3125	-21.375	0.3966552	-0.22029158	-0.2867677
1277223450202	4.8216033	10.991621	-2.1792557	2.392233	0.0	-27.3125	-42.8125	-21.375	0.2548317	-0.17960797	-0.4133851
1277223450242	11.141444	13.633968	1.7978859	7.8921986	0.0	-27.3125	-43.5625	-19.125	-0.43399546	0.1017576	-0.6851308
1277223450282	11.985906	12.299174	2.7649305	7.5880756	0.0	-25.3125	-45.5625	-15.4375	-1.0833995	0.1596293	-0.7724992
1277223450322	10.691973	7.246025	-2.1383946	3.2851753	0.0	-22.875	-48.25	-11.0	-0.97531736	-0.16407329	-0.97518927
1277223450362	6.66035	3.990762	-0.50395286	-2.0258784	0.0	-19.875	-50.5	-7.3125	-1.2751483	-0.064814374	-1.0309784
1277223450402	1.607201	1.879608	2.5606253	-6.2467594	0.0	-17.1875	-52.0	-4.625	-2.584076	0.80279255	-0.7074315
1277223450442	-0.46309182	3.6774938	0.9942854	-5.9690704	0.0	-15.9375	-52.75	-2.375	2.0181956	0.26208177	0.12526658
1277223450482	1.1849703	2.152015	0.14982383	-7.345396	0.0	-14.1875	-53.4375	-0.9375	-1.743643	0.060910627	-0.503329
1277223450522	4.8216033	1.4573772	0.42223078	-4.7519407	0.0	-13.1875	-53.9375	-0.1875	-1.6161737	0.0836296	-1.2772676
1277223450562	9.343558	4.5628166	-2.070293	0.79558945	0.0	-12.9375	-54.1875	0.3125	-1.418395	-0.19653212	-1.1165216
1277223450602	4.4810944	18.700737	-13.1708765	13.501497	0.0	-12.6875	-54.6875	1.0625	-0.013139217	-0.60052544	-0.23518685
1277223450642	-2.7240696	6.3607025	-1.8387469	-2.6470356	0.0	-12.1875	-54.6875	0.0625	1.2297282	-0.2597325	0.4046333
1277223450695	11.727119	8.539958	0.84446156	4.7250166	0.0	-11.9375	-54.9375	-1.1875	-1.6043458	0.058144573	-0.9413788
1277223450732	9.80665	9.193735	-2.982856	3.9626122	0.0	-11.9375	-55.1875	-1.6875	-1.2209461	-0.2183627	-0.817645
1277223450772	6.0474343	3.759216	1.9477097	-2.4244595	0.0	-11.9375	-55.6875	-3.125	-1.7498032	0.26700008	-1.0146301
1277223450812	8.689782	8.730643	0.27240697	2.5144968	0.0	-13.6875	-55.6875	-3.375	-1.4936067	0.022110699	-0.78305256
1277223450852	5.8976107	7.082581	1.7297841	-0.4291811	0.0	-15.9375	-55.4375	-2.625	-1.8698043	0.18552417	-0.69435984
1277223450892	4.0180025	4.6036777	2.4108016	-3.237772	0.0	-17.6875	-54.6875	-3.125	-2.200211	0.3757857	-0.7175718
1277223450932	3.568531	5.366417	0.6946377	-3.3247242	0.0	-19.875	-53.4375	-4.125	-1.711483	0.10737152	-0.58683026
1277223450972	4.9850473	6.5922484	-0.50395286	-1.5264082	0.0	-21.625	-52.75	-5.875	-1.006608	-0.06089973	-0.6474562
1277223451012	4.2904096	6.469665	0.23154591	-2.040197	0.0	-22.625	-51.5	-8.5625	-0.9475149	0.029818017	-0.5855695
1277223451052	4.944186	10.732834	-1.2666923	2.0779285	0.0	-23.625	-50.25	-12.25	0.023925733	-0.106785685	-0.43168324
1277223451092	5.5571017	12.639683	-2.2201166	4.178052	0.0	-24.625	-48.5	-16.6875	0.119852476	-0.15942775	-0.41421792
1277223451132	4.440233	12.680544	-6.469665	5.1053724	0.0	-25.8125	-46.0625	-20.625	0.2185691	-0.44876778	-0.33681834
1277223451172	5.175732	14.628253	-3.214402	6.039686	0.0	-27.0625	-44.5625	-23.3125	0.31054506	-0.20426579	-0.34007168
1277223451212	4.7943625	10.800936	1.607201	2.119339	0.0	-27.5625	-44.8125	-23.3125	0.4113288	0.13517587	-0.41775623
1277223451252	9.765789	13.021052	1.0351465	6.50255	0.0	-26.8125	-46.3125	-20.625	-0.35282102	0.06351279	-0.6435011
1277223451292	13.021052	12.571581	2.3426998	8.44385	0.0	-24.375	-49.25	-16.6875	-1.0791423	0.12871875	-0.8029589
1277223451332	11.686258	10.56939	0.5720546	5.9606543	0.0	-20.625	-51.75	-12.75	-1.1519648	0.036289033	-0.8355397
1277223451372	7.0553403	4.862464	-0.3405087	-1.2312593	0.0	-17.1875	-53.9375	-10.0625	-1.2418151	-0.039718103	-0.9673629
1277223451412	2.6423476	1.3756552	2.8330324	-5.695628	0.0	-13.6875	-55.1875	-9.3125	-1.9935933	0.7602891	-1.0907903
1277223451452	1.56634	1.3075534	0.10896278	-7.763371	0.0	-10.0	-55.6875	-9.3125	-1.3808599	0.053352717	-0.8752033
1277223451492	2.4516625	3.3778462	0.6946377	-5.5754547	0.0	-6.75	-56.1875	-9.5625	-1.5230292	0.1649171	-0.6278366
1277223451532	5.243834	1.4573772	0.8036005	-4.305058	0.0	-4.25	-55.6875	-9.0625	-1.4534856	0.14659134	-1.2997155
1277223451572	7.4639506	2.1792557	-0.50395286	-2.0147514	0.0	-2.5625	-55.9375	-7.0625	-1.4168491	-0.06472169	-1.286722
1277223451612	5.053149	15.826844	-11.563675	10.435432	0.0	-2.3125	-56.1875	-4.875	-0.40235054	-0.6080512	-0.30904707
1277223451652	-1.607201	11.223166	-3.5276701	2.0671453	0.0	-1.8125	-55.6875	-3.625	0.4558075	-0.30165103	0.14223683
1277223451692	8.962189	5.012288	3.405087	1.0117817	0.0	-0.8125	-55.9375	-3.625	-1.6813698	0.32019186	-1.0608635
1277223451722	15.595298	12.4489975	-0.08172209	10.148237	0.0	-1.3125	-55.4375	-3.875	-1.4764863	-0.0040953537	-0.89712137
1277223451762	9.302697	5.5162406	-3.9499009	1.7072897	0.0	-1.3125	-54.9375	-4.125	-1.2813292	-0.35016608	-1.0355604
1277223451802	8.19945	5.09401	0.313268	-0.1485939	0.0	-2.3125	-54.6875	-5.125	-1.4799069	0.032441616	-1.0148892
1277223451842	8.62168	6.742072	0.313268	1.1426439	0.0	-3.5625	-53.4375	-5.875	-1.4498248	0.028614698	-0.90713364
1277223451882	6.4424243	6.742072	1.56634	-0.35076332	0.0	-4.25	-53.0	-7.0625	-1.5668844	0.16641411	-0.76267475
1277223451922	3.9499009	6.1700177	1.607201	-2.306388	0.0	-6.0	-52.25	-8.5625	-1.6467509	0.21596077	-0.56943846
1277223451962	2.7240696	7.273266	1.334794	-1.9261284	0.0	-8.0	-51.75	-9.0625	-1.5475552	0.17019941	-0.35836017
1277223451992	3.718355	8.539958	-0.29964766	-0.48748493	0.0	-10.25	-51.75	-9.8125	-0.7764453	-0.03215946	-0.41065207
1277223452022	3.718355	8.689782	-0.9942854	-0.30259418	0.0	-11.4375	-51.25	-11.25	-0.52671677	-0.10480874	-0.4043241
1277223452053	4.2495484	8.580819	-1.4982382	-0.11470318	0.0	-12.4375	-50.5	-13.5	-0.48872808	-0.15520829	-0.45983082
1277223452092	4.6036777	9.302697	-0.42223078	0.58143425	0.0	-14.1875	-49.5	-16.4375	-0.46355712	-0.04065688	-0.45953968
1277223452122	5.134871	11.795221	-0.08172209	3.0580626	0.0	-15.6875	-47.25	-19.625	-0.22083181	-0.006352465	-0.4105917
1277223452162	5.134871	11.876944	-2.3426998	3.3431377	0.0	-17.1875	-44.8125	-22.375	-0.06558451	-0.17911108	-0.40807077
1277223452202	6.851035	11.223166	-5.8976107	4.6043863	0.0	-18.625	-42.3125	-25.5625	-0.14511545	-0.42162386	-0.5480584
1277223452243	4.9850473	12.680544	-1.7570249	3.9314003	0.0	-19.125	-40.5625	-26.3125	0.09270951	-0.12824602	-0.3745662
1277223452282	3.5957718	10.419566	-0.6537767	1.2352858	0.0	-19.875	-40.5625	-25.5625	0.19470105	-0.05924317	-0.33230117
1277223452322	13.633968	13.6748295	1.1168685	9.535879	0.0	-19.625	-41.5625	-23.3125	-0.6393876	0.057773728	-0.7839019
1277223452362	13.0619135	10.923519	-1.7297841	7.3085194	0.0	-18.375	-43.3125	-19.875	-0.72893155	-0.10124016	-0.87431693
1277223452402	8.539958	6.891896	0.040861044	1.1674452	0.0	-16.9375	-44.8125	-17.1875	-0.95817935	0.0037234176	-0.89179105
1277223452442	3.8273177	3.214402	1.3756552	-4.6227164	0.0	-15.1875	-46.0625	-15.9375	-1.3992583	0.2685866	-0.87222
1277223452482	2.152015	3.255263	-0.9942854	-5.7796774	0.0	-12.9375	-46.3125	-15.1875	-0.5156769	-0.24948652	-0.5841304
1277223452522	2.7240696	3.486809	1.2258313	-5.215239	0.0	-11.4375	-46.3125	-14.6875	-1.4417291	0.27026162	-0.663203
1277223452562	3.568531	2.8738933	0.313268	-5.214068	0.0	-10.25	-46.5	-14.25	-1.197019	0.068264745	-0.89280564
1277223452602	6.0882955	1.0760075	-0.88532263	-3.5609374	0.0	-8.5	-46.75	-13.0	-1.2418704	-0.14222789	-1.3958689
1277223452642	8.349273	9.343558	-9.275456	5.7832994	0.0	-9.0	-47.0	-12.5	-0.6200048	-0.6372207	-0.72926015
1277223452682	-1.3756552	18.8097	-3.759216	9.424288	0.0	-9.25	-47.0	-11.5	0.5571925	-0.19674434	0.07300543
1277223452722	3.759216	9.915613	-1.0351465	0.84804916	0.0	-9.0	-47.25	-11.5	-0.4790113	-0.09730747	-0.36237863
1277223452762	13.824653	5.325556	-4.140586	5.5760355	0.0	-9.25	-46.75	-11.25	-1.1573347	-0.27253306	-1.2030945
1277223452802	8.580819	4.099725	1.7978859	-0.12829304	0.0	-9.0	-46.75	-10.3125	-1.4440578	0.18684886	-1.125084
1277223452842	8.281172	9.724928	0.88532263	2.9970932	0.0	-10.0	-46.75	-10.0625	-1.2664449	0.06920082	-0.7053879
1277223452882	5.9793324	9.534244	1.56634	1.5559044	0.0	-11.9375	-45.8125	-8.0625	-1.4476444	0.13829142	-0.5601387
1277223452922	3.8681788	7.8861814	1.2666923	-0.9320135	0.0	-14.1875	-45.8125	-7.3125	-1.5069927	0.14322086	-0.45601946
1277223452962	3.336985	5.243834	-0.27240697	-3.5851173	0.0	-15.9375	-45.0625	-7.8125	-0.82921714	-0.043798544	-0.5667292
1277223453002	5.09401	6.0474343	-3.6774938	-1.0863085	0.0	-16.9375	-44.5625	-9.3125	-0.5215368	-0.43533528	-0.7000315
1277223453032	4.944186	6.8237944	-0.27240697	-1.375556	0.0	-17.875	-44.0625	-12.0	-0.70083433	-0.032315426	-0.62701374
1277223453062	4.7535014	6.8237944	0.6537767	-1.4647465	0.0	-18.875	-42.8125	-13.75	-0.7265248	0.07845306	-0.608445
1277223453092	5.2165933	7.7772183	0.23154591	-0.4390688	0.0	-19.375	-41.8125	-15.4375	-0.4662797	0.02472031	-0.59082633
1277223453132	4.903325	9.302697	-1.4573772	0.8096914	0.0	-19.375	-41.0625	-16.4375	-0.0889209	-0.13771164	-0.4850812
1277223453172	4.9850473	9.888372	-1.3075534	1.3441477	0.0	-19.375	-40.5625	-17.4375	-0.04242796	-0.117531374	-0.4669479
1277223453212	7.6954966	10.228881	-1.607201	3.0942717	0.0	-18.875	-39.8125	-19.625	-0.34220576	-0.12490485	-0.6449908
1277223453252	7.7772183	10.841797	-2.5606253	3.7796106	0.0	-18.875	-39.3125	-20.625	-0.2611792	-0.1896057	-0.62226677
1277223453292	4.671779	13.525005	-0.27240697	4.5050755	0.0	-19.875	-38.875	-19.875	0.28636435	-0.01903498	-0.33258697
1277223453332	3.0237172	10.923519	-1.0351465	1.5748119	0.0	-19.875	-39.125	-18.875	0.36652392	-0.09107607	-0.2700463
1277223453372	7.273266	11.836082	-0.10896278	4.0859776	0.0	-19.625	-40.3125	-15.6875	-0.26691934	-0.0078432895	-0.5510127
1277223453412	11.413852	12.830367	1.8387469	7.463999	0.0	-18.875	-41.8125	-12.0	-1.0825765	0.10666875	-0.7270376
1277223453452	9.997335	9.847511	2.1111538	4.3840923	0.0	-16.9375	-44.0625	-9.3125	-1.4275354	0.1493241	-0.7929478
1277223453492	6.973618	6.0474343	-0.19068487	-0.57414436	0.0	-14.1875	-45.8125	-6.3125	-1.2954472	-0.02065511	-0.8564083
1277223453532	4.7535014	3.255263	1.0351465	-3.9531007	0.0	-11.4375	-46.75	-4.125	-1.641685	0.17777576	-0.97033536
1277223453572	3.0645783	2.9556155	0.84446156	-5.466095	0.0	-8.75	-47.75	-3.875	-1.706838	0.1958002	-0.8034957
1277223453612	3.1463003	3.759216	-0.0	-4.9045167	0.0	-6.5	-48.0	-3.375	-1.4408352	-0.0	-0.6968727
1277223453652	5.597963	2.4925237	-0.38136974	-3.6669998	0.0	-5.5	-48.0	-3.625	-1.4478306	-0.062155887	-1.1518949
1277223453692	7.6954966	1.7297841	-1.607201	-1.7570591	0.0	-5.0	-48.0	-3.875	-1.4216384	-0.20101342	-1.3496925
1277223453732	7.5456724	11.223166	-10.923519	7.5778236	0.0	-5.75	-48.0	-2.375	-0.6509893	-0.67942923	-0.5919132
1277223453772	0.19068487	17.24336	-3.8681788	7.8662853	0.0	-6.0	-47.25	-1.9375	0.42056453	-0.22066224	-0.011058001
1277223453813	3.718355	8.308413	-0.95342433	-0.6543331	0.0	-5.75	-47.0	-1.6875	-1.1411651	-0.104362346	-0.4208071
1277223453865	9.615966	8.539958	-1.4165162	3.1318274	0.0	-6.25	-47.0	-1.4375	-1.3996246	-0.10970079	-0.84459376
1277223453902	5.9793324	7.3549876	-0.040861044	-0.32773018	0.0	-6.25	-46.75	-1.9375	-1.4853399	-0.004310741	-0.6825954
1277223453942	7.7363577	8.240311	1.1168685	1.5512257	0.0	-7.0	-46.75	-1.6875	-1.6503208	0.09849345	-0.75386554
1277223453972	7.3549876	7.8589406	1.1441092	1.0177565	0.0	-8.25	-46.5	-1.1875	-1.6869118	0.10589498	-0.7522858
1277223454012	5.829509	6.8237944	0.6946377	-0.80499077	0.0	-9.0	-46.5	-0.6875	-1.6771516	0.077244535	-0.70698017
1277223454052	3.9499009	4.7535014	0.42223078	-3.6118317	0.0	-10.5	-46.5	-0.4375	-1.6839103	0.068211585	-0.6933274
1277223454092	4.7535014	6.1291566	0.3405087	-2.0427413	0.0	-11.9375	-46.5	-1.1875	-1.6099088	0.043871965	-0.65965706
1277223454162	4.7535014	6.238119	-0.95342433	-1.906085	0.0	-13.4375	-46.3125	-1.6875	-1.1828384	-0.12097283	-0.65114254
1277223454192	5.9793324	7.4639506	-1.9885708	-0.038467407	0.0	-14.9375	-45.5625	-3.875	-0.915504	-0.20500937	-0.6754082
1277223454222	6.238119	8.730643	-0.0	0.92359924	0.0	-15.6875	-45.0625	-6.3125	-1.1315073	-0.0	-0.62039703
1277223454262	6.510526	10.501288	0.5720546	2.562313	0.0	-16.6875	-44.0625	-8.8125	-0.9352475	0.0462657	-0.55497694
1277223454302	5.6660647	10.923519	-3.568531	3.0059214	0.0	-17.4375	-43.3125	-11.5	-0.18397748	-0.28225067	-0.478498
1277223454342	5.134871	10.61025	-2.9556155	2.3457146	0.0	-18.625	-42.5625	-13.0	-0.07417938	-0.24567716	-0.45072845
1277223454382	5.5571017	12.408136	-1.3756552	3.8584757	0.0	-19.375	-41.8125	-14.25	0.031461928	-0.10083986	-0.42107245
1277223454422	4.372132	10.923519	-0.7218784	1.9814758	0.0	-19.375	-42.3125	-13.75	0.13583215	-0.0612761	-0.38072133
1277223454462	7.0553403	10.18802	0.92618364	2.6203928	0.0	-19.375	-43.3125	-11.5	-0.8295226	0.07459886	-0.60568374
1277223454502	10.61025	11.032481	0.6946377	5.5157385	0.0	-17.6875	-44.8125	-8.3125	-1.2402768	0.04535036	-0.7658915
1277223454542	10.800936	11.304889	0.8036005	5.849227	0.0	-15.4375	-46.5	-4.375	-1.4711261	0.051351562	-0.76260483
1277223454582	8.894087	9.343558	-0.6946377	3.1119175	0.0	-12.9375	-47.75	-1.4375	-1.4118706	-0.053796433	-0.7607579
1277223454622	3.3778462	4.4810944	1.4165162	-4.019028	0.0	-10.0	-49.0	0.5625	-2.0652132	0.24726108	-0.64592826
1277223454662	2.5606253	4.2086873	1.3075534	-4.7096367	0.0	-7.25	-49.5	1.0625	-2.152344	0.2594337	-0.5465835
1277223454702	2.7240696	3.568531	-0.10896278	-5.3158994	0.0	-4.25	-50.0	1.0625	-1.5721049	-0.024266206	-0.6519961
1277223454769	4.440233	3.0237172	-0.38136974	-4.421116	0.0	-1.8125	-50.25	2.0625	-1.5695213	-0.07087304	-0.97294873
1277223454802	6.0474343	1.1441092	0.38136974	-3.6401367	0.0	-1.0625	-49.75	2.75	-1.6401361	0.061884772	-1.3838171
1277223454843	8.049625	8.349273	-7.164303	3.825447	0.0	-1.5625	-50.0	4.25	-1.1292554	-0.55335754	-0.7671278
1277223454882	5.5162406	19.57244	-5.7477865	11.324993	0.0	-3.3125	-49.5	4.5	-0.85676634	-0.27546978	-0.2747115
1277223454922	5.597963	10.923519	6.5922484	4.1259804	0.0	-4.0	-49.5	3.25	-2.482942	0.4928649	-0.47357282
1277223454962	5.09401	-2.8330324	-3.214402	-3.1502705	0.0	-3.5625	-50.0	3.25	-1.8510993	-0.5039696	-2.0783489
1277223454992	10.501288	4.4810944	3.9090397	2.2614012	0.0	-2.8125	-50.5	4.0	-1.8096701	0.32986617	-1.1674709
1277223455032	11.495573	8.771504	1.2666923	4.708583	0.0	-2.5625	-50.75	4.25	-1.751774	0.08737755	-0.919006
1277223455072	8.008764	6.5922484	-0.27240697	0.5698738	0.0	-4.0	-51.0	4.75	-1.6740388	-0.026255254	-0.88211036
1277223455112	3.759216	4.5628166	0.313268	-3.8864188	0.0	-6.25	-50.75	3.75	-1.7869779	0.05293955	-0.68913364
1277223455152	5.6252036	7.1234417	-1.1168685	-0.6615019	0.0	-9.25	-49.75	1.5625	-1.4061078	-0.12243253	-0.6684134
1277223455192	5.243834	9.956474	-0.38136974	1.4527731	0.0	-11.9375	-49.25	1.0625	-1.5222002	-0.03387764	-0.4847598
1277223455232	3.0237172	8.539958	-1.1849703	-0.6700258	0.0	-14.4375	-48.25	0.5625	-0.3960186	-0.13006091	-0.34029335
1277223455264	4.2495484	7.8861814	-1.7297841	-0.68290806	0.0	-16.4375	-47.75	-0.6875	-0.6796944	-0.1907461	-0.4942503
1277223455302	5.5571017	7.504812	-0.29964766	-0.4635582	0.0	-17.4375	-47.25	-1.4375	-1.3620691	-0.032077078	-0.6373751
1277223455342	6.3607025	8.049625	0.7218784	0.47810173	0.0	-18.125	-46.75	-2.375	-1.6380352	0.07024695	-0.66872823
1277223455382	6.891896	9.343558	-1.2666923	1.8725967	0.0	-18.625	-46.5	-4.125	-0.9324869	-0.108670436	-0.6355238
1277223455422	5.284695	8.962189	-1.7570249	0.744936	0.0	-19.125	-46.0625	-4.875	-0.48830602	-0.1672969	-0.5327861
1277223455462	4.944186	11.686258	-0.6946377	2.9014626	0.0	-20.125	-45.8125	-5.625	0.08172944	-0.054688223	-0.40024066
1277223455502	3.636633	12.176591	-2.5606253	3.1568089	0.0	-20.375	-45.5625	-6.5625	0.38056263	-0.19883396	-0.2902249
1277223455542	6.8237944	9.847511	-1.9477097	2.331358	0.0	-19.875	-46.0625	-5.375	-0.6435761	-0.16116041	-0.6059761
1277223455582	13.143636	11.372991	0.08172209	7.574568	0.0	-18.375	-46.5	-3.625	-1.4242089	0.0047017643	-0.8574952
1277223455622	11.645397	11.604536	1.6480621	6.7159595	0.0	-15.1875	-47.75	-1.4375	-1.7001239	0.09991201	-0.7871556
1277223455662	10.991621	8.499097	-2.2201166	4.2638617	0.0	-12.4375	-48.75	1.8125	-1.4274639	-0.1584472	-0.91259044
1277223455702	6.0201936	3.8681788	0.040861044	-2.6507292	0.0	-9.0	-49.0	4.5	-1.6991997	0.005710134	-0.99968755
1277223455742	2.6832085	2.3699405	2.8330324	-5.2413135	0.0	-6.75	-49.75	6.0	-2.2820714	0.6694474	-0.8473135
1277223455788	2.4516625	3.173541	-0.61291564	-5.7498436	0.0	-5.0	-50.0	7.4375	-1.6050638	-0.15166403	-0.6577664
1277223455822	3.718355	3.405087	-0.95342433	-4.675393	0.0	-3.0625	-50.0	7.4375	-1.5884354	-0.18689327	-0.8293469
1277223455862	5.012288	2.1111538	-0.84446156	-4.302732	0.0	-2.3125	-50.25	7.6875	-1.6646963	-0.15403758	-1.1721524
1277223455902	7.082581	3.5276701	-1.4573772	-1.7610703	0.0	-2.3125	-49.75	8.4375	-1.6603296	-0.18214561	-1.1086884
1277223455942	4.4810944	15.935807	-11.413852	10.300716	0.0	-3.5625	-49.75	7.6875	-0.43850428	-0.6036428	-0.27411795
1277223455972	-1.334794	16.507862	-3.9499009	7.219591	0.0	-4.0	-50.25	6.9375	1.0327251	-0.23412196	0.08068255
1277223456002	6.66035	13.484144	0.7218784	5.2500267	0.0	-4.0	-50.25	5.0	-1.940742	0.04796246	-0.45878738
1277223456042	13.375181	11.495573	-0.9125633	7.8533726	0.0	-3.0625	-51.0	3.75	-1.6227437	-0.051696986	-0.8608298
1277223456082	5.407278	1.0351465	-0.5720546	-4.2715416	0.0	-1.8125	-50.75	3.75	-1.6224583	-0.103535086	-1.381649
1277223456122	7.8589406	6.3607025	0.50395286	0.31636524	0.0	-1.8125	-50.5	4.5	-1.730679	0.049803466	-0.8903748
1277223456162	9.043911	8.771504	1.7978859	2.919858	0.0	-3.0625	-50.75	5.75	-1.881003	0.14174512	-0.80068743
1277223456202	5.7477865	6.701211	0.7627395	-0.9452143	0.0	-4.75	-50.25	6.4375	-1.9005516	0.086180665	-0.70896095
1277223456242	4.1814466	5.938472	0.23154591	-2.5400448	0.0	-7.0	-49.75	6.6875	-1.9108526	0.03186978	-0.6134913
1277223456282	3.8273177	7.7363577	-0.38136974	-1.1669149	0.0	-10.0	-49.5	6.0	-1.8582989	-0.044155713	-0.45941332
1277223456322	4.5219555	8.390134	-1.3075534	-0.18624878	0.0	-12.4375	-48.75	4.5	-1.3939809	-0.13633661	-0.49432856
1277223456362	4.372132	7.164303	-0.040861044	-1.4135313	0.0	-14.9375	-48.25	2.5	-1.7514277	-0.004868417	-0.547934
1277223456402	5.09401	7.014479	-1.2666923	-1.045579	0.0	-16.4375	-48.25	0.0625	-1.1366235	-0.14509042	-0.6281032
1277223456442	5.434519	8.730643	-1.3075534	0.56001854	0.0	-17.6875	-48.25	-2.125	-0.8920978	-0.12646738	-0.55677426
1277223456472	4.6036777	9.956474	-1.0760075	1.2152834	0.0	-18.625	-48.0	-3.875	-0.35008386	-0.097779945	-0.4331016
1277223456512	5.175732	10.18802	-0.9125633	1.6570635	0.0	-19.375	-47.25	-5.625	-0.40378666	-0.07968883	-0.47004414
1277223456552	5.8567495	10.882658	-3.5276701	3.045518	0.0	-20.375	-46.75	-7.3125	-0.19816929	-0.27804947	-0.4937174
1277223456592	2.6014864	11.264028	-4.9850473	2.782899	0.0	-20.125	-45.8125	-7.5625	0.338534	-0.4071208	-0.22697547
1277223456632	8.349273	10.119919	1.2258313	3.3700628	0.0	-19.125	-46.0625	-6.3125	-1.4446039	0.09316484	-0.68982005
1277223456672	14.709975	14.206022	0.14982383	10.643702	0.0	-16.9375	-47.5	-4.625	-1.3814167	0.007326288	-0.80282456
1277223456712	11.413852	13.375181	-1.6889231	7.8575497	0.0	-14.1875	-48.25	-1.1875	-1.305761	-0.09575906	-0.7064418
1277223456752	7.246025	8.730643	-0.61291564	1.5557737	0.0	-10.6875	-49.75	1.8125	-1.5443307	-0.053968523	-0.6927401
1277223456782	4.440233	3.718355	1.1849703	-3.8951368	0.0	-8.25	-50.75	4.0	-1.9062461	0.2018185	-0.8736491
1277223456822	3.214402	1.8387469	1.1849703	-5.918524	0.0	-6.5	-51.0	6.25	-1.9295535	0.30969316	-1.051194
1277223456862	3.0645783	1.3075534	0.95342433	-6.3410544	0.0	-5.0	-51.25	7.6875	-1.8751245	0.2787054	-1.1675148
1277223456902	4.671779	1.3075534	-0.7627395	-4.8957453	0.0	-4.5	-51.0	8.9375	-1.6958414	-0.15594679	-1.2978958
1277223456942	6.3198414	0.6537767	-0.42223078	-3.4390683	0.0	-3.75	-50.5	9.4375	-1.7460221	-0.06635813	-1.4677147
1277223456982	7.9679036	8.308413	-2.6832085	2.0135374	0.0	-4.5	-50.0	9.6875	-1.5878768	-0.22899842	-0.7644807
1277223457022	0.5720546	19.041246	-10.691973	12.038591	0.0	-5.0	-49.5	8.6875	0.20706826	-0.51144946	-0.030033886
1277223457055	-1.3075534	9.302697	-0.61291564	-0.39253616	0.0	-5.0	-49.5	6.6875	1.8603072	-0.065152116	0.1396416
1277223457092	8.076866	7.504812	1.879608	1.3777542	0.0	-4.75	-49.75	5.25	-1.9028211	0.16885746	-0.8220949
1277223457132	16.657684	14.328606	-5.5162406	12.847628	0.0	-3.75	-50.0	4.5	-1.4510378	-0.24596938	-0.8604219
1277223457172	7.5865335	3.568531	2.3426998	-1.1015854	0.0	-3.0625	-50.75	4.75	-1.8153303	0.27247834	-1.1311266
1277223457212	7.8589406	5.175732	0.38136974	-0.38876343	0.0	-3.75	-51.0	5.75	-1.742011	0.04050527	-0.98841393
1277223457242	7.668256	6.469665	1.4982382	0.33748245	0.0	-5.75	-51.0	6.9375	-1.9080406	0.14823736	-0.8699744
1277223457272	6.4015636	6.8237944	1.7297841	-0.29159164	0.0	-7.25	-50.75	7.4375	-2.0405834	0.18281093	-0.7534832
1277223457312	4.4810944	5.7886477	1.2666923	-2.3774405	0.0	-9.75	-50.25	7.9375	-2.1661859	0.1713387	-0.6587586
1277223457352	3.255263	6.0882955	0.8036005	-2.856121	0.0	-12.4375	-49.5	7.6875	-2.3946223	0.11587632	-0.49100178
1277223457392	4.372132	8.689782	-0.19068487	-0.07709694	0.0	-14.4375	-48.5	6.4375	-2.1210008	-0.019599779	-0.4661523
1277223457432	3.7864566	9.724928	-1.334794	0.71443176	0.0	-16.9375	-47.5	3.25	-0.42903048	-0.12721135	-0.37129673
1277223457472	3.990762	9.384419	-1.7297841	0.5367365	0.0	-18.875	-46.5	-1.1875	-0.08633158	-0.16802527	-0.40208575
1277223457512	3.759216	9.615966	-1.7570249	0.66644096	0.0	-20.375	-45.8125	-5.625	0.16315308	-0.16856275	-0.37266722
1277223457552	5.407278	9.615966	-3.9090397	1.8974533	0.0	-21.875	-45.0625	-9.8125	-0.11586116	-0.34053224	-0.51225495
1277223457592	6.3198414	10.732834	-1.8387469	2.7836285	0.0	-22.875	-44.8125	-11.0	-0.1646276	-0.1465692	-0.5321676
1277223457632	3.214402	12.571581	-2.5606253	3.4196053	0.0	-23.875	-44.8125	-10.3125	0.54894817	-0.19483197	-0.25032485
1277223457672	7.246025	9.724928	0.38136974	2.3269625	0.0	-23.125	-45.5625	-7.8125	-0.94852144	0.031436026	-0.6403565
1277223457712	13.824653	13.402422	1.334794	9.494324	0.0	-20.875	-47.0	-4.375	-1.5153989	0.06921207	-0.8009047
1277223457752	11.876944	12.639683	0.7627395	7.554373	0.0	-17.4375	-48.0	-1.6875	-1.5894214	0.043948162	-0.7542971
1277223457782	11.182305	9.956474	-3.2961242	5.524357	0.0	-12.9375	-49.75	0.8125	-1.2847854	-0.21668899	-0.84332293
1277223457822	9.534244	6.3607025	-1.56634	1.7611389	0.0	-8.5	-50.5	1.8125	-1.4916815	-0.13582252	-0.98246413
1277223457862	5.47538	1.9885708	0.38136974	-3.968873	0.0	-5.0	-51.0	2.5	-1.6557966	0.06537446	-1.2224249
1277223457902	3.2961242	1.4573772	0.50395286	-6.167646	0.0	-2.8125	-52.0	3.5	-1.7148668	0.138933	-1.1544907
1277223457942	3.0237172	1.1168685	0.19068487	-6.5776224	0.0	-1.0625	-52.0	4.5	-1.686267	0.059087712	-1.2169712
1277223458012	3.214402	0.92618364	0.50395286	-6.423728	0.0	-0.3125	-52.25	6.4375	-1.7400576	0.14952624	-1.2902595
1277223458052	4.0588636	8.962189	-5.6252036	1.5264034	0.0	-1.5625	-52.25	7.1875	-0.84946626	-0.51939356	-0.42525262
1277223458082	-3.3642259	19.041246	-6.1700177	10.490055	0.0	-2.3125	-51.75	6.4375	0.88472044	-0.30887926	0.17487621
1277223458122	0.23154591	9.534244	1.0760075	-0.20908737	0.0	-2.5625	-51.75	4.0	3.0089326	0.11234878	-0.02428094
1277223458162	16.698545	8.921328	-7.9679036	10.734016	0.0	-3.3125	-51.75	2.25	-1.3799021	-0.39836156	-1.0801195
1277223458202	11.917805	6.4015636	3.759216	4.234212	0.0	-2.0625	-51.75	1.5625	-1.7601078	0.27104038	-1.0778778
1277223458242	8.62168	7.082581	1.0760075	1.4029045	0.0	-2.0625	-52.0	2.25	-1.7128938	0.09613823	-0.8830914
1277223458272	8.499097	8.921328	0.5720546	2.5283394	0.0	-3.3125	-51.75	4.25	-1.7516688	0.04639322	-0.76116526
1277223458312	6.0882955	6.973618	0.95342433	-0.50032425	0.0	-4.75	-51.0	5.5	-1.8846983	0.102629125	-0.7177227
1277223458352	4.7943625	6.0201936	1.3756552	-1.9886537	0.0	-7.25	-50.5	5.75	-2.050194	0.17688097	-0.6725298
1277223458392	4.0588636	5.7477865	1.0351465	-2.694481	0.0	-9.5	-49.75	5.25	-2.0878615	0.14606464	-0.61484903
1277223458432	3.9090397	6.4424243	0.040861044	-2.2709289	0.0	-11.9375	-49.5	3.75	-1.8245751	0.00542234	-0.54537916
1277223458472	3.336985	6.3198414	-0.3405087	-2.6518044	0.0	-14.6875	-49.75	1.3125	-1.4629216	-0.04760932	-0.48580936
1277223458512	4.2495484	9.084772	0.313268	0.22778416	0.0	-16.9375	-48.5	-0.9375	-1.6965802	0.031224372	-0.4375296
1277223458552	4.5219555	11.686258	-2.8330324	3.040248	0.0	-19.125	-47.5	-4.625	0.043943156	-0.2223503	-0.36920288
1277223458592	3.486809	11.114203	-0.3405087	1.8466454	0.0	-21.125	-46.0625	-8.3125	0.5772606	-0.029224109	-0.30400094
1277223458632	4.5219555	11.563675	-6.0882955	4.022088	0.0	-22.375	-43.8125	-11.75	0.1509271	-0.45589265	-0.37276566
1277223458672	5.2165933	13.375181	-3.6774938	5.0133457	0.0	-23.625	-43.5625	-14.25	0.23336037	-0.2507639	-0.37187377
1277223458712	5.7886477	9.507003	1.4573772	1.4190121	0.0	-23.375	-43.8125	-13.0	-0.4119731	0.130193	-0.5469251
1277223458752	13.0619135	13.33432	1.920469	8.957834	0.0	-21.375	-44.8125	-9.8125	-1.2721092	0.10252548	-0.77507865
1277223458792	12.830367	12.980191	0.50395286	8.451435	0.0	-18.125	-46.75	-5.875	-1.3442875	0.027605133	-0.7795934
1277223458832	11.372991	9.575105	-2.3018389	5.237485	0.0	-14.4375	-48.25	-2.125	-1.2706907	-0.15360911	-0.8710141
1277223458872	7.014479	5.053149	-0.6946377	-1.1337175	0.0	-10.6875	-49.5	0.0625	-1.4840487	-0.08017848	-0.9465175
1277223458912	2.4925237	3.486809	2.3699405	-4.9089847	0.0	-8.25	-50.25	1.5625	-2.3770552	0.5050965	-0.6206189
1277223458952	1.6889231	3.1463003	1.56634	-5.90728	0.0	-6.25	-50.25	3.0	-2.442519	0.41336206	-0.4926497
1277223458992	3.1054392	0.3405087	-0.29964766	-6.668261	0.0	-4.25	-50.5	4.25	-1.6370833	-0.09562384	-1.4615835
1277223459032	4.671779	-1.0760075	-1.1168685	-4.8841805	0.0	-3.0625	-50.5	5.25	-1.7103206	-0.22888516	-1.7971693
1277223459062	5.012288	1.1441092	0.61291564	-4.6290364	0.0	-3.0625	-50.25	6.0	-1.727547	0.11865625	-1.3463804
1277223459092	7.668256	9.152874	-5.366417	3.2844028	0.0	-3.75	-50.5	6.0	-1.2031811	-0.42237744	-0.69736713
1277223459132	1.9477097	19.109348	-7.164303	10.694277	0.0	-4.5	-50.25	5.5	-0.04953374	-0.35699722	-0.101573676
1277223459172	2.982856	10.337844	1.1441092	1.0135822	0.0	-5.25	-50.0	4.5	-2.4042618	0.10593599	-0.2809079
1277223459212	14.818938	8.430995	-4.903325	7.9338455	0.0	-4.5	-50.25	3.25	-1.4548993	-0.28003746	-1.053533
1277223459242	10.147159	6.6331096	2.2609777	2.525218	0.0	-3.75	-50.5	2.75	-1.7753856	0.18438734	-0.9918305
1277223459272	7.668256	7.4639506	2.070293	1.0928373	0.0	-3.75	-50.75	3.5	-1.8769995	0.19110517	-0.7988987
1277223459312	8.962189	9.534244	1.6889231	3.3871021	0.0	-4.25	-51.0	4.5	-1.8634717	0.12836152	-0.7544802
1277223459352	7.3958488	7.8180795	2.152015	1.1684179	0.0	-5.5	-51.0	5.75	-1.9847906	0.19736092	-0.7576524
1277223459392	5.434519	5.407278	0.95342433	-2.0812588	0.0	-7.5	-50.75	6.25	-1.9229472	0.123729825	-0.7879107
1277223459432	4.944186	4.5219555	0.61291564	-3.0784469	0.0	-9.25	-50.25	5.25	-1.8529502	0.09122294	-0.8299729
1277223459472	5.175732	5.6252036	-0.23154591	-2.1591191	0.0	-10.9375	-49.75	3.0	-1.6356874	-0.030281842	-0.74380803
1277223459512	4.5219555	5.597963	-0.3405087	-2.6024003	0.0	-13.1875	-49.25	0.3125	-1.479681	-0.04728259	-0.6794704
1277223459552	4.671779	6.851035	-0.14982383	-1.5129986	0.0	-15.4375	-49.0	-2.375	-1.3545226	-0.018065864	-0.5984806
1277223459592	4.671779	10.800936	-0.42223078	1.9689188	0.0	-17.6875	-48.5	-5.625	-0.3842306	-0.035864197	-0.40823522
1277223459632	4.099725	11.604536	-0.9942854	2.540884	0.0	-20.375	-46.75	-8.0625	0.2913627	-0.080612294	-0.33959955
1277223459672	2.7240696	11.917805	-1.607201	2.5237074	0.0	-22.875	-45.0625	-10.75	0.62339693	-0.130717	-0.22471116
1277223459712	1.2258313	12.108489	-6.782933	4.126273	0.0	-24.875	-42.8125	-13.25	0.5473721	-0.5084544	-0.100893594
1277223459752	2.5333846	9.997335	-2.9147544	0.9106512	0.0	-25.8125	-41.8125	-13.25	0.5244609	-0.2754367	-0.2481817
1277223459792	10.732834	14.056199	2.2201166	8.017473	0.0	-24.625	-43.3125	-11.5	-0.9060954	0.124881186	-0.65212685
1277223459832	14.560152	15.472715	-0.42223078	11.44379	0.0	-21.875	-45.0625	-8.5625	-1.0042342	-0.01987058	-0.755022
1277223459872	11.985906	12.299174	-0.88532263	7.3897285	0.0	-17.6875	-48.0	-4.625	-1.2456039	-0.051505852	-0.7724992
1277223459912	7.9270425	8.662541	1.1168685	1.9884768	0.0	-13.4375	-50.25	-1.4375	-1.692562	0.09483104	-0.7410922
1277223459952	5.8567495	4.8216033	1.879608	-1.9911337	0.0	-9.75	-51.0	1.3125	-1.8876823	0.24287781	-0.88203496
1277223459992	5.243834	3.990762	2.7921712	-2.6498218	0.0	-6.75	-51.5	3.75	-2.018478	0.40078458	-0.92026764
1277223460032	4.1814466	1.6889231	-0.0	-5.2969985	0.0	-4.5	-51.5	5.75	-1.6949733	-0.0	-1.1869248
1277223460062	4.862464	-1.2666923	-0.6537767	-4.7395515	0.0	-2.8125	-51.5	6.9375	-1.7316905	-0.12938455	-1.8256366
1277223460102	4.7535014	-1.8387469	0.08172209	-4.7092543	0.0	-2.0625	-51.5	7.9375	-1.7267581	0.016032811	-1.9398888
1277223460142	6.8237944	2.8738933	-4.372132	-1.2078724	0.0	-2.5625	-51.25	8.4375	-1.483434	-0.53339505	-1.1721847
1277223460182	3.405087	18.278507	-8.390134	10.5917015	0.0	-3.3125	-51.0	8.9375	-0.44595036	-0.4238955	-0.18417794
1277223460222	3.568531	12.830367	-1.1168685	3.5574856	0.0	-4.0	-50.5	8.6875	-2.0061462	-0.083669655	-0.2712753
1277223460262	15.894946	8.812365	-3.8681788	8.774788	0.0	-4.5	-50.75	8.1875	-1.6197149	-0.20970806	-1.0645714
1277223460302	7.246025	6.238119	2.2201166	0.009047508	0.0	-3.75	-51.25	7.9375	-1.9835632	0.2281545	-0.8600069
1277223460342	7.3958488	9.425281	1.1168685	2.2258835	0.0	-3.5625	-51.25	7.1875	-1.9383531	0.09295453	-0.6653307
1277223460382	7.7363577	10.269742	1.4165162	3.1287794	0.0	-4.25	-51.25	8.1875	-2.0102494	0.10972676	-0.6456198
1277223460422	6.0201936	8.19945	1.56634	0.48544025	0.0	-6.25	-51.0	8.6875	-2.1204748	0.15278241	-0.6333247
1277223460462	4.630918	5.6660647	0.6946377	-2.4559894	0.0	-8.25	-51.0	8.9375	-2.0399692	0.09464125	-0.68520564
1277223460502	4.671779	4.7126403	0.46309182	-3.1546612	0.0	-10.6875	-50.75	8.4375	-1.9572421	0.069673404	-0.78104407
1277223460562	4.944186	5.597963	-0.42223078	-2.3259788	0.0	-12.6875	-50.75	6.25	-1.719933	-0.05647291	-0.723462
1277223460602	4.8216033	6.8237944	0.08172209	-1.4508915	0.0	-14.1875	-50.5	2.5	-1.7391297	0.009780486	-0.615133
1277223460642	5.6660647	10.337844	-1.3075534	2.0544214	0.0	-16.1875	-49.25	-2.125	-0.8864757	-0.110463575	-0.5013753
1277223460682	4.0588636	11.141444	-1.7570249	2.180564	0.0	-18.125	-48.25	-6.125	0.037761893	-0.14710489	-0.3493598
1277223460722	3.405087	9.80665	-2.1111538	0.7868376	0.0	-20.375	-46.75	-10.3125	0.19099374	-0.20063119	-0.33419806
1277223460752	4.440233	11.413852	-1.1168685	2.4912796	0.0	-22.375	-45.3125	-12.25	0.257935	-0.090942904	-0.37100646
1277223460782	4.5219555	14.056199	-1.0760075	4.998167	0.0	-23.875	-44.5625	-12.75	0.5074715	-0.0727437	-0.31124917
1277223460822	3.636633	12.53072	-1.56634	3.3347902	0.0	-24.125	-44.3125	-12.5	0.53426605	-0.11947492	-0.28245795
1277223460862	7.5865335	10.882658	0.38136974	3.4648676	0.0	-23.125	-45.0625	-10.5	-0.6441931	0.02873991	-0.6087914
1277223460902	13.484144	13.102775	-0.46309182	9.000776	0.0	-20.375	-46.5	-8.3125	-1.1116312	-0.024625307	-0.79974145
1277223460942	13.565866	12.14935	-0.50395286	8.411291	0.0	-17.1875	-47.75	-5.625	-1.2935921	-0.027665978	-0.8404273
1277223460982	10.18802	8.281172	-1.8387469	3.450595	0.0	-13.4375	-49.25	-2.875	-1.2892548	-0.13914609	-0.8882784
1277223461022	4.7943625	5.325556	0.6537767	-2.6111736	0.0	-10.0	-50.0	-0.1875	-1.7157112	0.09098489	-0.7329564
1277223461062	1.7570249	4.2495484	2.6014864	-4.5233245	0.0	-8.0	-50.25	1.8125	-2.714569	0.51484007	-0.39205703
1277223461102	1.8387469	2.7921712	1.3075534	-6.2168164	0.0	-5.25	-51.25	3.25	-2.261391	0.37281433	-0.58235294
1277223461142	3.1463003	0.92618364	0.38136974	-6.504762	0.0	-3.3125	-51.75	5.25	-1.718954	0.115758866	-1.2845105
1277223461182	5.012288	0.27240697	-0.14982383	-4.78473	0.0	-2.3125	-52.0	6.6875	-1.6962292	-0.0298384	-1.5165019
1277223461222	6.1700177	1.2258313	-0.46309182	-3.4990172	0.0	-1.5625	-51.75	8.1875	-1.71473	-0.0734838	-1.3746747
1277223461262	9.847511	11.34575	-11.563675	9.151674	0.0	-3.0625	-50.75	9.9375	-1.075348	-0.65600044	-0.71482146
1277223461302	1.0760075	17.474907	-2.8330324	7.929083	0.0	-4.5	-50.25	9.1875	2.1964493	-0.16042307	-0.06149679
1277223461342	9.384419	9.997335	-1.0760075	3.9473248	0.0	-5.0	-50.5	8.1875	-1.7315795	-0.078312494	-0.7537854
1277223461382	13.525005	6.6331096	-1.3075534	5.313985	0.0	-5.0	-51.0	7.1875	-1.6811662	-0.08658291	-1.1148316
1277223461422	6.932757	7.273266	2.1111538	0.4607973	0.0	-4.25	-51.5	6.25	-1.9879714	0.20709334	-0.76143336
1277223461462	7.082581	8.962189	0.6946377	1.6374006	0.0	-4.5	-51.75	7.1875	-1.9016405	0.060735922	-0.668782
1277223461502	5.8976107	9.043911	1.2666923	1.0643501	0.0	-5.75	-51.5	8.4375	-2.1043704	0.1167856	-0.577856
1277223461542	4.140586	6.5922484	1.4573772	-1.8866668	0.0	-8.25	-51.0	9.6875	-2.3077302	0.18506727	-0.5608249
1277223461582	4.0180025	5.407278	0.46309182	-3.0540614	0.0	-10.9375	-51.0	9.1875	-2.0918705	0.068633765	-0.6390531
1277223461622	5.284695	5.829509	-0.38136974	-1.9290476	0.0	-12.6875	-50.5	6.9375	-1.7604133	-0.048430834	-0.73641783
1277223461662	5.5162406	6.2108784	-0.42223078	-1.4890661	0.0	-14.4375	-50.25	3.75	-1.6305823	-0.05078546	-0.72623384
1277223461702	5.053149	7.273266	-0.3405087	-0.94376945	0.0	-15.6875	-49.75	-0.4375	-1.4203033	-0.0384291	-0.60719824
1277223461742	4.8216033	9.724928	-2.2609777	1.2809153	0.0	-16.9375	-48.75	-4.875	-0.40266645	-0.20536053	-0.46028066
1277223461782	3.718355	9.765789	-1.8387469	0.8036175	0.0	-19.125	-47.75	-8.3125	0.051549368	-0.1741782	-0.36380497
1277223461852	4.6036777	10.460427	-0.3405087	1.6270866	0.0	-21.125	-46.0625	-10.75	0.06360325	-0.029785456	-0.41459417
1277223461892	3.173541	12.980191	-2.1792557	3.732401	0.0	-22.625	-45.3125	-12.0	0.51554674	-0.16166402	-0.23978712
1277223461932	3.5957718	10.800936	-1.7570249	1.7118969	0.0	-23.125	-45.0625	-10.3125	0.40804842	-0.1531366	-0.32137218
1277223461972	15.213928	14.818938	0.50395286	11.437609	0.0	-21.875	-45.8125	-7.8125	-1.2071689	0.023724064	-0.7985493
1277223462012	15.4046135	13.6748295	-0.29964766	10.7941475	0.0	-19.125	-47.25	-4.625	-1.3412997	-0.014545953	-0.8448129
1277223462053	11.223166	9.80665	-2.5606253	5.3157396	0.0	-15.4375	-48.75	-0.9375	-1.2670135	-0.17014654	-0.8526541
1277223462092	7.0553403	7.014479	0.7218784	0.16841125	0.0	-11.6875	-50.25	1.3125	-1.7326392	0.07243163	-0.7883023
1277223462132	2.982856	4.099725	2.0294318	-4.345536	0.0	-8.5	-51.25	3.5	-2.293004	0.38074797	-0.62899375
1277223462172	1.0760075	3.718355	1.56634	-5.6308417	0.0	-6.25	-52.0	5.0	-2.80333	0.38450316	-0.2816829
1277223462212	3.0645783	0.42223078	0.10896278	-6.711203	0.0	-4.5	-52.25	6.0	-1.6953609	0.03520826	-1.4338806
1277223462252	3.9090397	-1.1441092	-0.0	-5.7336197	0.0	-3.3125	-52.25	7.9375	-1.7249665	-0.0	-1.8555268
1277223462292	4.903325	0.23154591	0.6537767	-4.854516	0.0	-2.5625	-51.25	9.9375	-1.7737054	0.13240573	-1.5236092
1277223462332	8.240311	13.6748295	-10.95076	9.553692	0.0	-3.0625	-50.5	11.625	-0.9785091	-0.6011951	-0.5423215
1277223462372	0.6537767	14.709975	-3.6774938	5.3701334	0.0	-3.75	-50.25	12.375	1.4407054	-0.2447466	-0.044415217
1277223462412	9.507003	5.09401	0.7218784	1.0032129	0.0	-3.75	-50.0	11.375	-1.872135	0.06682934	-1.0789076
1277223462452	16.88923	11.876944	0.7218784	10.853191	0.0	-4.0	-50.5	9.9375	-1.8470979	0.034948256	-0.95790863
1277223462492	6.0882955	6.2108784	2.3426998	-0.7993984	0.0	-3.3125	-51.0	8.6875	-2.0766168	0.26311582	-0.77543175
1277223462532	6.973618	9.234595	-0.23154591	1.7675762	0.0	-3.3125	-51.25	7.6875	-1.8080105	-0.020006638	-0.64679676
1277223462562	7.1234417	10.337844	0.95342433	2.7839594	0.0	-4.75	-51.0	8.1875	-2.0031257	0.075797595	-0.603349
1277223462602	5.134871	7.43671	1.56634	-0.6346836	0.0	-7.0	-51.0	8.6875	-2.185958	0.17161588	-0.6043055
1277223462642	4.0588636	5.6252036	0.50395286	-2.8517056	0.0	-9.25	-50.25	8.1875	-2.0546896	0.072523214	-0.62504286
1277223462682	4.4810944	4.8216033	-0.0	-3.2242446	0.0	-11.1875	-49.75	7.1875	-1.8437669	-0.0	-0.74881124
1277223462722	4.6036777	5.243834	-0.6946377	-2.794221	0.0	-12.6875	-50.0	4.5	-1.5676689	-0.09922079	-0.7204826
1277223462752	4.7126403	6.4015636	-0.29964766	-1.8518538	0.0	-13.9375	-49.5	1.5625	-1.5569216	-0.03767772	-0.6345911
1277223462792	5.134871	8.471856	0.38136974	0.10721302	0.0	-15.4375	-49.5	-1.4375	-1.6109009	0.038477823	-0.5448996
1277223462832	4.862464	11.563675	-1.7297841	2.8564577	0.0	-17.1875	-48.25	-4.875	-0.23740824	-0.13702871	-0.3980484
1277223462872	3.8681788	11.836082	-1.6480621	2.7540731	0.0	-19.625	-47.0	-8.0625	0.26988	-0.13158698	-0.31587029
1277223462912	2.8738933	13.756551	-3.7864566	4.748047	0.0	-21.875	-45.5625	-11.25	0.47310925	-0.26318127	-0.20594884
1277223462952	1.607201	13.715691	-2.6832085	4.2611446	0.0	-23.125	-44.3125	-13.75	0.6716392	-0.19190992	-0.11664777
1277223462992	7.014479	11.114203	0.14982383	3.3368225	0.0	-22.875	-44.5625	-12.5	-0.3562317	0.011399352	-0.56299347
1277223463032	13.797412	14.7916975	0.8036005	10.437082	0.0	-20.875	-44.8125	-9.8125	-1.092213	0.039706696	-0.7506337
1277223463072	13.906375	13.756551	0.313268	9.756788	0.0	-16.9375	-46.5	-6.125	-1.3204341	0.016013615	-0.79081416
1277223463102	11.836082	9.193735	-0.95342433	5.2108936	0.0	-12.6875	-48.5	-1.6875	-1.4337465	-0.063530095	-0.9103908
1277223463142	6.973618	5.325556	-0.42223078	-1.0219383	0.0	-9.25	-49.75	1.0625	-1.5488877	-0.0480828	-0.91860247
1277223463182	2.4108016	3.336985	2.3426998	-5.070019	0.0	-6.0	-51.0	3.0	-2.3519592	0.5173653	-0.6256341
1277223463222	1.3075534	2.9147544	0.92618364	-6.4804955	0.0	-3.5625	-51.5	5.25	-2.3755538	0.28218487	-0.42168754
1277223463262	2.7649305	1.2258313	0.5720546	-6.7285423	0.0	-1.5625	-51.5	7.1875	-1.8075547	0.18693298	-1.1534865
1277223463302	5.7477865	0.38136974	0.10896278	-4.045195	0.0	-0.3125	-51.75	9.1875	-1.7482457	0.018913498	-1.5045427
1277223463342	5.6660647	0.6537767	-0.040861044	-4.1028457	0.0	-0.0625	-51.5	11.125	-1.7841415	-0.007163884	-1.4559197
1277223463382	7.3141265	11.958665	-11.727119	8.469877	0.0	-0.8125	-51.0	12.625	-0.9507199	-0.6966465	-0.5489179
1277223463422	1.7978859	16.589584	-4.4810944	7.471281	0.0	-2.0625	-51.25	12.125	-1.1479646	-0.26235288	-0.10795306
1277223463462	10.419566	10.038197	-1.0351465	4.6986685	0.0	-2.8125	-51.5	10.875	-1.7987918	-0.07142395	-0.8040378
1277223463502	14.206022	6.5922484	-0.14982383	5.8551264	0.0	-2.5625	-51.75	9.9375	-1.7793567	-0.0095663555	-1.1363233
1277223463542	5.7477865	5.5571017	2.5333846	-1.4199667	0.0	-2.0625	-52.5	8.1875	-2.0588343	0.30686575	-0.80226403
1277223463582	7.8589406	10.038197	0.84446156	2.9699478	0.0	-2.5625	-52.75	8.1875	-1.9174885	0.06614262	-0.66422904
1277223463622	6.8237944	9.466142	1.0760075	1.9121294	0.0	-3.5625	-52.75	8.6875	-1.9993079	0.091948576	-0.6245914
1277223463662	4.0588636	6.891896	0.8036005	-1.7680941	0.0	-6.25	-52.5	8.4375	-2.1276784	0.10013552	-0.5322421
1277223463702	3.255263	5.8976107	-1.4573772	-2.914445	0.0	-9.5	-51.5	7.6875	-1.392209	-0.2130613	-0.50434905
1277223463742	4.0180025	6.0882955	-0.50395286	-2.494629	0.0	-11.9375	-50.75	6.25	-1.7285925	-0.06897582	-0.58334184
1277223463783	4.4810944	5.7886477	0.14982383	-2.4846907	0.0	-14.4375	-50.0	3.5	-1.8005917	0.020463686	-0.6587585
1277223463822	5.47538	6.4015636	-0.08172209	-1.3824892	0.0	-15.4375	-49.75	0.8125	-1.5877007	-0.0097010685	-0.707574
1277223463862	6.0882955	8.853226	-0.38136974	0.94473934	0.0	-16.4375	-49.5	-2.375	-1.2920823	-0.035479113	-0.6024179
1277223463902	5.053149	11.073342	-1.0351465	2.4091082	0.0	-17.875	-48.5	-6.125	-0.3542839	-0.08484036	-0.42810926
1277223463942	4.2495484	11.75436	-2.6014864	2.9601574	0.0	-19.625	-47.25	-9.8125	0.11887539	-0.2052067	-0.34690896
1277223463982	2.5606253	13.756551	-4.5628166	4.9113245	0.0	-21.875	-45.3125	-13.25	0.44582254	-0.3152105	-0.18403247
1277223464022	1.4573772	13.143636	-2.2609777	3.6094265	0.0	-23.125	-44.0625	-14.25	0.6924312	-0.1693356	-0.110429734
1277223464062	8.240311	11.536434	0.6946377	4.3875237	0.0	-22.875	-44.3125	-12.75	-0.60539806	0.04895778	-0.6202495
1277223464102	14.750836	14.328606	1.0760075	10.785919	0.0	-20.625	-45.5625	-9.8125	-1.1882765	0.052276026	-0.79991704
1277223464142	13.6748295	12.53072	0.10896278	8.741444	0.0	-16.9375	-47.75	-5.625	-1.3488587	0.005874642	-0.8290295
1277223464182	8.390134	8.117727	-0.9942854	1.9100237	0.0	-12.6875	-50.25	-2.625	-1.3420354	-0.08496291	-0.80189824
1277223464222	3.2961242	4.5219555	1.56634	-3.9958038	0.0	-8.75	-51.5	-0.4375	-2.0533068	0.2729304	-0.62987
1277223464262	1.1441092	3.5276701	1.8387469	-5.667274	0.0	-5.25	-51.75	1.5625	-2.7125998	0.46029082	-0.31362066
1277223464292	2.4516625	1.879608	1.1849703	-6.497915	0.0	-3.3125	-52.25	2.75	-1.9317963	0.36626843	-0.91671354
1277223464332	4.6036777	0.46309182	0.46309182	-5.1566224	0.0	-2.0625	-51.75	5.0	-1.6813985	0.09975441	-1.4705418
1277223464402	7.205164	1.1168685	-1.334794	-2.3942647	0.0	-1.0625	-51.5	7.1875	-1.6780202	-0.18106389	-1.4170108
1277223464442	7.3958488	14.7916975	-11.836082	10.530157	0.0	-1.8125	-51.5	8.9375	-0.8191261	-0.62118965	-0.4636476
1277223464482	3.214402	15.472715	-5.366417	6.88274	0.0	-1.5625	-51.25	9.4375	-0.88350284	-0.3273624	-0.20483285
1277223464522	11.917805	10.228881	-0.08172209	5.899105	0.0	-1.8125	-51.75	8.4375	-1.7842218	-0.0052033444	-0.86151165
1277223464562	7.4639506	1.56634	-0.84446156	-2.1335087	0.0	-2.0625	-52.0	7.4375	-1.6890272	-0.1102776	-1.3639439
1277223464602	9.152874	7.8180795	2.6014864	2.5085917	0.0	-2.3125	-52.75	6.6875	-1.921991	0.21284464	-0.86388826
1277223464642	9.302697	10.56939	1.0760075	4.3146095	0.0	-4.0	-52.25	6.9375	-1.881114	0.07627163	-0.7217419
1277223464682	5.2165933	7.8180795	0.14982383	-0.40677452	0.0	-5.75	-51.75	7.4375	-1.8998048	0.015939591	-0.58840454
1277223464722	3.5276701	6.238119	0.88532263	-2.585682	0.0	-8.5	-51.5	7.4375	-2.2116807	0.12291368	-0.51466715
1277223464762	3.6774938	6.1700177	0.61291564	-2.5977154	0.0	-11.4375	-50.75	6.6875	-2.1628714	0.085124426	-0.5374927
1277223464792	4.7126403	6.891896	-0.38136974	-1.4488602	0.0	-13.6875	-50.75	5.5	-1.7548939	-0.045646302	-0.5997668
1277223464832	4.5219555	6.3198414	-0.19068487	-2.0333085	0.0	-15.6875	-50.0	3.25	-1.6942757	-0.02453308	-0.6210644
1277223464872	4.7535014	6.973618	-0.0	-1.367034	0.0	-17.6875	-49.5	0.5625	-1.6131754	-0.0	-0.5982977
1277223464912	6.0201936	9.656827	-1.1168685	1.6277027	0.0	-17.875	-48.5	-3.125	-0.9159868	-0.09783257	-0.55745745
1277223464952	4.903325	13.211738	-1.7297841	4.391405	0.0	-19.125	-47.25	-8.0625	0.10444821	-0.12213589	-0.35537702
1277223464992	4.671779	13.184497	-7.5456724	6.086545	0.0	-20.375	-46.3125	-12.25	0.10716651	-0.494707	-0.34053493
1277223465032	6.4015636	12.299174	-2.8330324	4.345232	0.0	-21.125	-45.0625	-15.4375	-0.08220535	-0.20154946	-0.47990274
1277223465062	7.4639506	12.598822	0.27240697	4.8396826	0.0	-21.625	-44.8125	-15.1875	-0.28868863	0.018600062	-0.53483653
1277223465092	9.80665	14.709975	2.070293	7.993347	0.0	-20.875	-45.3125	-12.25	-0.87883997	0.116572455	-0.5880026
1277223465132	9.697687	13.525005	3.173541	7.1356716	0.0	-19.625	-46.75	-8.3125	-1.6673104	0.18842745	-0.6220571
1277223465172	13.021052	11.264028	0.84446156	7.431076	0.0	-16.4375	-48.25	-4.875	-1.4657445	0.049008768	-0.8576223
1277223465212	11.958665	5.175732	-5.243834	4.239547	0.0	-13.4375	-49.5	-1.9375	-1.2405863	-0.38259345	-1.1623361
1277223465252	4.7943625	1.9477097	2.0294318	-4.248046	0.0	-10.25	-50.75	0.5625	-1.8195751	0.3737374	-1.1849136
1277223465292	0.53119355	3.405087	3.214402	-5.0939903	0.0	-7.0	-51.5	2.25	-3.1140535	0.7506006	-0.15475269
1277223465332	0.88532263	2.1792557	0.19068487	-7.446711	0.0	-5.0	-52.25	4.0	-2.0624392	0.08088894	-0.38588265
1277223465372	4.2495484	2.070293	-0.7627395	-5.0184827	0.0	-2.8125	-52.25	5.75	-1.6063839	-0.15997826	-1.1174576
1277223465412	6.4424243	-0.38136974	0.42223078	-3.3391504	0.0	-1.0625	-52.25	7.6875	-1.7141674	0.065331474	-1.6299239
