#timestamp	accel_x	accel_y	accel_z	accel_mag	temperature	mag_x	mag_y	mag_z	azimuth	pitch	roll
1277140364129	0.7218784	3.636633	9.302697	0.20765877	0.0	-14.5625	-31.0	-35.6875	2.704815	1.1915407	-0.19595462
1277140364168	0.7218784	3.759216	9.384419	0.32844448	0.0	-15.125	-31.25	-35.6875	2.6701887	1.1834987	-0.1897195
1277140364208	0.7218784	3.718355	9.234595	0.17458344	0.0	-14.8125	-31.5	-35.4375	2.6937706	1.1815512	-0.19175388
1277140364238	0.61291564	3.718355	9.234595	0.1672945	0.0	-15.625	-31.75	-35.1875	2.6253078	1.1833367	-0.16336614
1277140364268	0.5720546	3.7864566	9.084772	0.052232742	0.0	-15.875	-31.5	-34.1875	2.5835278	1.171876	-0.14994517
1277140364308	0.7218784	4.0588636	9.384419	0.4433651	0.0	-16.125	-32.0	-33.1875	2.6249561	1.1568776	-0.1760119
1277140364348	0.61291564	4.140586	9.425281	0.5062561	0.0	-16.875	-32.75	-32.6875	2.5725286	1.1528652	-0.14695913
1277140364388	0.88532263	4.399372	8.771504	0.046144485	0.0	-16.875	-33.0	-32.9375	2.602264	1.0979058	-0.19858603
1277140364428	1.3075534	4.140586	9.084772	0.26247215	0.0	-17.375	-33.0	-33.1875	2.802513	1.1249377	-0.30587885
1277140364472	0.92618364	3.445948	9.193735	0.05525303	0.0	-17.375	-32.75	-33.1875	2.7768347	1.2005758	-0.26256943
1277140364508	1.0760075	3.5957718	9.425281	0.33846092	0.0	-16.875	-33.0	-33.4375	2.8391814	1.1918273	-0.29076162
1277140364548	1.0351465	3.9499009	9.384419	0.42763424	0.0	-17.125	-33.0	-33.1875	2.7526925	1.1603906	-0.25630507
1277140364588	0.9942854	4.2904096	9.00305	0.2158804	0.0	-16.875	-33.25	-33.1875	2.6795127	1.115842	-0.22772606
1277140364618	1.0760075	4.903325	9.425281	0.87212753	0.0	-17.375	-33.5	-32.6875	2.6139715	1.0814023	-0.21602035
1277140364658	1.4165162	4.7126403	9.534244	0.9226227	0.0	-18.375	-32.75	-32.1875	2.7114623	1.094327	-0.29198703
1277140364703	1.879608	3.3778462	8.471856	-0.49455452	0.0	-18.375	-33.0	-31.4375	3.1410966	1.1427274	-0.50778294
1277140364738	1.9885708	5.366417	9.043911	0.8959274	0.0	-18.875	-33.25	-30.9375	2.760663	1.0066059	-0.35487098
1277140364768	1.7978859	4.399372	9.302697	0.63973904	0.0	-18.625	-33.25	-30.6875	2.909451	1.0984824	-0.38795704
1277140364798	1.7297841	4.1814466	9.425281	0.6486149	0.0	-18.375	-33.75	-30.1875	2.9531236	1.123192	-0.39224425
1277140364838	1.6889231	4.2904096	9.384419	0.6493244	0.0	-18.875	-33.25	-30.4375	2.8853736	1.1141073	-0.37502098
1277140364883	1.607201	4.0180025	9.302697	0.45335102	0.0	-19.125	-32.5	-30.6875	2.8753955	1.1353823	-0.38050637
1277140364918	1.607201	3.486809	9.534244	0.47161484	0.0	-19.875	-32.0	-31.4375	2.9413486	1.1879687	-0.43191224
1277140364958	1.607201	3.0237172	10.079058	0.8382244	0.0	-20.375	-31.0	-32.4375	3.0022492	1.2432859	-0.4885535
1277140364998	1.4982382	3.718355	9.043911	0.08593273	0.0	-20.625	-30.5	-32.6875	2.7669687	1.1535573	-0.38303003
1277140365039	1.9477097	4.140586	8.499097	-0.15405083	0.0	-20.625	-29.75	-33.4375	2.7740338	1.0769122	-0.43968412
1277140365078	1.7297841	3.636633	8.812365	-0.11773777	0.0	-20.375	-29.5	-33.6875	2.8364863	1.142154	-0.44398293
1277140365109	1.56634	3.2961242	9.084772	-0.016301155	0.0	-19.625	-29.0	-33.6875	2.8780735	1.1888243	-0.4436169
1277140365148	1.5390993	2.9556155	9.507003	0.2674551	0.0	-18.875	-29.0	-34.1875	2.9849489	1.2336634	-0.48009956
1277140365180	1.4982382	2.1792557	9.765789	0.31088448	0.0	-18.375	-29.75	-34.1875	-3.0725815	1.3063372	-0.6022873
1277140365218	1.1168685	2.7240696	9.888372	0.5107069	0.0	-17.125	-29.75	-34.6875	2.9434671	1.2814165	-0.3890972
1277140365261	0.313268	3.636633	10.501288	1.3109169	0.0	-16.125	-30.75	-35.1875	2.518712	1.2362736	-0.0859302
1277140365298	0.92618364	3.173541	8.962189	-0.25416374	0.0	-14.5625	-31.25	-35.1875	2.8835492	1.2174062	-0.28395888
1277140365328	0.313268	3.8273177	8.853226	-0.15646362	0.0	-13.0625	-32.25	-35.1875	2.5787044	1.1615349	-0.081668474
1277140365368	-0.5720546	4.7943625	10.228881	1.5045462	0.0	-12.0625	-33.5	-34.6875	2.290642	1.1297716	0.11875674
1277140365398	-1.0351465	4.862464	10.079058	1.4317875	0.0	-10.5625	-34.25	-34.1875	2.2088141	1.1125687	0.2097539
1277140365469	-1.4165162	4.372132	9.656827	0.88803864	0.0	-9.0625	-35.25	-33.9375	2.1652656	1.1265978	0.3133159
1277140365508	-1.4573772	4.7943625	9.466142	0.903985	0.0	-6.8125	-36.75	-32.6875	2.254925	1.0839394	0.29510167
1277140365538	-1.9885708	5.706926	9.575105	1.516161	0.0	-4.5	-38.5625	-31.4375	2.2165236	1.0077767	0.33529216
1277140365568	-2.0294318	5.012288	9.697687	1.2968073	0.0	-2.25	-40.3125	-30.4375	2.3520947	1.0621272	0.38471588
1277140365598	-1.920469	4.8216033	9.384419	0.9173126	0.0	0.5	-41.5625	-29.4375	2.493669	1.0656193	0.37904438
1277140365639	-2.2609777	4.2086873	8.539958	-0.02115345	0.0	3.25	-41.3125	-29.1875	2.4170363	1.0607376	0.49297595
1277140365688	-2.1383946	3.2961242	7.9679036	-0.92269516	0.0	7.0625	-40.3125	-29.1875	2.4870696	1.1126795	0.57550323
1277140365740	-4.099725	3.8681788	8.580819	0.4598484	0.0	11.0625	-39.5625	-28.9375	2.1391962	0.9896024	0.81444985
1277140365798	-0.8036005	3.2961242	7.7363577	-1.3590803	0.0	15.375	-38.3125	-29.1875	-2.917325	1.1575168	0.23913647
1277140365868	-1.7297841	3.7864566	8.076866	-0.72011185	0.0	18.875	-36.5	-29.9375	-3.053902	1.0949005	0.42852297
1277140365908	-2.7240696	3.0237172	8.539958	-0.34650707	0.0	20.875	-35.25	-30.6875	2.8042963	1.1260744	0.7333126
1277140365938	-3.568531	3.0645783	8.730643	0.110515594	0.0	22.625	-33.25	-31.6875	2.6407123	1.0766138	0.8612278
1277140365971	-4.0180025	3.214402	8.962189	0.5276394	0.0	22.375	-32.25	-32.4375	2.5442493	1.0496086	0.89605534
1277140366008	-3.9771416	2.6014864	8.962189	0.33761978	0.0	22.625	-31.75	-33.1875	2.43252	1.0832245	0.9915376
1277140366048	-2.982856	2.6423476	8.390134	-0.51828194	0.0	23.125	-30.75	-33.9375	2.7661417	1.1273881	0.845857
1277140366079	-3.8681788	2.3699405	8.62168	-0.0643301	0.0	22.875	-30.75	-34.1875	2.3993878	1.0864338	1.0211083
1277140366108	-4.099725	2.4516625	9.043911	0.42128754	0.0	23.375	-30.25	-34.1875	2.4082515	1.0848557	1.0318439
1277140366138	-3.8273177	2.5333846	9.193735	0.46910572	0.0	23.625	-30.5	-33.9375	2.5261862	1.1077627	0.98608595
1277140366168	-3.336985	2.9147544	8.962189	0.19095421	0.0	23.875	-31.25	-33.1875	2.765714	1.1116556	0.85283387
1277140366198	-2.7921712	2.9147544	8.689782	-0.22519302	0.0	24.125	-31.5	-32.6875	2.9455123	1.1359564	0.76392174
1277140366228	-3.1463003	3.255263	9.043911	0.3071165	0.0	23.875	-32.5	-32.6875	2.8902025	1.1066809	0.76837856
1277140366268	-3.3642259	3.5276701	9.152874	0.56338215	0.0	23.875	-32.75	-32.1875	2.8854566	1.0814224	0.76168716
1277140366300	-3.9499009	3.2961242	9.384419	0.895381	0.0	23.625	-33.25	-31.9375	2.6462178	1.0693371	0.8753801
1277140366338	-3.173541	3.1054392	9.00305	0.23177719	0.0	23.625	-33.5	-32.1875	2.815183	1.1126153	0.7962438
1277140366368	-3.445948	2.9147544	8.430995	-0.24359512	0.0	23.875	-33.25	-31.6875	2.680166	1.0792869	0.8687166
1277140366398	-3.759216	2.7921712	8.471856	-0.12676048	0.0	24.125	-32.75	-31.4375	2.5778317	1.0658528	0.931949
1277140366438	-4.2086873	2.4925237	8.853226	0.30795956	0.0	24.625	-32.0	-31.6875	2.4332914	1.0660369	1.0361074
1277140366476	-4.2904096	2.4516625	8.730643	0.22541809	0.0	25.1875	-31.25	-31.6875	2.4283464	1.0557574	1.0516503
1277140366508	-4.3312707	2.4925237	9.00305	0.49031448	0.0	26.1875	-30.5	-31.9375	2.4930892	1.0640745	1.0486077
1277140366548	-4.0588636	2.3426998	8.921328	0.27068615	0.0	26.1875	-30.25	-32.1875	2.5250762	1.0871092	1.0473244
1277140366588	-3.8273177	1.9477097	8.308413	-0.4540224	0.0	26.4375	-30.25	-32.9375	2.4477417	1.0937405	1.1000566
1277140366628	-3.636633	2.0294318	8.662541	-0.1950264	0.0	25.6875	-30.0	-33.4375	2.5151918	1.1226615	1.0617919
1277140366658	-4.1814466	1.8387469	8.730643	0.04675579	0.0	24.875	-29.75	-33.6875	2.2929852	1.0887612	1.1565078
1277140366688	-4.372132	1.7297841	9.112013	0.4469576	0.0	24.125	-29.25	-34.6875	2.2090213	1.0944235	1.1940554
1277140366728	-4.5219555	1.5390993	8.894087	0.28897762	0.0	23.125	-28.5	-34.6875	2.0823689	1.077938	1.2427338
1277140366758	-4.2495484	1.0760075	8.689782	-0.07378006	0.0	23.375	-28.25	-34.9375	2.0293543	1.1035863	1.3228034
1277140366788	-4.4810944	1.1441092	9.152874	0.4483137	0.0	23.125	-27.25	-35.1875	2.0268638	1.1029267	1.3208177
1277140366828	-4.5628166	0.9942854	9.343558	0.63892174	0.0	23.375	-26.75	-34.6875	2.0129123	1.1073103	1.3562399
1277140366868	-4.4810944	1.334794	9.575105	0.8490763	0.0	23.125	-26.25	-35.1875	2.1141922	1.1165402	1.2812927
1277140366908	-4.4810944	1.56634	9.888372	1.1621027	0.0	22.875	-25.5	-36.4375	2.1699164	1.1232319	1.2345277
1277140366948	-3.9771416	1.3075534	10.923519	1.8916664	0.0	22.125	-25.0	-37.75	2.243205	1.2048022	1.253161
1277140366978	-3.6774938	0.313268	10.800936	1.6074772	0.0	21.625	-24.25	-39.0	1.9816351	1.2415239	1.4858162
1277140367008	-3.336985	-0.50395286	10.310603	1.0422192	0.0	21.375	-23.0	-40.0	1.7380908	1.2544713	1.720684
1277140367048	-3.214402	-0.6946377	9.765789	0.4979868	0.0	20.375	-22.5	-40.25	1.6287065	1.2459766	1.7836252
1277140367088	-2.3426998	-0.29964766	9.724928	0.20096016	0.0	19.625	-22.25	-41.0	1.8294225	1.3325496	1.6980126
1277140367128	-1.7978859	0.42223078	9.765789	0.13222885	0.0	18.375	-22.25	-41.75	2.2745142	1.383894	1.340128
1277140367198	-1.8387469	1.1168685	9.80665	0.23320961	0.0	17.125	-22.75	-41.75	2.5830019	1.3548385	1.024948
1277140367238	-2.0294318	0.92618364	9.915613	0.3568039	0.0	16.125	-23.0	-42.0	2.362492	1.3495038	1.1426529
1277140367278	-2.0294318	0.14982383	10.079058	0.47578335	0.0	16.125	-23.25	-41.75	1.9660515	1.3715752	1.4971045
1277140367318	-2.9147544	-0.42223078	10.147159	0.75928116	0.0	16.625	-23.0	-41.5	1.6131897	1.2883112	1.7146554
1277140367358	-3.255263	-0.3405087	9.615966	0.35107994	0.0	17.625	-22.5	-42.0	1.6056932	1.2427226	1.6750199
1277140367398	-3.636633	-0.10896278	9.80665	0.65314674	0.0	18.875	-21.75	-41.25	1.6925642	1.2155373	1.60075
1277140367438	-3.255263	-0.8036005	8.19945	-0.94812393	0.0	19.625	-21.25	-41.25	1.4649413	1.1826171	1.8128194
1277140367478	-3.9090397	0.040861044	9.888372	0.82641983	0.0	20.625	-21.75	-41.25	1.7645565	1.194315	1.5603437
1277140367518	-4.2495484	0.46309182	9.888372	0.96614075	0.0	21.375	-22.25	-40.5	1.848557	1.162762	1.4622502
1277140367558	-4.2495484	0.6537767	9.575105	0.6894789	0.0	22.125	-23.5	-40.25	1.8970779	1.1487461	1.418147
1277140367598	-4.5219555	0.7627395	9.507003	0.7485838	0.0	22.875	-24.5	-39.25	1.8991361	1.1213571	1.4036945
1277140367638	-5.407278	1.0351465	9.80665	1.4397078	0.0	22.625	-25.0	-38.0	1.8064009	1.0592417	1.381649
1277140367678	-5.284695	1.0760075	10.18802	1.7207756	0.0	22.875	-26.5	-37.4375	1.8855418	1.0839379	1.3699337
1277140367718	-5.938472	1.3075534	9.507003	1.4786606	0.0	23.125	-26.5	-36.6875	1.7625008	1.001764	1.354071
1277140367758	-5.325556	1.0351465	7.9679036	-0.16711903	0.0	23.375	-27.0	-36.4375	1.6934489	0.97301483	1.3788167
1277140367798	-4.7126403	0.61291564	7.8861814	-0.5992346	0.0	24.375	-27.0	-36.9375	1.7638875	1.0284563	1.4414645
1277140367838	-5.134871	1.1849703	7.9270425	-0.28777122	0.0	24.375	-26.0	-36.6875	1.785859	0.9840935	1.3439975
1277140367868	-5.053149	0.38136974	7.8589406	-0.45557022	0.0	24.375	-25.75	-36.6875	1.6617453	0.99807864	1.4954674
1277140367908	-5.012288	0.38136974	8.240311	-0.15412807	0.0	24.375	-26.0	-36.1875	1.7187095	1.0230399	1.4948556
1277140367948	-5.7886477	0.38136974	8.349273	0.36017036	0.0	24.125	-26.25	-35.1875	1.6158098	0.9635589	1.505009
1277140367988	-4.862464	0.27240697	7.246025	-1.0760927	0.0	25.6875	-27.0	-33.6875	1.7166176	0.9790384	1.5148324
1277140368030	-5.938472	1.6889231	6.4015636	-0.9129486	0.0	27.1875	-28.25	-32.4375	1.6651301	0.80349433	1.2937088
1277140368068	-7.3549876	1.3756552	7.6273947	0.8781719	0.0	27.9375	-28.5	-29.9375	1.6743939	0.7949851	1.3858956
1277140368108	-7.6954966	0.6537767	6.3607025	0.19867992	0.0	29.4375	-29.75	-27.9375	1.5223258	0.68895566	1.486044
1277140368148	-7.43671	-1.1168685	5.175732	-0.67756176	0.0	28.9375	-31.0	-26.4375	1.3413434	0.6027979	1.7198654
1277140368188	-5.6252036	-0.19068487	4.399372	-2.662859	0.0	28.1875	-32.5	-24.4375	1.4936967	0.66344106	1.6046816
1277140368218	-6.891896	7.273266	8.117727	3.088935	0.0	28.4375	-34.5	-23.1875	2.843821	0.6809052	0.75848156
1277140368258	-6.1291566	13.293459	6.1700177	6.078933	0.0	27.6875	-35.75	-20.6875	-1.381358	0.39889857	0.4320179
1277140368298	-7.6954966	3.336985	4.3312707	-0.36652088	0.0	27.9375	-36.75	-18.1875	1.672558	0.47666082	1.1616402
1277140368338	-8.049625	4.0180025	3.990762	0.035452843	0.0	28.1875	-37.0	-16.1875	1.6742222	0.4175023	1.1078258
1277140368378	-6.2108784	3.9090397	3.173541	-1.8112164	0.0	28.9375	-36.75	-14.6875	1.8210206	0.40815786	1.0090493
1277140368418	-7.3141265	2.982856	3.336985	-1.2317247	0.0	29.9375	-36.5	-14.1875	1.7069944	0.39971536	1.1835657
1277140368468	-9.493382	2.7649305	3.5276701	0.691617	0.0	30.6875	-36.25	-13.6875	1.586617	0.3426923	1.287388
1277140368518	-7.205164	4.3312707	4.4810944	-0.2801342	0.0	30.6875	-36.5	-12.9375	2.1354196	0.48972276	1.0295433
1277140368548	-6.851035	4.903325	3.718355	-0.5976629	0.0	29.9375	-37.25	-13.4375	2.0254705	0.41563898	0.9496072
1277140368578	-6.891896	4.5219555	4.5628166	-0.38510036	0.0	28.9375	-38.0625	-14.4375	2.0939205	0.5055581	0.9901263
1277140368618	-6.66035	3.3778462	4.8216033	-0.9174452	0.0	27.1875	-38.8125	-15.6875	1.9730419	0.5733044	1.1014391
1277140368658	-6.469665	4.140586	5.6252036	-0.28593922	0.0	25.6875	-39.0625	-18.4375	2.0683625	0.6320979	1.0014831
1277140368698	-4.5900574	4.440233	6.0474343	-1.0114384	0.0	22.625	-39.0625	-21.1875	2.435308	0.75815445	0.80198795
1277140368738	-3.405087	2.9147544	9.956474	1.1122227	0.0	19.125	-38.8125	-23.9375	2.5688264	1.1477907	0.86282927
1277140368778	-2.6832085	3.636633	8.349273	-0.31270123	0.0	15.625	-38.5625	-27.4375	2.7095602	1.0746655	0.6356652
1277140368818	-1.7297841	3.9499009	7.205164	-1.4097309	0.0	12.3125	-38.3125	-29.4375	2.9320462	1.0315039	0.41277218
1277140368858	-1.607201	3.8273177	9.615966	0.6670437	0.0	9.3125	-38.3125	-30.4375	2.8836224	1.1632761	0.39756748
1277140368898	-1.920469	3.759216	8.499097	-0.31694221	0.0	6.0625	-39.0625	-29.9375	2.5944037	1.1098052	0.4723054
1277140368938	-2.1383946	5.175732	6.1700177	-1.4741802	0.0	3.5	-40.8125	-27.6875	2.266536	0.8337825	0.39179766
1277140368978	-2.2609777	5.5571017	7.205164	-0.43073463	0.0	1.0	-43.0625	-24.1875	2.36148	0.87645566	0.3864085
1277140369018	0.08172209	7.7363577	9.275456	2.271926	0.0	1.0	-45.3125	-20.1875	-3.0740442	0.8755975	-0.010562988
1277140369058	-1.0351465	8.62168	7.7363577	1.8233166	0.0	2.75	-46.8125	-17.4375	2.985555	0.7277736	0.11949122
1277140369098	-0.9942854	9.00305	7.3141265	1.8355122	0.0	5.0625	-47.0625	-15.6875	3.1339378	0.679295	0.109992996
1277140369138	-1.4165162	10.732834	8.539958	3.9821548	0.0	6.8125	-47.0625	-14.6875	-3.1083395	0.6679018	0.13122131
1277140369178	-3.636633	10.95076	8.390134	4.460045	0.0	6.0625	-46.5625	-15.1875	2.5999458	0.62869817	0.32063073
1277140369218	-2.0294318	9.888372	7.4639506	2.7475939	0.0	3.75	-46.3125	-16.1875	2.7685559	0.6366885	0.2024233
1277140369258	-0.38136974	5.597963	5.366417	-2.042562	0.0	-0.5	-45.8125	-18.6875	2.9441946	0.76312673	0.06802142
1277140369298	1.1849703	2.7921712	5.012288	-3.948032	0.0	-5.0625	-43.8125	-21.6875	-2.678854	1.026595	-0.40135407
1277140369338	1.3756552	2.070293	5.243834	-4.0035186	0.0	-9.0625	-41.8125	-24.4375	-2.5933707	1.1281502	-0.5864828
1277140369378	1.7297841	2.152015	5.8567495	-3.3317113	0.0	-12.5625	-39.8125	-26.4375	-2.576855	1.1302664	-0.67705214
1277140369418	1.2258313	4.5219555	7.8589406	-0.6571312	0.0	-14.3125	-38.3125	-26.6875	2.9656136	1.0332073	-0.2647222
1277140369448	0.23154591	6.782933	9.697687	2.0300274	0.0	-15.125	-38.5625	-25.9375	2.4633188	0.960174	-0.034123294
1277140369478	1.56634	6.3607025	10.882658	2.895484	0.0	-15.375	-39.0625	-24.6875	2.9023628	1.0289505	-0.24144867
1277140369518	1.334794	6.1700177	9.043911	1.2225437	0.0	-15.875	-39.8125	-23.1875	2.8211737	0.9614065	-0.21305235
1277140369558	1.7978859	5.243834	7.6273947	-0.3775816	0.0	-16.875	-40.8125	-21.9375	3.022371	0.9423186	-0.33029735
1277140369598	1.879608	6.3607025	7.014479	-0.15292645	0.0	-17.625	-40.8125	-21.4375	2.8430202	0.81337285	-0.28732622
1277140369628	1.6480621	7.3141265	8.158588	1.2737427	0.0	-18.375	-41.3125	-19.9375	2.7090878	0.8275986	-0.2216246
1277140369668	1.6889231	8.308413	8.921328	2.5007563	0.0	-18.375	-41.8125	-18.1875	2.687487	0.8108525	-0.20054613
1277140369708	2.0294318	8.580819	8.390134	2.364767	0.0	-18.375	-42.0625	-17.1875	2.7279265	0.760565	-0.23224051
1277140369758	1.6889231	7.082581	7.164303	0.4081745	0.0	-18.625	-42.5625	-16.4375	2.7566905	0.7773082	-0.23408979
1277140369798	1.56634	6.2108784	6.469665	-0.70253086	0.0	-18.375	-42.3125	-17.1875	2.7882824	0.79039395	-0.2470416
1277140369838	1.8387469	5.8976107	5.938472	-1.2376223	0.0	-19.125	-42.0625	-17.9375	2.8459673	0.765664	-0.30222723
1277140369878	1.6480621	6.469665	6.3607025	-0.585413	0.0	-19.375	-41.5625	-17.6875	2.7055454	0.76119673	-0.24943188
1277140369918	1.56634	6.932757	6.851035	0.06518936	0.0	-19.375	-41.0625	-17.4375	2.6456733	0.76702696	-0.2222025
1277140369958	1.4165162	7.273266	7.246025	0.5573158	0.0	-19.625	-41.0625	-16.6875	2.5976565	0.7742158	-0.19234873
1277140369998	1.3756552	7.246025	7.014479	0.37176895	0.0	-19.625	-40.5625	-16.6875	2.5619226	0.7603183	-0.1876168
1277140370038	1.5390993	7.3549876	6.782933	0.31623745	0.0	-19.625	-41.0625	-17.1875	2.5721037	0.73428845	-0.20628263
1277140370072	1.6480621	7.3141265	6.238119	-0.05335903	0.0	-19.125	-41.3125	-18.1875	2.557438	0.6939664	-0.22162463
1277140370108	1.4982382	7.1234417	6.6331096	0.041511536	0.0	-19.625	-41.3125	-19.1875	2.545299	0.73898476	-0.2073035
1277140370148	1.2258313	7.3549876	7.0553403	0.45864773	0.0	-19.125	-41.8125	-19.1875	2.5151825	0.7577656	-0.16514868
1277140370188	1.2666923	7.3958488	7.43671	0.7578068	0.0	-18.625	-41.5625	-19.1875	2.5645423	0.78092515	-0.16962491
1277140370228	1.1849703	7.082581	6.701211	0.015434265	0.0	-18.875	-41.8125	-18.6875	2.5269234	0.75084877	-0.1657723
1277140370268	1.1849703	7.0553403	6.2789803	-0.28784943	0.0	-17.875	-42.0625	-18.1875	2.5434754	0.7203395	-0.16640063
1277140370308	1.1441092	7.164303	6.2789803	-0.21176529	0.0	-17.625	-42.0625	-17.9375	2.5323803	0.71340096	-0.15835866
1277140370348	1.1441092	7.3958488	6.2789803	-0.0376606	0.0	-17.625	-42.3125	-17.6875	2.512898	0.69807756	-0.15347955
1277140370378	1.0760075	7.5865335	6.0474343	-0.045259476	0.0	-17.875	-42.3125	-17.6875	2.429686	0.6681386	-0.14089152
1277140370418	1.0760075	7.7772183	6.0474343	0.103666306	0.0	-17.875	-42.8125	-16.9375	2.438039	0.6563333	-0.13748099
1277140370458	0.7627395	7.5865335	7.205164	0.68390083	0.0	-17.875	-43.3125	-16.6875	2.517923	0.7571105	-0.10020189
1277140370498	0.42223078	8.117727	8.240311	1.7682571	0.0	-17.625	-43.5625	-16.1875	2.4934466	0.79221654	-0.051966596
1277140370538	1.1849703	8.076866	7.6273947	1.3655052	0.0	-17.125	-44.0625	-16.9375	2.6366978	0.7514715	-0.1456724
1277140370578	1.1849703	7.668256	6.742072	0.47254372	0.0	-17.625	-43.8125	-17.9375	2.5685492	0.7153677	-0.15331662
1277140370618	1.1441092	6.932757	6.1291566	-0.48256016	0.0	-17.625	-42.8125	-19.6875	2.528756	0.717292	-0.16355531
1277140370648	0.6946377	6.3607025	6.2108784	-0.889472	0.0	-18.375	-41.5625	-21.1875	2.3982868	0.7705182	-0.10877664
1277140370678	0.7218784	6.1700177	6.2108784	-1.0222759	0.0	-18.375	-40.3125	-22.1875	2.3765054	0.7852996	-0.116468295
1277140370718	0.88532263	6.238119	6.2789803	-0.9115095	0.0	-18.625	-39.5625	-22.6875	2.3769374	0.78367716	-0.14097992
1277140370758	1.2258313	6.891896	6.742072	-0.08778095	0.0	-18.875	-39.5625	-22.1875	2.4232378	0.7666267	-0.17602476
1277140370798	1.2258313	7.5865335	7.273266	0.7743969	0.0	-18.375	-40.0625	-21.6875	2.4235482	0.7578841	-0.16019535
1277140370838	1.1168685	7.8589406	7.5865335	1.1735973	0.0	-18.875	-40.5625	-20.6875	2.4157548	0.76276857	-0.14116907
1277140370878	1.2258313	7.205164	7.273266	0.504385	0.0	-18.875	-41.0625	-19.9375	2.5283873	0.7829684	-0.16851877
1277140370908	1.2258313	6.8237944	6.5922484	-0.23980236	0.0	-19.125	-41.3125	-19.6875	2.5200095	0.7602079	-0.17774491
1277140370948	1.1849703	6.66035	6.4424243	-0.46484947	0.0	-19.625	-41.5625	-19.6875	2.5063245	0.76098365	-0.17607178
1277140370978	1.2666923	6.891896	6.5922484	-0.18581486	0.0	-19.875	-41.3125	-19.4375	2.4992657	0.7548857	-0.18176587
1277140371038	1.2258313	7.273266	6.973618	0.34393692	0.0	-19.875	-41.0625	-19.4375	2.4667213	0.7573748	-0.16697016
1277140371068	1.1849703	7.3549876	7.164303	0.5290766	0.0	-19.625	-41.0625	-18.6875	2.4887137	0.76586276	-0.15973847
1277140371108	1.2258313	7.246025	6.8237944	0.22189522	0.0	-19.875	-40.8125	-18.9375	2.4598773	0.7483589	-0.16758619
1277140371148	1.334794	7.3141265	6.510526	0.07591343	0.0	-19.625	-41.0625	-18.6875	2.4654188	0.7192082	-0.18050891
1277140371198	1.2666923	7.246025	6.510526	0.016604424	0.0	-19.375	-41.3125	-18.4375	2.4800558	0.7245075	-0.17306326
1277140371238	1.1849703	7.273266	6.742072	0.1813469	0.0	-19.625	-41.0625	-18.4375	2.4645758	0.7409883	-0.16150238
1277140371278	1.1441092	7.082581	6.701211	0.010587692	0.0	-19.375	-41.0625	-17.9375	2.4951937	0.7513096	-0.16015497
1277140371318	0.88532263	6.891896	6.66035	-0.18156433	0.0	-19.375	-41.3125	-18.4375	2.4470928	0.76422566	-0.12775883
1277140371358	1.1168685	7.3549876	7.082581	0.4649706	0.0	-19.375	-40.8125	-19.1875	2.4561124	0.7608386	-0.15070055
1277140371388	1.7297841	7.9270425	7.5865335	1.301259	0.0	-19.125	-41.3125	-19.6875	2.5877147	0.7518413	-0.21484521
1277140371428	1.7570249	8.076866	7.7772183	1.5427122	0.0	-18.875	-41.3125	-19.9375	2.595314	0.7549552	-0.21420069
1277140371468	1.4165162	7.6954966	6.973618	0.67469215	0.0	-19.375	-41.0625	-19.6875	2.4661236	0.7279443	-0.18203317
1277140371508	1.0351465	6.782933	5.8567495	-0.78549576	0.0	-19.875	-41.0625	-19.6875	2.3514647	0.70656365	-0.15144198
1277140371548	0.95342433	6.2108784	5.6660647	-1.3456621	0.0	-20.875	-40.5625	-20.1875	2.338588	0.7337635	-0.15231973
1277140371578	1.1849703	6.469665	6.1700177	-0.7883444	0.0	-21.375	-40.3125	-19.9375	2.4065351	0.7534595	-0.18115005
1277140371618	1.3075534	7.3549876	7.082581	0.48744965	0.0	-21.875	-39.8125	-20.1875	2.3692274	0.75876164	-0.17593962
1277140371658	1.7570249	8.19945	7.6954966	1.5748596	0.0	-21.625	-40.0625	-19.6875	2.4385486	0.7425112	-0.21109332
1277140371688	1.8387469	7.7363577	7.6273947	1.2119417	0.0	-21.375	-39.5625	-19.1875	2.5187783	0.76457393	-0.23334643
1277140371718	1.6889231	7.164303	6.973618	0.33292866	0.0	-21.625	-39.0625	-19.4375	2.4778326	0.75840175	-0.2315145
1277140371758	1.5390993	6.851035	6.1700177	-0.4592104	0.0	-21.375	-39.0625	-19.4375	2.4083874	0.7209195	-0.22098327
1277140371788	1.4982382	6.66035	6.2789803	-0.5313835	0.0	-21.875	-38.3125	-19.9375	2.3914537	0.7436238	-0.22126578
1277140371828	1.4573772	6.701211	6.8237944	-0.13223267	0.0	-22.375	-38.5625	-20.1875	2.4227815	0.7829086	-0.21414508
1277140371868	1.4573772	6.66035	7.014479	-0.0246706	0.0	-22.625	-38.8125	-20.1875	2.447424	0.7996064	-0.2154187
1277140371908	1.5390993	6.742072	6.932757	-0.014434814	0.0	-22.875	-38.5625	-20.1875	2.4316993	0.7866431	-0.22443688
1277140371938	1.5390993	6.742072	6.8237944	-0.09127426	0.0	-23.375	-38.8125	-20.1875	2.4131284	0.7787224	-0.22443688
1277140371968	1.3075534	6.782933	7.1234417	0.116116524	0.0	-23.625	-38.8125	-20.6875	2.3660839	0.8007647	-0.19043513
1277140371998	1.3756552	6.891896	7.43671	0.42542267	0.0	-23.625	-38.5625	-20.9375	2.3825498	0.81365705	-0.19701551
1277140372038	1.4573772	6.701211	7.164303	0.1108799	0.0	-23.375	-38.0625	-21.4375	2.3851535	0.8072493	-0.21414506
1277140372078	1.4573772	6.701211	6.5513873	-0.32240772	0.0	-22.875	-37.5	-21.9375	2.2983036	0.7625472	-0.21414508
1277140372118	1.5390993	6.891896	6.5513873	-0.17401123	0.0	-21.875	-36.75	-22.6875	2.2605581	0.7479316	-0.21971498
1277140372158	1.2666923	6.973618	7.43671	0.46664143	0.0	-21.625	-36.5	-23.6875	2.2717814	0.8094209	-0.17968161
1277140372198	1.334794	6.891896	7.8589406	0.73103714	0.0	-21.625	-36.75	-23.4375	2.3603272	0.84172547	-0.19130735
1277140372238	1.4165162	7.014479	7.3958488	0.48451233	0.0	-21.375	-36.5	-23.9375	2.2935908	0.8018737	-0.19926193
1277140372278	1.3756552	7.014479	7.205164	0.342721	0.0	-21.875	-36.75	-24.4375	2.239762	0.78937376	-0.19365866
1277140372318	1.2666923	6.782933	7.3141265	0.24865341	0.0	-21.375	-36.75	-24.1875	2.291655	0.8145107	-0.1846204
1277140372358	1.4165162	6.5922484	7.504812	0.2822771	0.0	-21.875	-36.5	-24.6875	2.3468292	0.8388368	-0.21165767
1277140372388	1.56634	6.5922484	7.668256	0.42630196	0.0	-22.375	-36.5	-24.9375	2.379751	0.8471085	-0.23327759
1277140372428	1.3756552	6.4015636	7.3549876	0.040597916	0.0	-22.375	-36.25	-24.6875	2.3313057	0.8433996	-0.21167448
1277140372458	1.4165162	6.1291566	7.014479	-0.3845482	0.0	-23.125	-36.0	-25.1875	2.3108559	0.83974177	-0.22712342
1277140372498	1.607201	5.8976107	7.082581	-0.45101738	0.0	-22.875	-35.5	-25.6875	2.3926039	0.85876966	-0.2660566
1277140372538	1.3756552	6.3607025	7.43671	0.07543564	0.0	-22.375	-35.5	-25.4375	2.3032544	0.85191756	-0.21299364
1277140372568	1.4573772	6.6331096	7.8589406	0.580122	0.0	-22.625	-34.5	-25.6875	2.270662	0.85814303	-0.21627608
1277140372598	1.4573772	6.4015636	7.8589406	0.4338045	0.0	-22.625	-33.75	-25.9375	2.2791338	0.8748395	-0.22384441
1277140372638	1.4982382	6.0474343	7.504812	-0.05275917	0.0	-22.875	-33.75	-26.1875	2.3048759	0.87792826	-0.24285777
1277140372668	1.920469	5.8976107	7.0553403	-0.41261768	0.0	-23.625	-33.25	-26.9375	2.3259242	0.8496433	-0.31480622
1277140372698	2.0294318	5.938472	7.164303	-0.28240395	0.0	-23.375	-33.75	-27.1875	2.3818448	0.8514207	-0.32930017
1277140372738	1.9885708	6.2789803	7.6954966	0.32254887	0.0	-23.625	-33.5	-27.1875	2.3396544	0.8629039	-0.30670917
1277140372778	1.9477097	6.66035	8.430995	1.1128511	0.0	-23.625	-33.25	-27.1875	2.3229074	0.88214594	-0.28450072
1277140372808	1.7570249	6.851035	8.812365	1.4929771	0.0	-23.375	-33.0	-26.6875	2.294107	0.8944757	-0.2510505
1277140372848	1.7570249	6.8237944	8.430995	1.1812057	0.0	-23.375	-32.75	-26.6875	2.250448	0.8746221	-0.25201088
1277140372888	2.1111538	6.8237944	7.7772183	0.7530031	0.0	-23.375	-32.75	-27.4375	2.2184906	0.8278862	-0.30004105
1277140372918	2.4925237	6.701211	7.4639506	0.5291834	0.0	-23.375	-32.75	-27.9375	2.2645655	0.8068954	-0.3560951
1277140372948	2.6832085	6.66035	7.668256	0.6986828	0.0	-23.875	-32.75	-28.9375	2.3030603	0.8182332	-0.38297206
1277140372978	2.6832085	6.932757	7.9679036	1.0906067	0.0	-24.375	-32.75	-29.4375	2.2429907	0.8200565	-0.36927855
1277140373018	2.6423476	7.082581	8.281172	1.4059658	0.0	-24.875	-32.5	-28.9375	2.2375636	0.8309296	-0.35708362
1277140373058	2.6423476	6.66035	8.158588	1.0517483	0.0	-25.6875	-32.0	-28.6875	2.288166	0.85012376	-0.37768254
1277140373098	3.214402	6.469665	8.19945	1.1212921	0.0	-26.1875	-31.0	-28.4375	2.4107146	0.8485455	-0.4611181
1277140373138	3.214402	6.510526	7.5865335	0.6945324	0.0	-26.9375	-30.25	-28.4375	2.2420728	0.8073329	-0.45861408
1277140373179	3.759216	5.366417	6.742072	-0.40528488	0.0	-28.1875	-29.75	-28.4375	2.5649545	0.79968643	-0.6110666
1277140373208	3.6774938	5.325556	4.671779	-1.8247313	0.0	-29.6875	-28.75	-28.1875	1.6772966	0.6252441	-0.60434675
1277140373248	3.9499009	3.8681788	5.5162406	-1.9968204	0.0	-31.9375	-27.75	-27.1875	2.9078968	0.78428644	-0.7958507
1277140373288	3.636633	4.6036777	6.891896	-0.75583935	0.0	-34.1875	-25.75	-26.1875	2.5001109	0.86557364	-0.66857713
1277140373328	1.5390993	6.510526	7.9270425	0.5660925	0.0	-35.75	-24.0	-24.9375	1.8392243	0.8698289	-0.23213986
1277140373368	1.2666923	5.243834	9.888372	1.45755	0.0	-37.5	-23.0	-24.4375	2.037706	1.071372	-0.237018
1277140373408	3.486809	5.407278	10.841797	2.8005323	0.0	-37.25	-22.25	-25.9375	2.3804324	1.0352106	-0.5727366
1277140373448	4.0588636	5.2165933	8.62168	1.0570784	0.0	-36.0	-21.5	-28.6875	2.2988153	0.9167372	-0.6612239
1277140373478	2.6832085	4.7535014	5.8567495	-1.8005962	0.0	-33.6875	-19.75	-32.9375	1.6843812	0.82057816	-0.5138846
1277140373518	0.8036005	4.1814466	7.6954966	-1.0117121	0.0	-30.1875	-17.75	-36.6875	1.6646522	1.0654185	-0.18986747
1277140373548	3.7864566	4.1814466	9.193735	0.9797535	0.0	-27.6875	-16.0	-39.5	2.0665967	1.0204525	-0.73586607
1277140373578	4.8216033	4.2086873	10.419566	2.421525	0.0	-25.6875	-15.25	-41.0	2.1554534	1.019975	-0.8531676
1277140373618	2.4108016	4.7535014	9.275456	0.891099	0.0	-24.625	-14.5	-42.25	1.5591121	1.0492454	-0.46936187
1277140373659	2.0294318	3.3778462	9.343558	0.33388805	0.0	-23.875	-13.5	-43.75	1.9245846	1.1716846	-0.5410122
1277140373698	1.4165162	2.5606253	10.038197	0.6493864	0.0	-22.875	-11.4375	-44.75	2.060319	1.2871395	-0.5052902
1277140373738	1.0760075	1.9477097	10.269742	0.7013922	0.0	-21.375	-9.1875	-45.5	2.0990722	1.3574231	-0.5047204
1277140373778	1.7570249	1.1849703	9.466142	-0.10617924	0.0	-19.625	-6.6875	-46.25	2.6188827	1.3505492	-0.9774462
1277140373808	0.08172209	2.1111538	9.575105	-0.0012292862	0.0	-18.125	-3.9375	-46.5	1.2740009	1.3536274	-0.038690362
1277140373848	-0.19068487	2.4516625	9.112013	-0.3686533	0.0	-16.375	-2.4375	-47.25	0.9752502	1.3072047	0.07762151
1277140373888	-0.08172209	4.372132	7.43671	-1.1795492	0.0	-14.5625	-2.4375	-48.25	0.57393014	1.0392361	0.018689413
1277140373928	0.6946377	5.09401	4.0180025	-3.2816367	0.0	-13.0625	-6.1875	-48.5	0.34820873	0.6633813	-0.13552772
1277140373968	1.7978859	7.164303	6.4015636	-0.032211304	0.0	-12.0625	-13.25	-46.5	0.3292801	0.7140886	-0.24587312
1277140373998	1.1168685	5.6252036	7.246025	-0.5656986	0.0	-11.5625	-21.75	-43.5	0.6961124	0.9012787	-0.19599827
1277140374038	3.8273177	5.6252036	4.372132	-1.719202	0.0	-11.3125	-29.0	-39.5	-0.39218795	0.5711586	-0.59744155
1277140374078	4.671779	7.6954966	1.9885708	-0.5870733	0.0	-9.8125	-34.25	-34.9375	-0.33801237	0.21739842	-0.5456089
1277140374118	4.399372	7.8589406	8.730643	2.7369356	0.0	-6.3125	-38.3125	-31.9375	-1.7566552	0.7698457	-0.51032996
1277140374158	3.9499009	10.501288	5.938472	2.8876095	0.0	-2.5	-39.3125	-31.4375	-0.8471748	0.48680863	-0.35976526
1277140374198	2.3426998	10.310603	1.0351465	0.81729984	0.0	0.25	-38.0625	-32.9375	-0.28913414	0.09759001	-0.2234195
1277140374238	0.95342433	9.997335	5.7886477	1.7849064	0.0	0.75	-36.5	-34.9375	-0.33344686	0.5228886	-0.095080286
1277140374278	-2.1383946	11.727119	6.0201936	3.547779	0.0	-1.25	-33.25	-38.5	0.34980333	0.4676628	0.18036447
1277140374318	-1.3756552	9.112013	5.8976107	1.1342373	0.0	-5.3125	-31.25	-40.0	0.51653194	0.5693007	0.14984004
1277140374358	-1.1168685	8.049625	8.853226	2.2109814	0.0	-9.5625	-31.0	-39.75	1.2070341	0.8281571	0.13786767
1277140374398	-0.08172209	9.343558	5.5571017	1.0648785	0.0	-13.5625	-30.25	-39.75	0.6350642	0.5365351	0.008746133
1277140374438	0.46309182	12.217452	4.630918	3.2672157	0.0	-16.625	-30.5	-39.0	0.54578155	0.36207113	-0.037885986
1277140374478	7.082581	10.56939	1.7297841	3.033409	0.0	-19.875	-31.25	-36.1875	-0.028671538	0.13512863	-0.59037787
1277140374518	5.09401	8.19945	0.6537767	-0.13156223	0.0	-23.625	-32.75	-32.6875	0.092903785	0.06762473	-0.55590713
1277140374558	7.246025	7.668256	1.0351465	0.79422474	0.0	-28.6875	-33.25	-27.4375	-0.0860277	0.097803116	-0.7570952
1277140374598	5.7477865	8.962189	3.568531	1.422432	0.0	-34.9375	-32.5	-20.4375	1.1943201	0.32340157	-0.57026136
1277140374638	5.284695	7.3141265	0.95342433	-0.73287106	0.0	-38.5	-32.5	-12.6875	1.0197879	0.105268985	-0.625689
1277140374668	4.7535014	6.0474343	-3.0645783	-1.5266218	0.0	-41.0	-32.5	-6.625	0.45254615	-0.37913483	-0.66616815
1277140374698	5.284695	7.082581	-1.6480621	-0.8173752	0.0	-41.75	-33.25	-1.625	0.88719034	-0.18437941	-0.641035
1277140374738	5.6252036	7.9679036	-1.56634	0.07180214	0.0	-40.75	-34.5	0.875	1.0699235	-0.15923332	-0.61473
1277140374778	5.366417	7.5456724	0.7218784	-0.5192013	0.0	-41.25	-34.25	0.875	1.9127736	0.07780471	-0.6181975
1277140374808	5.6660647	9.80665	0.88532263	1.5537405	0.0	-41.25	-33.75	1.625	1.8552169	0.07800975	-0.5239194
1277140374848	5.829509	8.117727	-3.1463003	0.67093945	0.0	-40.75	-34.25	1.625	0.75510216	-0.30499515	-0.6227843
1277140374888	4.903325	7.7363577	-2.6832085	-0.26236153	0.0	-40.75	-34.5	2.875	0.9433941	-0.28497386	-0.5649044
1277140374928	4.671779	6.0201936	-1.6480621	-2.0102177	0.0	-40.25	-35.0	4.125	0.97377586	-0.21299349	-0.65994585
1277140374968	3.7864566	5.053149	-2.3699405	-3.0621567	0.0	-39.5	-35.5	5.625	0.66961694	-0.35905427	-0.6430697
1277140374998	2.0294318	6.4424243	-1.4165162	-2.9052052	0.0	-38.25	-36.5	6.375	1.4435296	-0.20671834	-0.30517045
1277140375038	3.336985	7.4639506	-0.7218784	-1.5989017	0.0	-36.5	-38.3125	5.625	1.6394942	-0.08806463	-0.42042324
1277140375078	5.284695	9.697687	-0.46309182	1.247199	0.0	-34.9375	-40.0625	3.125	1.6529988	-0.04190643	-0.49895304
1277140375118	3.1054392	6.0882955	-0.61291564	-2.9446712	0.0	-33.9375	-41.5625	-1.125	1.0979288	-0.08943973	-0.47166884
1277140375159	3.8681788	8.689782	5.5571017	1.2095423	0.0	-33.1875	-42.3125	-4.875	2.6060843	0.52874315	-0.4188059
1277140375198	0.7627395	8.812365	6.0201936	0.8929882	0.0	-32.9375	-42.5625	-8.625	2.1321352	0.59759265	-0.086338155
1277140375238	0.3405087	9.615966	2.7240696	0.19351482	0.0	-32.6875	-42.8125	-10.875	1.6191115	0.27588904	-0.035395976
1277140375278	0.08172209	11.727119	2.5606253	2.19705	0.0	-31.4375	-43.5625	-11.375	1.5138791	0.21497159	-0.0069685285
1277140375318	-4.630918	17.393185	2.6014864	8.379498	0.0	-29.4375	-44.3125	-11.125	1.4221154	0.1435401	0.26021242
1277140375358	-0.9125633	16.630445	2.9556155	7.109028	0.0	-26.1875	-45.8125	-9.125	1.5274606	0.17562789	0.05481808
1277140375398	2.6832085	13.715691	2.2201166	4.3442755	0.0	-21.625	-47.5625	-7.375	1.6278744	0.15753926	-0.19319068
1277140375438	4.399372	10.691973	3.2961242	2.2157125	0.0	-16.375	-49.0625	-6.375	-2.7272706	0.27772248	-0.39035073
1277140375468	7.246025	8.430995	2.070293	1.5014296	0.0	-12.0625	-50.3125	-6.875	-1.6411532	0.18411936	-0.7099552
1277140375498	6.5922484	7.3958488	-0.7627395	0.13005447	0.0	-8.8125	-50.3125	-8.875	-1.1455513	-0.07683539	-0.7280124
1277140375538	6.2789803	8.730643	-1.1849703	1.0124931	0.0	-7.0625	-50.3125	-10.875	-0.9835751	-0.109745495	-0.62348855
1277140375578	-0.46309182	11.413852	-0.46309182	1.6259747	0.0	-8.0625	-50.0625	-11.375	0.6459568	-0.040517252	0.04055055
1277140375618	1.4165162	9.507003	0.95342433	-0.14752865	0.0	-10.0625	-50.0625	-10.375	0.4529624	0.09886814	-0.147909
1277140375648	4.1814466	9.00305	0.53119355	0.1342535	0.0	-14.0625	-49.8125	-7.375	-1.0579201	0.053460598	-0.43480355
1277140375678	-2.3018389	10.528529	7.3549876	3.2411175	0.0	-19.375	-48.8125	-3.625	2.2041605	0.59885484	0.21524194
1277140375708	-4.1814466	7.5456724	3.336985	-0.5569401	0.0	-23.625	-47.5625	-0.875	1.7969985	0.36908954	0.506025
1277140375758	0.3405087	11.727119	2.070293	2.106678	0.0	-27.1875	-46.0625	3.625	1.9962447	0.17466635	-0.02902785
1277140375788	-0.7218784	10.923519	0.6537767	1.1602001	0.0	-28.9375	-44.8125	7.375	1.8727378	0.05964927	0.06598884
1277140375818	0.10896278	7.273266	-2.4925237	-2.1173759	0.0	-29.1875	-44.0625	9.875	1.3945003	-0.3301193	-0.014980152
1277140375858	3.7864566	8.730643	-2.4516625	0.020457268	0.0	-29.4375	-44.0625	11.875	1.4129982	-0.2521428	-0.40921423
1277140375898	0.92618364	7.164303	0.53119355	-2.5632243	0.0	-27.6875	-44.8125	10.625	2.1472392	0.07340047	-0.1285645
1277140375938	-0.5720546	6.4015636	-0.88532263	-3.3188877	0.0	-24.125	-46.8125	7.125	1.6058464	-0.13688749	0.08912497
1277140375968	1.7570249	15.050485	-1.1441092	5.389179	0.0	-18.125	-49.0625	3.125	1.5131073	-0.07536232	-0.116216026
1277140375998	0.5720546	16.467001	3.9499009	7.1371117	0.0	-11.5625	-50.5625	-1.625	2.3807356	0.2352831	-0.03472549
1277140376038	-2.6423476	10.882658	3.9499009	2.0683641	0.0	-7.8125	-51.3125	-6.625	2.029371	0.3390834	0.23819411
1277140376078	-2.7921712	9.234595	2.9147544	0.27153206	0.0	-6.5625	-51.0625	-10.375	1.7426373	0.29340595	0.2936204
1277140376118	-1.879608	8.689782	1.8387469	-0.72776127	0.0	-8.0625	-50.8125	-13.4375	1.3878331	0.20394072	0.2130193
1277140376148	0.50395286	10.18802	5.8976107	1.9760294	0.0	-10.5625	-50.3125	-15.1875	2.5599954	0.52421343	-0.049424957
1277140376188	2.4108016	9.425281	5.325556	1.2843113	0.0	-13.0625	-49.0625	-16.1875	3.0927773	0.5008494	-0.25041157
1277140376228	2.5333846	7.9270425	5.012288	-0.091760635	0.0	-15.875	-47.8125	-16.4375	3.0940645	0.5421032	-0.30932882
1277140376268	4.099725	9.275456	5.829509	1.8905725	0.0	-19.125	-46.0625	-16.4375	-3.035462	0.52171403	-0.41617882
1277140376308	1.4982382	8.349273	3.8681788	-0.48367405	0.0	-22.625	-44.3125	-17.4375	1.8338199	0.42784187	-0.17755564
1277140376348	0.50395286	8.19945	6.0201936	0.37802792	0.0	-25.4375	-42.8125	-18.9375	2.017605	0.63242567	-0.061384577
1277140376378	3.214402	9.112013	8.076866	2.7868767	0.0	-27.9375	-41.3125	-21.1875	2.4325688	0.69625735	-0.3391362
1277140376408	0.7627395	6.2108784	4.944186	-1.8315792	0.0	-29.9375	-39.3125	-23.4375	1.8836784	0.66868556	-0.12219518
1277140376448	-1.7297841	3.8681788	1.1168685	-5.424601	0.0	-30.6875	-37.0	-25.1875	1.1569167	0.25771695	0.42050892
1277140376478	1.920469	5.366417	2.6423476	-3.5242434	0.0	-30.9375	-36.25	-25.4375	1.3196955	0.4341008	-0.34366694
1277140376508	3.8681788	7.0553403	3.336985	-1.0959606	0.0	-29.9375	-36.25	-25.1875	1.0072811	0.39314008	-0.5015083
1277140376538	0.7627395	7.43671	2.7240696	-1.8500819	0.0	-27.6875	-37.5	-24.1875	1.2085934	0.34943542	-0.10220672
1277140376578	0.040861044	6.891896	1.879608	-2.6629243	0.0	-26.4375	-39.8125	-22.1875	1.1769034	0.2662476	-0.0059287846
1277140376618	-2.4108016	8.730643	5.284695	0.6797266	0.0	-24.375	-42.0625	-19.6875	1.5753733	0.52817535	0.26941743
1277140376658	1.9477097	11.141444	8.390134	4.2759523	0.0	-21.875	-44.3125	-17.4375	2.3678458	0.6382365	-0.17306773
1277140376688	3.568531	11.536434	4.944186	3.242055	0.0	-20.125	-45.8125	-15.4375	2.2455115	0.38861	-0.2999916
1277140376718	1.3075534	10.419566	2.5606253	1.0023212	0.0	-17.625	-47.5625	-14.1875	1.3925228	0.23917188	-0.12483762
1277140376758	0.5720546	9.534244	3.405087	0.33355045	0.0	-16.375	-48.8125	-13.6875	1.8465859	0.3424552	-0.059928156
1277140376798	0.38136974	9.697687	4.440233	0.86603737	0.0	-15.625	-49.3125	-11.875	2.2001348	0.42908293	-0.03930559
1277140376828	-0.42223078	8.19945	2.4925237	-1.2263279	0.0	-15.375	-50.3125	-9.875	1.8382902	0.29474202	0.05144957
1277140376868	-0.040861044	9.915613	1.4573772	0.21557522	0.0	-15.625	-50.8125	-7.375	1.576028	0.14593194	0.004120856
1277140376908	1.7978859	8.049625	0.95342433	-1.5037661	0.0	-15.375	-51.0625	-4.125	2.0492625	0.115084365	-0.21974362
1277140376948	0.3405087	9.343558	1.9477097	-0.2561741	0.0	-15.125	-51.0625	-3.125	2.0833917	0.20537929	-0.03642703
1277140376988	-0.8036005	10.691973	3.5276701	1.4808884	0.0	-13.3125	-51.5625	-1.625	2.2631543	0.317853	0.07501819
1277140377038	-1.1168685	9.343558	3.0645783	0.08987045	0.0	-10.3125	-52.0625	-1.125	2.2962327	0.31483775	0.11896905
1277140377078	-2.3426998	8.390134	2.1111538	-0.8434162	0.0	-6.8125	-52.3125	-2.625	1.9774609	0.23776884	0.272286
1277140377108	-3.9771416	8.962189	3.255263	0.5246239	0.0	-3.0	-53.0625	-3.625	2.011966	0.32054964	0.41766018
1277140377148	-3.8273177	8.689782	4.2904096	0.6129608	0.0	0.25	-52.5625	-6.375	2.16102	0.42438775	0.4148745
1277140377188	-4.630918	8.662541	3.5957718	0.6534939	0.0	2.5	-52.0625	-10.125	1.861363	0.35091725	0.4909361
1277140377218	-3.718355	9.084772	3.6774938	0.675869	0.0	3.0	-51.3125	-13.1875	1.8462785	0.35844827	0.38849384
1277140377258	-2.4516625	10.18802	4.2904096	1.5165119	0.0	2.5	-50.3125	-16.1875	1.9549401	0.38861346	0.23615167
1277140377298	-1.525479	7.3958488	7.504812	0.83984566	0.0	0.5	-50.0625	-16.9375	2.7393427	0.78229505	0.20340893
1277140377338	-1.920469	9.466142	3.8681788	0.5981016	0.0	-1.5	-50.3125	-14.9375	1.9334542	0.3809154	0.20016104
1277140377378	-1.920469	9.302697	3.5276701	0.32611084	0.0	-3.25	-51.0625	-10.875	2.0481658	0.3555916	0.20358221
1277140377408	0.23154591	8.049625	2.1792557	-1.4640341	0.0	-5.3125	-52.0625	-4.625	2.7474816	0.26428556	-0.028756876
1277140377448	-0.27240697	10.038197	1.1441092	0.3002081	0.0	-6.5625	-52.5625	0.625	2.2576368	0.11344445	0.027130384
1277140377488	0.08172209	8.771504	-0.3405087	-1.0281591	0.0	-7.5625	-51.8125	4.875	1.9546038	-0.038798712	-0.009316501
1277140377528	-0.19068487	7.6954966	-0.0	-2.1087914	0.0	-8.3125	-51.5625	7.625	2.2426834	-0.0	0.024773693
1277140377568	-1.3075534	10.228881	-0.7218784	0.53069973	0.0	-8.5625	-51.0625	9.625	1.9600892	-0.069888934	0.12714006
1277140377608	-0.46309182	9.697687	-1.6889231	0.047894478	0.0	-8.3125	-50.5625	11.125	1.7887077	-0.1722355	0.04771656
1277140377648	0.38136974	7.164303	-0.42223078	-2.61979	0.0	-8.3125	-50.5625	11.625	2.5640082	-0.05878423	-0.053181745
1277140377678	-0.7218784	7.9679036	0.6537767	-1.7794456	0.0	-9.0625	-49.8125	11.875	2.4340925	0.081535436	0.09035163
1277140377708	-0.42223078	9.466142	0.14982383	-0.3299122	0.0	-10.3125	-49.8125	10.375	2.2984457	0.015810302	0.044574775
1277140377748	0.50395286	12.408136	0.313268	2.6156664	0.0	-12.3125	-50.0625	8.125	2.3117692	0.025220836	-0.040592402
1277140377788	0.6946377	8.771504	0.7218784	-0.9781208	0.0	-14.8125	-50.5625	6.625	2.3582902	0.08185794	-0.07902761
1277140377818	-0.19068487	7.014479	0.8036005	-2.7437148	0.0	-16.375	-51.0625	4.125	2.0774832	0.11402404	0.027177773
1277140377858	-0.27240697	11.114203	1.5390993	1.4169207	0.0	-16.625	-51.0625	2.625	2.0613286	0.13756445	0.0245049
1277140377898	-1.3756552	8.076866	1.334794	-1.5054531	0.0	-16.375	-51.0625	1.625	1.9291162	0.16149646	0.16870156
1277140377938	-2.1383946	7.4639506	1.2258313	-1.9462461	0.0	-14.5625	-51.5625	0.625	1.8380724	0.15658933	0.27902254
1277140377968	-1.525479	10.528529	1.4982382	0.93680096	0.0	-12.3125	-52.0625	-0.125	1.904643	0.13991198	0.14388873
1277140377998	-0.61291564	11.563675	1.7297841	1.9017401	0.0	-10.3125	-52.3125	-0.875	2.0489247	0.14828163	0.052953985
1277140378038	-0.42223078	11.985906	0.95342433	2.2245274	0.0	-7.5625	-52.8125	-1.125	1.8830556	0.07932931	0.03521271
1277140378078	-1.7570249	12.340035	0.84446156	2.6864176	0.0	-5.3125	-53.3125	-1.875	1.6989648	0.06764599	0.14143343
1277140378108	-1.9885708	11.686258	0.38136974	2.0537243	0.0	-4.0	-54.0625	-0.875	1.6335477	0.03216049	0.16854875
1277140378138	-1.3756552	10.61025	0.7627395	0.9195614	0.0	-3.5	-54.8125	-0.625	1.8669878	0.071169935	0.12893416
1277140378178	-0.9125633	9.656827	0.88532263	-0.06648159	0.0	-3.75	-55.0625	-0.375	2.0451832	0.0910196	0.0942195
1277140378218	-0.8036005	9.847511	0.23154591	0.07630825	0.0	-4.5	-54.8125	0.375	1.7528375	0.02343095	0.081424
1277140378258	-0.5720546	9.302697	0.040861044	-0.48629093	0.0	-5.3125	-54.0625	0.625	1.6702422	0.004384077	0.06141608
1277140378288	-0.9125633	8.962189	-0.19068487	-0.7961035	0.0	-5.8125	-54.3125	1.625	1.6145123	-0.021163987	0.10147398
1277140378328	-0.8036005	8.689782	-0.08172209	-1.0794077	0.0	-6.5625	-54.8125	2.125	1.7097236	-0.009364159	0.09221421
1277140378368	-1.0760075	9.275456	0.08172209	-0.4686327	0.0	-7.0625	-55.0625	2.875	1.8162202	0.008751658	0.11548966
1277140378398	-1.1168685	9.997335	0.6537767	0.2741003	0.0	-7.3125	-55.5625	3.625	2.0595899	0.06489953	0.11125531
1277140378438	-1.4573772	10.228881	0.6946377	0.5488539	0.0	-7.5625	-55.3125	4.375	2.0511706	0.06712949	0.1415242
1277140378468	-2.1383946	9.112013	0.8036005	-0.41264725	0.0	-7.8125	-55.0625	5.875	2.04208	0.08564867	0.23050737
1277140378508	-2.4516625	8.539958	0.92618364	-0.8736019	0.0	-8.3125	-55.0625	6.875	2.0514011	0.10386724	0.27956307
1277140378548	-1.9885708	8.962189	0.46309182	-0.6148224	0.0	-8.8125	-55.0625	7.625	2.032963	0.050402157	0.2183471
1277140378588	-1.4573772	9.507003	0.27240697	-0.1847353	0.0	-9.3125	-55.0625	8.125	2.072374	0.02831488	0.152111
1277140378628	-0.9125633	9.615966	0.38136974	-0.13995457	0.0	-9.3125	-54.8125	7.875	2.1755714	0.039462164	0.09461748
1277140378658	-0.38136974	9.425281	0.27240697	-0.36972523	0.0	-9.3125	-54.8125	8.125	2.2701733	0.028870083	0.040440366
1277140378688	-0.14982383	9.384419	-0.08172209	-0.4206791	0.0	-9.3125	-55.0625	8.125	2.2145433	-0.008706943	0.015963811
1277140378718	-0.23154591	9.697687	-0.19068487	-0.104325294	0.0	-9.5625	-55.3125	8.125	2.1451726	-0.019654788	0.02387187
1277140378758	-0.7218784	9.697687	0.27240697	-0.07831764	0.0	-10.3125	-56.0625	8.625	2.1840115	0.028005064	0.07430117
1277140378798	-0.9942854	9.425281	0.88532263	-0.28781033	0.0	-10.5625	-56.5625	8.375	2.2571795	0.093142025	0.105102606
1277140378828	-1.0760075	9.575105	0.6946377	-0.1462698	0.0	-11.0625	-56.8125	8.375	2.188751	0.071967945	0.11190605
1277140378868	-1.4982382	9.765789	0.61291564	0.092391014	0.0	-11.3125	-56.8125	8.375	2.1056838	0.061956294	0.15223008
1277140378908	-1.879608	9.466142	0.92618364	-0.11136341	0.0	-11.5625	-56.8125	8.375	2.111262	0.09567516	0.19601168
1277140378948	-1.920469	9.575105	0.84446156	-0.0044078827	0.0	-12.3125	-56.5625	8.875	2.09502	0.086256765	0.1979426
1277140378978	-1.334794	9.615966	0.7627395	-0.06856823	0.0	-12.0625	-56.5625	9.125	2.165973	0.07840574	0.13792881
1277140379018	-1.0760075	9.507003	0.84446156	-0.20175552	0.0	-11.8125	-56.8125	8.875	2.2175367	0.08803359	0.112700924
1277140379058	-1.1849703	9.656827	0.6946377	-0.05262661	0.0	-11.3125	-57.0625	8.125	2.155782	0.07127584	0.122097656
1277140379098	-1.334794	9.80665	0.95342433	0.13624096	0.0	-10.5625	-57.5625	7.125	2.1690555	0.096037604	0.13527979
1277140379128	-1.2258313	9.507003	1.1849703	-0.14797974	0.0	-10.8125	-57.3125	6.375	2.1996448	0.12299448	0.12823232
1277140379168	-1.3075534	9.697687	1.1168685	0.042321205	0.0	-10.5625	-57.0625	5.375	2.140652	0.11364397	0.13402322
1277140379208	-1.2666923	9.888372	1.1168685	0.22489071	0.0	-10.8125	-56.8125	5.125	2.1293745	0.11156698	0.1274053
1277140379248	-0.95342433	9.615966	1.3075534	-0.055470467	0.0	-10.8125	-56.8125	4.375	2.1944327	0.13449694	0.09882713
1277140379288	-0.5720546	9.534244	1.334794	-0.16244316	0.0	-9.8125	-56.5625	3.625	2.280465	0.13884944	0.059928156
1277140379328	-0.27240697	9.724928	1.2258313	-9.841919E-4	0.0	-9.5625	-56.3125	3.375	2.3197498	0.12534048	0.028003884
1277140379368	-0.08172209	9.656827	1.0760075	-0.089717865	0.0	-8.3125	-55.8125	2.375	2.3416605	0.11096288	0.008462422
1277140379408	-0.08172209	9.534244	1.1441092	-0.2036581	0.0	-7.3125	-55.0625	2.125	2.4095395	0.11942459	0.008571219
1277140379448	-0.10896278	9.343558	1.2258313	-0.38239384	0.0	-6.3125	-54.8125	1.625	2.4691832	0.13044153	0.011661279
1277140379478	0.313268	9.152874	1.3756552	-0.5456753	0.0	-5.0625	-54.8125	0.875	2.8024812	0.149095	-0.034212835
1277140379508	0.46309182	9.193735	0.95342433	-0.5520172	0.0	-3.75	-54.8125	0.625	2.9855945	0.103204414	-0.050327834
1277140379548	0.27240697	9.425281	0.10896278	-0.37680435	0.0	-2.75	-54.5625	-0.375	1.7858753	0.011555354	-0.02889369
1277140379588	-0.46309182	9.888372	-0.29964766	0.097094536	0.0	-2.0	-54.5625	-2.125	0.8788751	-0.030260613	0.04679776
1277140379628	-1.3075534	10.310603	-0.3405087	0.5921087	0.0	-1.25	-54.3125	-3.375	1.0045098	-0.032750987	0.12614302
1277140379658	-2.0294318	10.691973	-0.3405087	1.0815458	0.0	-0.75	-53.8125	-5.375	0.9931355	-0.031278297	0.18757752
1277140379688	-2.8330324	11.495573	-0.5720546	2.0466833	0.0	-0.75	-53.8125	-7.125	0.95484644	-0.04827983	0.24163048
1277140379718	-3.718355	11.182305	-0.7627395	2.002325	0.0	-1.25	-54.3125	-7.875	1.0236726	-0.06463481	0.3210196
1277140379758	-3.445948	8.771504	-0.42223078	-0.37308598	0.0	-1.25	-54.0625	-8.625	1.0926434	-0.04477331	0.3743336
1277140379798	-2.9556155	7.1234417	0.10896278	-2.0936117	0.0	-1.5	-54.3125	-9.125	1.2081403	0.01412756	0.39329678
1277140379828	-2.7513103	7.5865335	0.38136974	-1.7276258	0.0	-1.0	-54.5625	-9.375	1.2286794	0.047222476	0.34790584
1277140379868	-2.6423476	9.043911	0.46309182	-0.37326336	0.0	-0.25	-53.8125	-10.125	1.1116009	0.04911047	0.2842567
1277140379908	-1.6889231	9.384419	0.08172209	-0.2711134	0.0	-0.0	-54.5625	-11.375	0.7247324	0.008570371	0.17806482
1277140379948	-0.8036005	9.043911	0.10896278	-0.7264538	0.0	0.75	-54.5625	-12.375	0.33513075	0.012000334	0.088622674
1277140379978	-0.42223078	9.724928	-0.08172209	-0.07221794	0.0	0.75	-54.0625	-13.4375	0.114377186	-0.008395256	0.043390118
1277140380039	-0.29964766	10.310603	0.42223078	0.5169449	0.0	1.0	-54.3125	-13.9375	0.04936003	0.040911	0.02905391
1277140380079	-0.50395286	9.956474	0.50395286	0.17529964	0.0	1.5	-53.8125	-14.4375	0.10406587	0.05050789	0.050572436
1277140380118	-0.9942854	9.275456	0.42223078	-0.46850395	0.0	2.0	-53.3125	-15.4375	0.2765263	0.04523112	0.10678753
1277140380148	-1.9885708	9.384419	0.53119355	-0.19915771	0.0	3.25	-53.0625	-16.6875	0.51698214	0.05531772	0.2088125
1277140380188	-2.2201166	9.302697	0.84446156	-0.20549393	0.0	4.25	-52.8125	-18.1875	0.54142207	0.088067956	0.23427096
1277140380218	-2.1792557	9.00305	1.1441092	-0.4732132	0.0	4.75	-52.3125	-18.9375	0.55423725	0.12289086	0.23748952
1277140380258	-2.070293	9.112013	1.4982382	-0.34305668	0.0	5.0625	-52.0625	-19.6875	0.5314422	0.1589849	0.22341199
1277140380298	-1.879608	9.234595	2.1111538	-0.14913273	0.0	4.75	-51.8125	-20.6875	0.5689477	0.2203817	0.20079693
1277140380338	-2.6014864	8.730643	2.6832085	-0.30973148	0.0	4.5	-50.8125	-21.4375	1.0073456	0.28643537	0.28959513
1277140380378	-3.6774938	8.158588	3.2961242	-0.2698288	0.0	4.5	-50.3125	-22.6875	1.2890292	0.35290033	0.4234785
1277140380408	-3.255263	8.580819	3.1054392	-0.11794758	0.0	4.25	-50.0625	-23.1875	1.1314385	0.32628018	0.36259207
1277140380448	-2.5333846	9.234595	3.173541	0.28132057	0.0	4.25	-50.0625	-22.6875	0.99065274	0.32002118	0.26774904
1277140380478	-3.3642259	9.765789	3.486809	1.0950232	0.0	4.5	-50.3125	-22.6875	1.1240251	0.32556233	0.33175856
1277140380508	-2.2201166	13.6748295	0.3405087	4.0514107	0.0	4.5	-50.3125	-21.9375	0.17322685	0.024573639	0.16094634
1277140380548	0.84446156	14.437569	-0.7218784	4.6735992	0.0	4.5	-50.5625	-21.4375	-0.30180046	-0.049873292	-0.058424
1277140380588	-0.0	6.2108784	-0.14982383	-3.593965	0.0	5.3125	-50.8125	-20.9375	-0.23532602	-0.024118131	0.0
1277140380628	-1.9477097	7.8589406	-0.5720546	-1.6897688	0.0	6.3125	-50.8125	-20.1875	0.25155622	-0.070535615	0.24293867
1277140380658	-1.2666923	10.378705	-0.88532263	0.6864824	0.0	6.8125	-51.0625	-19.4375	-0.024292242	-0.08447205	0.12144661
1277140380688	0.88532263	11.372991	-0.0	1.6007471	0.0	7.5625	-50.8125	-18.1875	-0.56317407	-0.0	-0.077687636
1277140380728	1.4165162	9.724928	0.53119355	0.03524494	0.0	7.0625	-50.5625	-17.4375	-0.7685339	0.05399893	-0.14464107
1277140380768	-0.6537767	7.082581	1.1168685	-2.6068048	0.0	5.8125	-51.0625	-16.1875	-0.13559964	0.15575294	0.09204685
1277140380808	-0.9125633	8.349273	-1.0351465	-1.3441057	0.0	5.0625	-51.3125	-15.6875	0.024800157	-0.122628056	0.1088664
1277140380838	-1.1441092	10.228881	-0.95342433	0.5300808	0.0	4.0	-51.5625	-15.6875	0.08593403	-0.09236783	0.1113879
1277140380878	-1.6480621	10.310603	0.46309182	0.64510155	0.0	3.5	-51.5625	-15.6875	0.33636296	0.04432209	0.1585007
1277140380918	-1.6889231	10.038197	0.38136974	0.37977695	0.0	2.75	-51.3125	-15.6875	0.39889222	0.03744776	0.16668849
1277140380948	-1.6480621	9.507003	0.88532263	-0.11732578	0.0	2.5	-51.3125	-15.1875	0.5419596	0.09149856	0.17164661
1277140380978	-0.95342433	9.193735	1.9885708	-0.35211658	0.0	2.0	-51.3125	-14.1875	0.81850713	0.21191236	0.10333432
1277140381008	-0.7627395	8.894087	3.486809	-0.22310257	0.0	1.5	-51.0625	-12.375	2.7541797	0.37237942	0.085548736
1277140381048	-1.6480621	8.853226	2.3018389	-0.5118036	0.0	1.5	-51.3125	-11.625	1.7333038	0.2502506	0.1840472
1277140381088	-1.6480621	9.80665	2.070293	0.3507414	0.0	1.5	-50.5625	-10.875	1.5081518	0.2052596	0.16649973
1277140381128	-1.4982382	9.915613	-0.42223078	0.23040009	0.0	1.75	-50.0625	-10.875	0.4175602	-0.042079635	0.14996448
1277140381168	-0.50395286	8.390134	-2.8738933	-0.92365646	0.0	1.75	-49.5625	-12.375	0.044107877	-0.32945517	0.059992857
1277140381198	-0.19068487	9.534244	-1.7570249	-0.109986305	0.0	1.25	-48.0625	-14.4375	-0.01260039	-0.18220541	0.019997332
1277140381238	-1.4573772	15.6634	-1.1441092	5.965954	0.0	0.75	-46.8125	-17.1875	0.1731338	-0.07260152	0.09277637
1277140381278	-5.243834	13.021052	-1.3756552	4.2978888	0.0	0.75	-45.3125	-19.9375	0.5952435	-0.0976881	0.38284874
1277140381318	-4.7943625	7.8180795	1.1168685	-0.56783676	0.0	1.0	-44.3125	-22.1875	0.90862125	0.12118514	0.55009824
1277140381358	-2.1792557	6.742072	1.3756552	-2.5888166	0.0	2.75	-43.3125	-22.9375	0.63590807	0.1917643	0.31263226
1277140381398	0.6946377	6.742072	2.070293	-2.719749	0.0	4.25	-42.8125	-23.1875	-0.7180157	0.29645273	-0.10266805
1277140381438	0.84446156	8.499097	1.3075534	-1.1661959	0.0	5.8125	-42.3125	-24.1875	-0.5147119	0.15191285	-0.09903394
1277140381478	-0.50395286	8.349273	1.6480621	-1.2813683	0.0	7.3125	-41.8125	-23.9375	-0.30220953	0.19453943	0.060285755
1277140381508	-1.56634	7.3549876	3.1463003	-1.655057	0.0	7.8125	-41.8125	-24.4375	0.17247076	0.39626303	0.2098283
1277140381548	-2.7921712	8.076866	3.7864566	-0.45949936	0.0	7.8125	-41.8125	-24.6875	0.84872967	0.4170795	0.3328388
1277140381588	-4.0588636	10.841797	3.1054392	2.179287	0.0	7.8125	-41.5625	-23.9375	0.53203905	0.26208016	0.35821986
1277140381628	-2.982856	11.536434	3.1054392	2.507183	0.0	7.5625	-41.8125	-24.1875	0.24240772	0.25494388	0.2530184
1277140381658	-3.214402	10.691973	4.1814466	2.1153946	0.0	7.5625	-41.5625	-24.1875	0.5373993	0.358353	0.29204103
1277140381688	-1.1849703	14.7916975	0.14982383	5.0331917	0.0	8.0625	-41.5625	-24.1875	-0.19599888	0.010096225	0.079939775
1277140381718	1.3075534	13.947236	-3.445948	4.619356	0.0	8.5625	-42.0625	-23.9375	-0.360223	-0.24120256	-0.09347679
1277140381758	0.53119355	7.9270425	-1.3075534	-1.7549505	0.0	9.3125	-41.8125	-22.9375	-0.3911827	-0.1631171	-0.06691028
1277140381798	-1.6480621	7.9679036	-0.46309182	-1.6569233	0.0	10.3125	-42.5625	-21.4375	-0.061775587	-0.056853607	0.20396145
1277140381828	0.61291564	9.00305	-1.3075534	-0.6885214	0.0	11.3125	-43.0625	-19.4375	-0.51200145	-0.1438976	-0.067973785
1277140381858	3.336985	9.302697	-0.23154591	0.07916069	0.0	11.8125	-43.8125	-17.4375	-0.95576084	-0.023424188	-0.3444145
1277140381898	3.9090397	9.193735	0.38136974	0.19088936	0.0	11.8125	-44.5625	-15.9375	-1.0963501	0.038155615	-0.4020275
1277140381938	-0.42223078	6.851035	1.1441092	-2.847918	0.0	10.8125	-45.0625	-15.4375	-0.80425215	0.16516335	0.061552364
1277140381968	-1.2666923	8.281172	-0.53119355	-1.4123383	0.0	9.5625	-45.8125	-15.9375	-0.13310306	-0.06332249	0.15178406
1277140381998	-2.2609777	10.501288	-0.46309182	0.94525814	0.0	8.3125	-46.0625	-16.4375	0.08489677	-0.04308399	0.21206747
1277140382038	-3.405087	11.073342	0.7627395	1.8034878	0.0	7.0625	-46.0625	-16.9375	0.45508373	0.065743335	0.29832608
1277140382078	-2.4925237	10.419566	0.95342433	0.94923496	0.0	5.8125	-46.3125	-16.1875	0.40305918	0.08875861	0.23480326
1277140382118	-1.3075534	8.730643	2.7240696	-0.56790733	0.0	5.0625	-47.0625	-13.9375	1.8796688	0.29930153	0.14866108
1277140382148	-1.6480621	7.8589406	3.718355	-0.95762634	0.0	4.0	-47.5625	-12.375	2.5485728	0.4336651	0.20671
1277140382178	-3.5276701	9.193735	1.879608	0.21842575	0.0	3.75	-48.5625	-10.625	1.4501976	0.18860687	0.36637938
1277140382208	-3.3642259	10.119919	1.920469	1.0293531	0.0	3.5	-48.5625	-10.125	1.4380825	0.17817158	0.32094282
1277140382248	-1.3075534	8.771504	1.6480621	-0.78638935	0.0	3.25	-48.3125	-10.625	1.1761267	0.18373878	0.14797863
1277140382288	-0.7218784	9.112013	-2.982856	-0.19169712	0.0	2.5	-48.5625	-11.625	0.051351	-0.31543595	0.0790576
1277140382328	-0.08172209	9.765789	-3.0237172	0.41686058	0.0	1.5	-48.0625	-13.9375	-0.039850928	-0.3002522	0.008368006
1277140382368	0.5720546	17.120777	-2.7240696	7.5389194	0.0	1.5	-48.0625	-16.1875	-0.13120733	-0.15769982	-0.03340046
1277140382398	-3.255263	13.947236	-1.7297841	4.6195164	0.0	0.75	-46.8125	-18.9375	0.3873955	-0.12019521	0.22929367
1277140382438	-5.434519	8.662541	0.14982383	0.42057228	0.0	1.5	-45.8125	-21.4375	0.83590525	0.0146500375	0.5602935
1277140382469	-3.7864566	5.597963	1.4165162	-2.9015098	0.0	2.0	-45.0625	-22.6875	1.0252852	0.2066061	0.5947102
1277140382508	-0.7218784	4.440233	1.7978859	-4.962151	0.0	2.5	-44.3125	-23.4375	0.71177065	0.38021386	0.16116661
1277140382548	-0.19068487	6.3607025	2.152015	-3.089056	0.0	4.0	-44.5625	-24.4375	-0.29253045	0.32610425	0.029969612
1277140382588	-0.5720546	9.112013	2.1792557	-0.42021465	0.0	4.75	-44.0625	-24.6875	-0.14317137	0.23430882	0.062697984
1277140382628	-1.7978859	7.9679036	3.2961242	-0.9984541	0.0	5.5625	-43.8125	-25.1875	0.54822	0.38354585	0.2219245
1277140382668	-4.630918	7.668256	5.134871	0.5187769	0.0	5.8125	-43.5625	-25.4375	1.4555899	0.5204879	0.5432878
1277140382698	-3.636633	12.4489975	0.95342433	3.1976433	0.0	5.5625	-43.0625	-25.4375	0.2942726	0.07338196	0.2842142
1277140382728	-2.2201166	14.328606	2.3699405	4.885337	0.0	5.3125	-42.8125	-25.4375	0.07180586	0.16201623	0.1537206
1277140382768	-3.2961242	13.484144	1.0351465	4.1130524	0.0	5.8125	-42.5625	-25.6875	0.19621798	0.07443427	0.23974313
1277140382808	2.152015	14.137921	-4.2086873	5.100564	0.0	6.8125	-43.0625	-25.4375	-0.35062763	-0.2862174	-0.15105629
1277140382838	2.982856	7.3958488	-1.3756552	-1.714158	0.0	8.0625	-43.0625	-24.4375	-0.66047835	-0.17082109	-0.38336077
1277140382868	0.27240697	9.152874	-0.3405087	-0.6433945	0.0	9.0625	-43.8125	-22.9375	-0.39954814	-0.037168786	-0.029753122
1277140382908	0.14982383	9.575105	-0.88532263	-0.1895361	0.0	9.8125	-44.5625	-20.9375	-0.39882958	-0.09218752	-0.01564595
1277140382948	2.6832085	7.668256	-0.19068487	-1.6802664	0.0	9.0625	-45.3125	-19.1875	-0.863251	-0.023467064	-0.3365957
1277140382978	3.9499009	8.158588	-0.27240697	-0.7381067	0.0	7.5625	-46.3125	-17.6875	-0.96153295	-0.030043187	-0.45087948
1277140383008	1.8387469	8.430995	1.3756552	-1.06851	0.0	6.0625	-46.8125	-17.1875	-1.0104071	0.15808879	-0.21473128
1277140383038	-1.334794	8.471856	2.2609777	-0.9372616	0.0	4.25	-48.0625	-16.4375	0.73605376	0.25776416	0.15627162
1277140383078	-4.2495484	10.038197	1.0351465	1.143034	0.0	2.75	-48.0625	-16.1875	0.9402093	0.09467803	0.40046194
1277140383118	-4.4810944	10.419566	-0.27240697	1.5389118	0.0	2.25	-48.3125	-15.4375	0.8003124	-0.024012309	0.40615323
1277140383161	-2.3426998	9.507003	1.3075534	0.071660995	0.0	1.0	-48.5625	-13.4375	0.98621565	0.1327557	0.24160485
1277140383198	-1.7570249	7.9679036	3.8273177	-0.7942705	0.0	-0.25	-48.5625	-11.875	2.2897136	0.43860108	0.2170394
1277140383228	-3.9090397	9.425281	2.2201166	0.63583183	0.0	-0.25	-48.8125	-10.375	1.5405815	0.21423943	0.39314824
1277140383258	-4.3312707	9.888372	1.334794	1.0709181	0.0	-1.0	-48.8125	-9.625	1.3727043	0.12302077	0.4128439
1277140383288	-1.2258313	7.8589406	2.5333846	-1.4589767	0.0	-0.75	-48.5625	-9.375	2.168035	0.3083469	0.15473239
1277140383328	-1.3756552	7.7363577	-1.0760075	-1.875607	0.0	-0.75	-48.0625	-9.625	0.52128327	-0.13609006	0.17597754
1277140383368	-1.879608	11.073342	-5.597963	2.742813	0.0	-1.5	-47.0625	-10.625	0.30137375	-0.46237156	0.1681391
1277140383398	-0.50395286	17.502148	-3.405087	8.030775	0.0	-2.0	-46.0625	-13.1875	0.1518785	-0.1920745	0.02878582
1277140383438	-0.50395286	15.745122	-0.84446156	5.9691525	0.0	-2.75	-45.5625	-15.9375	0.22535457	-0.053554505	0.031995997
1277140383468	-3.214402	8.812365	-0.7218784	-0.3986082	0.0	-2.5	-44.3125	-17.9375	0.69537026	-0.07680542	0.34976345
1277140383498	-3.9771416	6.2789803	0.50395286	-2.3570046	0.0	-1.75	-43.8125	-19.1875	0.9803467	0.0676996	0.564621
1277140383538	-1.6889231	3.8273177	1.4573772	-5.3766646	0.0	-0.5	-43.5625	-19.4375	1.2845722	0.33522338	0.4155797
1277140383578	0.42223078	4.9850473	1.56634	-4.564285	0.0	1.0	-42.8125	-19.6875	-0.6497174	0.3034192	-0.08449777
1277140383618	0.10896278	8.662541	1.334794	-1.0411968	0.0	1.25	-42.3125	-20.4375	-0.12880711	0.1528737	-0.012577953
1277140383658	-0.95342433	8.921328	3.173541	-0.28979778	0.0	1.5	-42.3125	-20.6875	0.5061838	0.33997703	0.10646614
1277140383688	-4.4810944	9.00305	4.7943625	1.3343115	0.0	1.0	-42.5625	-20.6875	1.455929	0.44486552	0.46183053
1277140383718	-5.175732	11.34575	2.6423476	2.940751	0.0	0.5	-42.8125	-20.6875	0.96001256	0.20879906	0.42798337
1277140383758	-2.1111538	14.2877445	0.92618364	4.6658907	0.0	-0.0	-43.0625	-20.1875	0.34674427	0.064039685	0.1466983
1277140383798	-0.38136974	16.86199	-0.23154591	7.061241	0.0	-0.0	-43.0625	-20.6875	0.045732204	-0.013727453	0.02261327
1277140383838	2.6014864	8.158588	-3.2961242	-0.63088226	0.0	0.75	-42.8125	-19.4375	-0.39716873	-0.36743253	-0.30867285
1277140383868	0.5720546	6.0882955	-1.1849703	-3.5777864	0.0	2.0	-43.5625	-18.1875	-0.22862218	-0.19140516	-0.09368469
1277140383908	-1.920469	9.915613	-1.1168685	0.35479546	0.0	4.0	-44.5625	-17.1875	0.20400771	-0.110134885	0.1913126
1277140383948	0.3405087	10.923519	-0.6537767	1.1417122	0.0	4.5	-45.3125	-14.9375	-0.32382557	-0.05975011	-0.03116198
1277140383988	2.5333846	8.499097	0.3405087	-0.9314804	0.0	3.75	-46.5625	-13.6875	-0.9529447	0.038375862	-0.28969157
1277140384028	1.607201	6.2789803	0.8036005	-3.2756114	0.0	2.5	-47.0625	-12.6875	-1.1064972	0.123355895	-0.2505851
1277140384058	-0.53119355	7.3958488	0.14982383	-2.3902369	0.0	0.75	-48.0625	-11.375	0.25348932	0.02020303	0.07170008
1277140384098	-2.2609777	10.732834	0.040861044	1.1618233	0.0	-0.25	-48.8125	-10.625	0.7786258	0.0037253262	0.20762414
1277140384138	-3.8273177	11.727119	1.1849703	2.5860033	0.0	-1.0	-49.3125	-9.875	1.2512553	0.09576508	0.31546572
1277140384168	-3.0645783	9.80665	1.4982382	0.5763531	0.0	-1.75	-49.8125	-8.125	1.4950305	0.1448027	0.30288488
1277140384198	-1.9885708	8.580819	2.4516625	-0.6635914	0.0	-2.75	-49.8125	-6.625	2.0053577	0.27146664	0.22772606
1277140384238	-1.9477097	7.8180795	2.9556155	-1.2245989	0.0	-3.5	-50.0625	-4.875	2.2240546	0.3515943	0.24415866
1277140384278	-4.440233	10.923519	1.4982382	2.07963	0.0	-3.5	-50.0625	-3.875	1.6536849	0.12638387	0.3860833
1277140384318	-2.2201166	9.507003	1.56634	0.08099079	0.0	-3.5	-50.0625	-3.875	1.6536849	0.12638387	0.3860833
1277140384358	-0.6946377	8.076866	-2.1792557	-1.4121618	0.0	-3.75	-50.3125	-4.375	0.43862107	-0.26261374	0.08579226
1277140384398	-0.50395286	7.43671	-3.3642259	-1.6288366	0.0	-4.5	-50.3125	-5.875	0.2959643	-0.42397255	0.06766212
1277140384438	1.1168685	13.021052	-2.7513103	3.5486822	0.0	-5.5625	-50.0625	-8.125	0.06885957	-0.20749408	-0.08556463
1277140384468	-2.1383946	16.88923	-1.334794	7.269665	0.0	-6.3125	-49.8125	-10.875	0.707392	-0.07824621	0.12594278
1277140384508	-5.012288	10.732834	-0.7627395	2.0634184	0.0	-6.3125	-49.3125	-13.1875	1.0329154	-0.06430168	0.43690503
1277140384548	-3.9771416	5.9793324	2.070293	-2.3329506	0.0	-5.8125	-49.3125	-14.9375	1.4509743	0.28068143	0.5869506
1277140384588	-0.9125633	4.7943625	2.8330324	-4.163534	0.0	-4.25	-49.3125	-15.9375	2.2186143	0.5259483	0.18809097
1277140384628	-0.50395286	6.6331096	2.982856	-2.5162768	0.0	-3.5	-49.8125	-15.9375	2.2337089	0.4215223	0.07582967
1277140384668	-2.0294318	9.152874	1.6889231	-0.2805729	0.0	-2.25	-50.5625	-17.1875	1.0102301	0.17823693	0.2181962
1277140384708	-2.8330324	8.499097	2.7649305	-0.43085384	0.0	-1.5	-50.5625	-17.6875	1.4060395	0.29935178	0.32175055
1277140384748	-4.903325	9.343558	4.2495484	1.5689087	0.0	-1.75	-50.8125	-17.9375	1.5654479	0.38285288	0.48327556
1277140384788	-3.1054392	14.369467	1.3756552	4.9587746	0.0	-2.25	-51.0625	-18.9375	0.7390248	0.09330264	0.21284045
1277140384828	-3.173541	13.102775	3.3778462	4.091692	0.0	-2.5	-50.5625	-18.6875	1.1550772	0.24549808	0.23762764
1277140384858	-1.6480621	12.489859	-1.4165162	2.8708572	0.0	-2.25	-51.0625	-18.1875	0.3596633	-0.1119684	0.13119411
1277140384898	1.9477097	9.425281	-3.8681788	0.56602	0.0	-1.5	-51.3125	-17.6875	-0.24762315	-0.38215432	-0.20377903
1277140384938	2.152015	7.3141265	-0.7627395	-2.1444454	0.0	0.25	-51.5625	-16.4375	-0.6076581	-0.09971083	-0.28615227
1277140384968	-1.1441092	9.234595	-0.84446156	-0.463212	0.0	1.25	-52.0625	-14.6875	0.26114213	-0.09050368	0.12326568
1277140384998	-0.84446156	9.425281	0.14982383	-0.34242916	0.0	1.75	-52.5625	-13.6875	0.22540377	0.015831212	0.08935679
1277140385038	1.3756552	8.539958	0.46309182	-1.1442156	0.0	1.25	-53.5625	-12.375	-0.7963569	0.053485274	-0.15971255
1277140385078	1.9885708	8.19945	0.53119355	-1.3528013	0.0	-0.0	-53.3125	-10.875	-1.0269427	0.06287594	-0.237931
1277140385118	-1.0760075	7.3141265	1.2666923	-2.3060675	0.0	-1.5	-53.5625	-10.125	1.4563006	0.16969241	0.14606588
1277140385158	-2.4925237	8.962189	-0.46309182	-0.49279213	0.0	-2.75	-53.0625	-9.125	0.9675987	-0.049741235	0.27126038
1277140385188	-2.8738933	10.528529	-0.040861044	1.1071424	0.0	-4.0	-52.8125	-8.375	1.1217161	-0.0037439908	0.26647094
1277140385218	-2.9147544	9.534244	1.5390993	0.28128433	0.0	-4.5	-53.3125	-7.375	1.5853277	0.1531665	0.29669097
1277140385258	-2.4516625	9.425281	1.9885708	0.13321781	0.0	-5.0625	-53.8125	-6.125	1.792756	0.20141925	0.25447634
1277140385298	-2.6423476	9.997335	2.2201166	0.7696266	0.0	-5.5625	-54.5625	-4.875	1.8723089	0.21148778	0.25839642
1277140385338	-4.5900574	11.223166	0.6946377	2.338745	0.0	-5.3125	-54.8125	-3.125	1.5578121	0.057224732	0.3882242
1277140385378	-3.0645783	9.888372	2.7240696	0.8981199	0.0	-5.5625	-55.0625	-2.125	2.0382574	0.2573022	0.30053028
1277140385418	-0.5720546	7.504812	1.0760075	-2.2035427	0.0	-5.5625	-55.0625	-1.625	2.1308286	0.14199878	0.07607793
1277140385448	-0.27240697	8.158588	-2.6423476	-1.226512	0.0	-6.0625	-54.8125	-2.375	0.39225233	-0.31304908	0.033376582
1277140385478	-0.42223078	10.56939	-4.140586	1.5526962	0.0	-6.5625	-54.0625	-5.375	0.34047803	-0.37310565	0.03992722
1277140385508	0.38136974	16.930092	-3.636633	7.513817	0.0	-7.0625	-54.0625	-8.875	0.28346017	-0.21153568	-0.022522338
1277140385548	-0.9125633	14.7916975	-1.2258313	5.0637817	0.0	-7.0625	-53.3125	-12.125	0.5612416	-0.08252779	0.061616197
1277140385588	-3.7864566	7.5865335	0.50395286	-1.3127279	0.0	-6.5625	-52.8125	-14.6875	1.1830137	0.05936586	0.46292922
1277140385628	-3.1054392	4.9850473	1.5390993	-3.7351365	0.0	-5.8125	-53.0625	-15.4375	1.4413244	0.25629172	0.5571244
1277140385658	-0.84446156	4.903325	0.84446156	-4.759985	0.0	-4.0	-52.3125	-16.1875	1.0446047	0.16812147	0.17054917
1277140385689	-0.23154591	7.504812	1.1168685	-2.2156549	0.0	-2.75	-52.5625	-17.4375	0.42989796	0.14766677	0.03084321
1277140385728	0.14982383	9.997335	2.1792557	0.4265461	0.0	-1.25	-52.5625	-18.6875	0.065355584	0.21460289	-0.014985255
1277140385768	-2.070293	9.302697	4.3312707	0.6616926	0.0	-0.5	-52.3125	-19.6875	1.8312874	0.42656872	0.21897899
1277140385808	-5.7886477	9.765789	4.903325	2.5595007	0.0	-0.75	-52.5625	-19.6875	1.559988	0.40771407	0.53506976
1277140385848	-3.1463003	11.536434	2.3699405	2.3837204	0.0	-1.0	-52.0625	-19.1875	1.0149915	0.19565682	0.26625204
1277140385878	-2.7240696	11.264028	1.1441092	1.8384285	0.0	-1.75	-52.0625	-18.6875	0.79529095	0.09840706	0.23728213
1277140385918	0.19068487	15.745122	-2.5606253	6.146469	0.0	-1.75	-52.3125	-18.1875	0.042340074	-0.1612067	-0.012110135
1277140385948	3.0645783	8.921328	-3.445948	0.23607254	0.0	-0.5	-52.3125	-17.4375	-0.45925355	-0.35024595	-0.33088273
1277140385978	1.1441092	5.8976107	-0.29964766	-3.7916198	0.0	0.75	-53.3125	-16.6875	-0.51442695	-0.04983711	-0.19161528
1277140386008	-2.1111538	10.147159	-0.14982383	0.55888176	0.0	2.25	-54.0625	-15.4375	0.49786097	-0.0144545445	0.20512737
1277140386048	-1.1168685	9.956474	-0.46309182	0.22296715	0.0	3.25	-54.3125	-14.1875	0.16774847	-0.046188854	0.11170811
1277140386078	1.0351465	8.008764	0.53119355	-1.7138138	0.0	3.0	-55.0625	-13.1875	-0.8074746	0.06568472	-0.12853907
1277140386118	1.6889231	7.4639506	-0.10896278	-2.1532264	0.0	1.75	-55.0625	-11.125	-0.86201155	-0.01423761	-0.22252993
1277140386158	-0.14982383	6.4015636	0.313268	-3.3956752	0.0	0.5	-55.3125	-9.875	0.110479556	0.0488838	0.023399984
1277140386188	-0.95342433	8.349273	-0.7627395	-1.3685732	0.0	-1.0	-56.0625	-8.625	0.49526834	-0.09051613	0.113699995
1277140386218	-1.4165162	11.413852	-0.6537767	1.7133312	0.0	-2.5	-56.0625	-7.875	0.706271	-0.05678205	0.123473674
1277140386258	-2.9147544	10.760075	1.4982382	1.4414482	0.0	-3.0	-56.5625	-7.875	1.5347744	0.1335963	0.2645375
1277140386298	-1.7297841	9.765789	3.0237172	0.5618439	0.0	-3.25	-56.8125	-6.625	2.2133188	0.29592577	0.17530863
1277140386338	-1.6480621	8.853226	3.568531	-0.120054245	0.0	-3.5	-56.8125	-5.375	2.4077263	0.37728617	0.1840472
1277140386378	-5.47538	9.765789	1.2258313	1.4562569	0.0	-3.25	-57.3125	-4.125	1.6086049	0.10905395	0.51099783
1277140386408	-3.9499009	8.240311	2.1792557	-0.4123125	0.0	-3.25	-57.0625	-3.125	1.871941	0.23410805	0.44698247
1277140386448	-1.607201	8.921328	-0.95342433	-0.69170666	0.0	-4.0	-57.0625	-3.625	0.9810241	-0.10479182	0.1782408
1277140386478	-0.040861044	9.915613	-4.0180025	0.8921995	0.0	-5.0625	-57.0625	-6.125	0.19305791	-0.38499516	0.004120856
1277140386508	0.88532263	13.906375	-4.2904096	4.773428	0.0	-5.8125	-56.5625	-9.375	0.08573738	-0.29868656	-0.06357728
1277140386548	0.84446156	18.155924	-1.9477097	8.472963	0.0	-6.3125	-56.0625	-13.4375	0.18889199	-0.106753565	-0.04647813
1277140386588	-3.718355	9.534244	-0.50395286	0.4394188	0.0	-6.0625	-55.3125	-17.4375	0.9141672	-0.049204845	0.37185606
1277140386628	-4.7535014	5.6660647	1.1849703	-2.3163753	0.0	-4.75	-55.0625	-19.6875	1.2435325	0.15886861	0.69803935
1277140386668	-0.88532263	4.5219555	1.2258313	-5.038575	0.0	-3.5	-54.8125	-21.1875	1.1165963	0.26001126	0.1933376
1277140386698	1.3075534	5.706926	1.6889231	-3.7131157	0.0	-1.5	-54.8125	-22.4375	-1.0175425	0.28084373	-0.22522953
1277140386728	0.6946377	8.281172	1.7978859	-1.3041382	0.0	0.25	-54.5625	-23.4375	-0.39879206	0.21306184	-0.08368567
1277140386768	-0.53119355	8.771504	2.6014864	-0.6420889	0.0	1.25	-54.0625	-24.1875	0.25180772	0.2878212	0.060485136
1277140386808	-3.9771416	9.343558	4.2495484	1.2014561	0.0	1.75	-53.8125	-24.6875	1.3981192	0.39633292	0.40242615
1277140386848	-4.2086873	12.067628	2.3426998	3.1867685	0.0	1.25	-54.0625	-24.9375	0.8284149	0.18129037	0.33556834
1277140386878	-1.607201	13.021052	3.214402	3.7012472	0.0	0.75	-54.3125	-24.9375	0.47920612	0.24026975	0.1228098
1277140386918	-2.2201166	12.53072	0.88532263	2.9499817	0.0	1.0	-54.0625	-25.4375	0.3716865	0.06945681	0.1753542
1277140386958	1.4165162	13.6748295	-4.4810944	4.6532145	0.0	1.5	-54.0625	-25.6875	-0.17041564	-0.31508654	-0.10321753
1277140386988	2.1111538	7.082581	-1.334794	-2.2965508	0.0	2.75	-53.8125	-24.9375	-0.49239257	-0.1786825	-0.28969157
1277140387028	-0.9125633	9.343558	0.313268	-0.41340828	0.0	4.0	-54.3125	-23.9375	0.058661103	0.033356547	0.09735886
1277140387058	-0.42223078	8.62168	-0.5720546	-1.1557026	0.0	4.75	-54.8125	-22.1875	-0.07987726	-0.06617453	0.048934046
1277140387088	1.4573772	8.008764	0.61291564	-1.643323	0.0	4.75	-55.3125	-20.4375	-0.7278609	0.075152315	-0.18000317
1277140387128	2.4925237	8.853226	-0.08172209	-0.608881	0.0	4.25	-55.5625	-19.1875	-0.7724312	-0.008885108	-0.27443475
1277140387168	0.61291564	7.8180795	0.19068487	-1.9622641	0.0	2.75	-55.5625	-18.1875	-0.39818582	0.024310846	-0.07823719
1277140387198	-1.4982382	7.5456724	-0.040861044	-2.113565	0.0	0.75	-55.3125	-17.1875	0.52131295	-0.0053114244	0.19600667
1277140387228	-1.607201	9.384419	-0.5720546	-0.2684288	0.0	-0.75	-55.3125	-16.6875	0.46831343	-0.060010992	0.16961713
1277140387268	-3.0237172	10.269742	1.2258313	0.96893024	0.0	-2.25	-55.0625	-15.6875	1.0719332	0.11400693	0.28633863
1277140387308	-3.0645783	9.302697	3.1463003	0.4807701	0.0	-2.75	-55.3125	-13.4375	1.7208058	0.31082016	0.31823254
1277140387348	-2.7513103	9.343558	2.152015	0.16846657	0.0	-2.75	-55.8125	-12.375	1.5327443	0.21744789	0.28636712
1277140387388	-4.8216033	8.853226	0.92618364	0.31685162	0.0	-3.5	-55.8125	-11.125	1.3479024	0.09161658	0.49869978
1277140387428	-1.7978859	7.205164	2.3699405	-2.0115619	0.0	-4.0	-56.0625	-10.625	1.9080966	0.30892006	0.24453382
1277140387458	-0.46309182	10.038197	-0.9942854	0.2912922	0.0	-5.3125	-55.0625	-11.875	0.4276879	-0.09862396	0.04610028
1277140387488	0.19068487	13.756551	-4.944186	4.8126535	0.0	-7.0625	-53.8125	-13.6875	0.20028916	-0.344999	-0.0138604995
1277140387518	0.61291564	18.578154	-4.8216033	9.3967705	0.0	-8.0625	-51.8125	-16.6875	0.21396726	-0.2537963	-0.03297924
1277140387558	-1.9885708	14.9006605	-1.7978859	5.333246	0.0	-9.3125	-49.5625	-19.9375	0.5546217	-0.11903242	0.13267128
1277140387598	-6.0474343	8.049625	0.38136974	0.26873398	0.0	-9.5625	-48.0625	-22.4375	1.0450859	0.037860677	0.64431274
1277140387638	-2.7513103	4.0588636	1.920469	-4.540505	0.0	-8.5625	-47.5625	-23.4375	1.3043602	0.3732914	0.59570664
1277140387678	0.46309182	3.759216	1.879608	-5.5782833	0.0	-7.5625	-47.5625	-23.6875	1.6748534	0.46064213	-0.12257087
1277140387708	0.7218784	7.3958488	1.3075534	-2.2614942	0.0	-6.0625	-47.8125	-23.9375	0.090977296	0.17417642	-0.09729768
1277140387748	-0.6537767	9.534244	2.1792557	-0.0046920776	0.0	-4.75	-47.8125	-24.6875	0.5343002	0.22420222	0.06846426
1277140387788	-3.0645783	8.730643	4.2904096	0.3925352	0.0	-4.25	-47.0625	-24.9375	1.34335	0.4341749	0.3375779
1277140387828	-4.9850473	9.302697	3.3778462	1.2748985	0.0	-4.0	-46.8125	-25.1875	1.1334082	0.3097464	0.49193108
1277140387868	-1.6889231	13.0619135	0.8036005	3.3884935	0.0	-4.25	-46.0625	-24.9375	0.42875892	0.060938943	0.12858792
1277140387908	-0.29964766	16.017529	-0.7627395	6.231827	0.0	-4.0	-45.5625	-23.9375	0.18396816	-0.047574796	0.018705303
1277140387948	3.1054392	12.762266	-3.6774938	3.8331137	0.0	-3.75	-45.8125	-23.1875	-0.2050029	-0.2729939	-0.238691
1277140387988	1.8387469	6.1700177	-1.4165162	-3.2144861	0.0	-3.0	-45.8125	-21.9375	-0.3177232	-0.21656771	-0.28963307
1277140388018	-2.070293	10.95076	-0.7218784	1.3614454	0.0	-1.5	-46.5625	-20.4375	0.40934476	-0.06468265	0.18684946
1277140388058	0.23154591	10.228881	0.53119355	0.43863106	0.0	-1.25	-47.3125	-18.9375	0.010873542	0.05187089	-0.02263262
1277140388098	2.1792557	8.349273	1.7297841	-1.0059881	0.0	-1.0	-47.8125	-17.4375	-0.9493072	0.19783966	-0.25531524
1277140388138	0.7218784	7.164303	0.7218784	-2.5699763	0.0	-1.75	-48.3125	-16.1875	-0.26806712	0.09991896	-0.10042152
1277140388168	-1.4982382	7.668256	-0.10896278	-1.9926414	0.0	-4.0	-48.8125	-15.1875	0.6978243	-0.013944995	0.19295114
1277140388208	-1.8387469	10.228881	-0.27240697	0.58975315	0.0	-5.5625	-48.5625	-14.6875	0.72401255	-0.026205039	0.17786077
1277140388238	-2.4108016	9.956474	1.920469	0.6159954	0.0	-7.5625	-49.0625	-13.6875	1.3123807	0.18531819	0.23756184
1277140388268	-2.9556155	10.18802	2.152015	1.0175161	0.0	-8.8125	-48.8125	-12.6875	1.4089701	0.20014942	0.28235608
1277140388308	-2.3426998	11.114203	2.4925237	1.8220406	0.0	-9.5625	-48.5625	-11.125	1.5138726	0.21601874	0.20774326
1277140388348	-2.4925237	9.534244	3.636633	0.69761467	0.0	-10.3125	-49.0625	-9.125	1.8726196	0.3535233	0.2557057
1277140388378	-2.9556155	10.419566	1.56634	1.1366787	0.0	-10.0625	-48.8125	-8.125	1.4964619	0.14362521	0.27639952
1277140388408	-2.4516625	9.384419	0.50395286	-0.09418678	0.0	-10.0625	-49.0625	-7.375	1.3471975	0.051910542	0.25553685
1277140388448	-1.9885708	8.240311	-1.525479	-1.1936235	0.0	-10.0625	-49.5625	-6.875	0.96335393	-0.17805229	0.2367949
1277140388478	-1.1441092	8.19945	-2.7240696	-1.0911179	0.0	-10.3125	-49.8125	-7.375	0.6611019	-0.31787995	0.13863975
1277140388508	-1.9477097	9.915613	-2.3426998	0.56644917	0.0	-10.5625	-49.5625	-8.625	0.81091875	-0.22780909	0.19395915
1277140388548	-1.0351465	15.023244	0.5720546	5.263076	0.0	-10.5625	-50.0625	-10.375	1.024512	0.037969645	0.06879426
1277140388588	0.50395286	14.056199	-1.7570249	4.367899	0.0	-10.0625	-49.3125	-12.9375	0.41155222	-0.12427597	-0.035837363
1277140388628	0.23154591	8.349273	-1.607201	-1.3009424	0.0	-8.5625	-48.5625	-14.9375	0.29326877	-0.19009846	-0.02772536
1277140388668	-0.9942854	5.7886477	1.1441092	-3.822836	0.0	-8.0625	-48.5625	-16.4375	1.1495454	0.19238524	0.17010479
1277140388698	-0.8036005	4.630918	1.9477097	-4.7189445	0.0	-6.8125	-48.0625	-17.1875	1.6910878	0.39285418	0.17181842
1277140388728	-0.08172209	4.903325	1.5390993	-4.6667957	0.0	-5.5625	-48.3125	-18.1875	1.1413343	0.30411002	0.016665125
1277140388768	0.10896278	6.8237944	0.6537767	-2.9507427	0.0	-5.0625	-48.3125	-19.1875	0.2879529	0.09550474	-0.015966706
1277140388808	0.10896278	9.152874	1.4982382	-0.53132343	0.0	-3.75	-47.8125	-19.6875	0.26544788	0.16224024	-0.0119042
1277140388848	-2.1792557	10.147159	3.445948	1.1290045	0.0	-3.5	-47.0625	-20.1875	1.218479	0.32057387	0.21155164
1277140388878	-4.944186	11.073342	3.405087	2.789322	0.0	-3.75	-46.0625	-19.6875	1.225076	0.27373725	0.4199349
1277140388918	-3.568531	10.528529	1.2666923	1.3821325	0.0	-4.25	-45.8125	-19.6875	0.9019889	0.11345415	0.32678732
1277140388958	-1.9477097	10.528529	2.4925237	1.1868105	0.0	-4.75	-45.5625	-19.6875	0.9527771	0.22871673	0.1829255
1277140388988	0.040861044	14.818938	-1.6480621	5.1037054	0.0	-4.5	-46.0625	-19.6875	0.17550911	-0.110757686	-0.002757346
1277140389018	2.3699405	14.206022	-5.012288	5.4429636	0.0	-3.75	-46.3125	-19.6875	-0.11547978	-0.3349087	-0.16530415
1277140389058	1.1168685	8.894087	-1.4982382	-0.7183666	0.0	-2.0	-46.5625	-18.6875	-0.14527844	-0.16560979	-0.1249204
1277140389088	-1.3075534	9.343558	-0.42223078	-0.36260223	0.0	-0.5	-47.5625	-17.4375	0.34821364	-0.044723574	0.13903876
1277140389128	0.92618364	7.7363577	0.040861044	-2.0149422	0.0	1.0	-48.0625	-15.9375	-0.40396506	0.005244195	-0.11915122
1277140389168	3.214402	8.812365	0.14982383	-0.42514706	0.0	1.25	-48.8125	-14.6875	-0.90846694	0.01597081	-0.34976345
1277140389198	2.3018389	8.499097	-0.95342433	-0.94989395	0.0	0.25	-49.3125	-13.4375	-0.61791754	-0.10785839	-0.2644884
1277140389228	-0.19068487	8.19945	-0.46309182	-1.5919199	0.0	-1.25	-49.3125	-12.6875	0.15391563	-0.056403246	0.023251623
1277140389268	-2.5606253	9.847511	-0.3405087	0.37402916	0.0	-3.0	-49.3125	-11.625	0.85977536	-0.0334528	0.25439397
1277140389308	-4.862464	9.724928	2.9147544	1.4500628	0.0	-4.0	-49.8125	-10.125	1.6207888	0.2619192	0.4636476
1277140389348	-4.5219555	7.43671	2.7649305	-0.6744232	0.0	-5.0625	-50.0625	-8.625	1.6997732	0.30759385	0.5463239
1277140389378	-3.759216	7.6954966	0.92618364	-1.1921167	0.0	-5.5625	-50.5625	-7.125	1.4805108	0.1077223	0.4544018
1277140389408	-2.7240696	7.3958488	0.7627395	-1.8882599	0.0	-6.3125	-50.5625	-6.625	1.4756085	0.096474655	0.35290504
1277140389448	0.23154591	7.3549876	1.3075534	-2.3327522	0.0	-6.3125	-50.8125	-6.125	2.1210098	0.1758543	-0.031471085
1277140389478	0.50395286	11.141444	0.38136974	1.352704	0.0	-6.0625	-50.8125	-8.125	0.53284323	0.03418155	-0.04520146
1277140389508	0.7218784	17.2025	-4.440233	7.9743176	0.0	-6.3125	-50.3125	-11.375	0.17577478	-0.25238934	-0.04193897
1277140389548	-1.2258313	17.011814	-3.486809	7.6020355	0.0	-6.5625	-49.8125	-13.9375	0.4066556	-0.20165527	0.07193332
1277140389588	-5.284695	9.615966	0.08172209	1.16611	0.0	-7.0625	-49.0625	-16.9375	1.0617588	0.0074477927	0.5025169
1277140389618	-6.0474343	6.0882955	0.61291564	-1.2034845	0.0	-6.8125	-48.5625	-18.1875	1.1813581	0.071303435	0.7820312
1277140389648	-2.4108016	2.6832085	2.3426998	-5.5055094	0.0	-6.3125	-48.0625	-18.1875	1.6229511	0.57599485	0.7319731
1277140389688	0.23154591	3.336985	2.5606253	-5.5940638	0.0	-5.3125	-48.0625	-17.9375	3.0118914	0.6533515	-0.06927672
1277140389718	-0.27240697	6.973618	2.5333846	-2.382124	0.0	-5.0625	-48.5625	-18.9375	1.3845205	0.34821275	0.03904265
1277140389758	-2.0294318	10.038197	4.630918	1.4329844	0.0	-5.0625	-48.5625	-18.6875	1.718549	0.42466635	0.19948216
1277140389808	-3.636633	9.534244	3.486809	0.9768896	0.0	-5.0625	-48.5625	-18.4375	1.419535	0.32926276	0.36439475
1277140389848	-1.1849703	14.369467	-2.6423476	4.851717	0.0	-5.0625	-48.8125	-18.9375	0.32009834	-0.18125287	0.08227829
1277140389878	1.8387469	19.19107	-2.5333846	9.638046	0.0	-4.75	-48.5625	-18.1875	0.0039629936	-0.1306581	-0.09552105
1277140389918	1.4165162	8.62168	-0.27240697	-1.065135	0.0	-4.0	-49.3125	-18.1875	-0.20249084	-0.031167489	-0.16284218
1277140389958	-3.214402	5.47538	-0.88532263	-3.396037	0.0	-2.0	-50.3125	-16.9375	0.87684655	-0.13854544	0.53085387
1277140389988	-1.9477097	8.008764	-2.6014864	-1.163641	0.0	-1.0	-50.8125	-15.9375	0.40846425	-0.30573392	0.2385659
1277140390018	1.7978859	10.651112	-2.070293	1.1917439	0.0	0.5	-51.8125	-14.1875	-0.36957362	-0.18936566	-0.16722164
1277140390058	4.399372	9.847511	0.8036005	1.0087891	0.0	0.75	-52.0625	-11.625	-1.2174995	0.07436977	-0.42014766
1277140390088	1.3756552	6.5513873	2.0294318	-2.8115306	0.0	-0.25	-52.0625	-10.625	-1.9876381	0.2943534	-0.20697229
1277140390118	-1.3075534	4.630918	1.6480621	-4.7202754	0.0	-0.75	-52.3125	-9.375	2.029542	0.32997045	0.27518928
1277140390148	-2.1111538	7.164303	-0.040861044	-2.3376555	0.0	-2.25	-52.0625	-8.625	1.0856956	-0.005470783	0.286566
1277140390188	-3.486809	11.645397	-1.1441092	2.4032679	0.0	-3.0	-51.8125	-8.375	0.94163305	-0.09384094	0.2909202
1277140390218	-3.3642259	12.367276	-0.29964766	3.0135422	0.0	-3.5	-52.0625	-7.875	1.0837698	-0.02337523	0.26559958
1277140390248	-2.1383946	10.460427	0.3405087	0.8755417	0.0	-4.25	-52.3125	-7.125	1.2105721	0.031881697	0.20164871
1277140390288	-0.6946377	7.7772183	2.3699405	-1.6467323	0.0	-4.5	-52.5625	-5.125	2.409234	0.29468328	0.08908061
1277140390328	-0.6946377	6.973618	3.8273177	-1.8215246	0.0	-4.75	-52.8125	-3.625	2.712661	0.49986368	0.099281885
1277140390368	-3.3642259	9.466142	0.7218784	0.26543808	0.0	-4.75	-52.3125	-2.375	1.6184971	0.07173268	0.34147358
1277140390398	-3.336985	8.662541	0.84446156	-0.48526573	0.0	-4.5	-52.5625	-1.375	1.6968956	0.09071839	0.36770052
1277140390438	-1.4573772	9.534244	-1.8387469	0.012042999	0.0	-4.75	-52.5625	-2.375	0.81424344	-0.18838225	0.15168303
1277140390468	0.27240697	10.61025	-4.372132	1.6723375	0.0	-5.8125	-52.5625	-4.875	0.17957169	-0.39074928	-0.025668303
1277140390498	1.8387469	14.750836	-3.9090397	5.563736	0.0	-7.0625	-52.8125	-8.125	0.022209423	-0.25714743	-0.12401405
1277140390538	-0.23154591	17.434046	-1.4573772	7.6897354	0.0	-8.3125	-52.0625	-11.875	0.5082783	-0.08339252	0.013280468
1277140390578	-6.5922484	10.079058	-0.42223078	2.2442179	0.0	-8.3125	-51.5625	-14.9375	1.137365	-0.035044543	0.5792199
1277140390618	-5.7886477	5.366417	1.3075534	-1.8056145	0.0	-7.5625	-51.0625	-16.4375	1.3081601	0.16415933	0.8232311
1277140390648	-1.8387469	3.7864566	2.0294318	-5.13366	0.0	-6.8125	-51.0625	-17.4375	1.6741275	0.44924966	0.4520707
1277140390678	0.38136974	4.7535014	1.6889231	-4.7476306	0.0	-5.8125	-51.5625	-18.1875	1.6721206	0.34037858	-0.080057755
1277140390708	0.92618364	7.9679036	1.8387469	-1.5770512	0.0	-5.0625	-51.3125	-18.9375	-0.12839533	0.22533298	-0.11571999
1277140390748	0.27240697	9.997335	2.2201166	0.43785286	0.0	-4.5	-51.5625	-19.6875	0.368056	0.21844615	-0.027241217
1277140390788	-1.6889231	8.390134	3.9090397	-0.3977499	0.0	-4.0	-51.3125	-19.9375	1.7424921	0.42845058	0.19864401
1277140390828	-4.099725	8.281172	3.759216	0.16918278	0.0	-3.75	-50.5625	-19.9375	1.4926778	0.38637412	0.45969242
1277140390868	-1.4982382	11.836082	1.4982382	2.2175875	0.0	-3.75	-50.5625	-20.1875	0.62905854	0.1249262	0.12591262
1277140390898	-2.4108016	13.021052	1.5390993	3.5248384	0.0	-3.75	-50.0625	-20.4375	0.71658266	0.11570644	0.18307337
1277140390938	-0.88532263	17.924377	-3.445948	8.467419	0.0	-3.0	-50.0625	-20.4375	0.18338302	-0.18970619	0.049351994
1277140390968	3.1054392	9.302697	-2.4108016	0.29265118	0.0	-1.5	-50.3125	-20.1875	-0.4363802	-0.24103695	-0.32218972
1277140390998	-0.27240697	6.5922484	-0.95342433	-3.1402445	0.0	-0.0	-50.8125	-18.9375	0.08050234	-0.14351137	0.04129882
1277140391038	-1.8387469	9.507003	-0.53119355	-0.10890484	0.0	1.75	-51.5625	-17.6875	0.3759561	-0.05480238	0.19105081
1277140391088	3.2961242	9.507003	0.14982383	0.25664902	0.0	2.25	-52.0625	-15.9375	-0.90019685	0.014888692	-0.33373627
1277140391118	3.173541	8.471856	0.23154591	-0.7569361	0.0	1.75	-52.3125	-13.9375	-1.0049746	0.025588784	-0.35841823
1277140391148	0.6537767	7.082581	0.46309182	-2.6788993	0.0	1.25	-52.8125	-12.375	-0.59871566	0.06501606	-0.09204684
1277140391188	-1.4982382	7.246025	-0.10896278	-2.406551	0.0	-0.5	-53.3125	-10.625	0.7807	-0.014725035	0.20389366
1277140391218	-1.879608	9.765789	-0.23154591	0.14107227	0.0	-1.5	-53.3125	-9.375	0.82895195	-0.023278376	0.19014348
1277140391248	-3.214402	10.923519	1.1849703	1.6414852	0.0	-2.5	-53.8125	-7.875	1.4261413	0.10369344	0.28618643
1277140391288	-3.0237172	9.80665	1.9477097	0.63877106	0.0	-3.75	-53.8125	-6.875	1.7051864	0.18756323	0.2990844
1277140391328	-1.6480621	8.117727	3.173541	-0.9361954	0.0	-3.5	-54.0625	-5.375	2.338267	0.36587372	0.20029783
1277140391368	-2.1383946	7.205164	2.5333846	-1.8753734	0.0	-4.25	-54.5625	-3.625	2.152445	0.3251142	0.28850594
1277140391408	-3.255263	8.240311	1.3075534	-0.8506937	0.0	-4.25	-54.5625	-2.625	1.7595268	0.1465219	0.37622434
1277140391448	-0.8036005	7.9270425	0.23154591	-1.8356156	0.0	-4.5	-54.5625	-2.375	1.4897815	0.029052502	0.10102942
1277140391478	-1.0351465	11.795221	-4.5219555	2.8680038	0.0	-5.5625	-54.0625	-3.875	0.42543	-0.3648097	0.087535545
1277140391508	0.19068487	16.208214	-5.012288	7.159952	0.0	-6.0625	-53.3125	-6.625	0.24115008	-0.299896	-0.011764163
1277140391548	-0.29964766	17.883516	-2.6423476	8.273502	0.0	-7.0625	-52.3125	-11.125	0.40273908	-0.14667162	0.016753955
1277140391588	-4.7943625	10.800936	0.27240697	2.0136852	0.0	-7.0625	-51.3125	-14.6875	1.1062042	0.023047661	0.41775623
1277140391628	-6.973618	7.0553403	0.08172209	0.11382675	0.0	-6.5625	-51.0625	-17.1875	1.175491	0.008237811	0.77957296
1277140391658	-2.2609777	3.759216	1.920469	-5.017921	0.0	-5.3125	-50.8125	-19.4375	1.5239444	0.4126512	0.5414845
1277140391688	0.88532263	4.4810944	1.8387469	-4.8827295	0.0	-3.75	-50.5625	-19.4375	-1.6949087	0.38270536	-0.1950564
1277140391718	1.3075534	8.076866	1.334794	-1.5164671	0.0	-3.25	-50.5625	-20.4375	-0.3842016	0.16171288	-0.16049628
1277140391758	0.313268	9.466142	2.6832085	0.037413597	0.0	-2.75	-50.0625	-20.9375	0.16700326	0.27606443	-0.033081453
1277140391798	-2.6832085	7.7363577	4.2086873	-0.5999193	0.0	-2.75	-49.8125	-20.6875	1.7126569	0.4747674	0.33384883
1277140391838	-4.2495484	8.349273	2.982856	0.025259972	0.0	-3.0	-50.0625	-20.4375	1.3256036	0.3082433	0.47079962
1277140391878	-0.50395286	11.836082	2.070293	2.2196932	0.0	-2.5	-50.0625	-19.6875	0.40474224	0.1730083	0.042551972
1277140391908	-1.0760075	11.985906	0.19068487	2.2289677	0.0	-2.25	-49.8125	-19.6875	0.34039882	0.015844043	0.08953273
1277140391948	0.38136974	17.352324	-3.568531	7.9129143	0.0	-1.5	-50.0625	-19.4375	0.013720057	-0.20277609	-0.021974485
1277140391978	1.3756552	11.34575	-2.982856	2.0050344	0.0	-0.25	-50.3125	-19.1875	-0.18411854	-0.2552986	-0.120659515
1277140392008	-2.1792557	9.302697	-0.27240697	-0.2482233	0.0	0.75	-50.5625	-18.4375	0.498635	-0.028503	0.23011117
1277140392048	-0.46309182	8.471856	-0.46309182	-1.3095179	0.0	1.75	-51.3125	-16.4375	0.054773718	-0.054526795	0.054608036
1277140392088	3.7864566	9.656827	0.23154591	0.5685692	0.0	2.25	-52.0625	-14.4375	-1.0059788	0.02231906	-0.37367886
1277140392118	3.8681788	9.915613	-0.5720546	0.8521223	0.0	1.75	-52.3125	-12.375	-0.9443509	-0.053695638	-0.37195146
1277140392148	2.152015	7.6954966	-0.5720546	-1.7954655	0.0	0.75	-53.3125	-10.875	-0.80503905	-0.071467824	-0.2726804
1277140392188	-0.42223078	7.5865335	-0.19068487	-2.2059836	0.0	-0.5	-54.0625	-9.625	0.3089825	-0.025090545	0.055597942
1277140392218	-2.1111538	9.343558	0.313268	-0.222435	0.0	-2.5	-54.0625	-8.625	1.1218554	0.03269165	0.22221611
1277140392248	-3.636633	9.956474	1.7570249	0.9378185	0.0	-3.75	-54.5625	-7.625	1.5999318	0.16426606	0.35019818
1277140392278	-4.0180025	8.662541	3.214402	0.26888275	0.0	-4.5	-54.3125	-5.875	1.9114081	0.32470632	0.43430057
1277140392318	-3.336985	7.1234417	2.7240696	-1.4820213	0.0	-5.0625	-54.3125	-4.375	1.9577653	0.33337086	0.43809158
1277140392378	-3.5276701	6.4015636	0.7627395	-2.4577556	0.0	-4.5	-54.5625	-2.875	1.6326469	0.103976935	0.5036596
1277140392408	-2.070293	6.932757	0.88532263	-2.5174098	0.0	-4.75	-54.5625	-2.625	1.7464733	0.1217567	0.29019463
1277140392448	-0.23154591	12.367276	-4.2495484	3.2724094	0.0	-5.5625	-54.3125	-3.375	0.30628243	-0.3309191	0.018720279
1277140392478	1.7570249	18.115063	-5.47538	9.199202	0.0	-6.5625	-53.8125	-6.875	0.06015408	-0.29223078	-0.09669004
1277140392508	1.2258313	18.04696	-2.8330324	8.502405	0.0	-7.5625	-52.8125	-11.375	0.20094956	-0.15535815	-0.067820355
1277140392548	-5.407278	10.732834	-0.61291564	2.2269716	0.0	-8.3125	-52.3125	-15.1875	1.0598441	-0.050955642	0.46668866
1277140392588	-7.246025	6.4015636	0.5720546	-0.120983124	0.0	-8.0625	-51.5625	-17.9375	1.2169365	0.059096366	0.8471956
1277140392628	-1.8387469	3.5957718	2.5606253	-5.024667	0.0	-7.0625	-51.0625	-18.9375	1.7915678	0.56506824	0.4726971
1277140392658	0.6537767	4.7126403	1.56634	-4.797676	0.0	-6.3125	-50.5625	-19.4375	-0.26817685	0.31804135	-0.1378485
1277140392698	0.27240697	8.539958	1.56634	-1.1199646	0.0	-5.0625	-49.8125	-19.9375	0.31640074	0.18130672	-0.031887118
1277140392728	-0.95342433	9.275456	2.7240696	-0.09255409	0.0	-4.5	-49.5625	-20.6875	0.997593	0.28423625	0.10243028
1277140392768	-3.255263	8.662541	3.9090397	0.23909283	0.0	-4.0	-49.0625	-20.9375	1.4775741	0.39968047	0.3594597
1277140392808	-2.5606253	8.19945	3.3778462	-0.57639503	0.0	-3.25	-49.5625	-20.4375	1.4559919	0.37465742	0.30269566
1277140392848	0.38136974	11.264028	3.8273177	2.0959597	0.0	-3.0	-49.8125	-20.4375	0.37743556	0.32736894	-0.03384439
1277140392888	-2.9556155	7.9679036	-0.3405087	-1.3014107	0.0	-2.25	-50.0625	-20.4375	0.71972376	-0.040045872	0.35520664
1277140392918	-0.9125633	16.821129	-6.701211	8.323141	0.0	-1.5	-50.5625	-20.9375	0.110787325	-0.37860465	0.05419789
1277140392958	4.671779	9.112013	-1.6889231	0.57153606	0.0	-0.25	-50.8125	-21.1875	-0.68190986	-0.16346481	-0.47376028
1277140392988	-0.53119355	6.782933	-0.3405087	-2.9944334	0.0	1.5	-51.3125	-19.6875	0.11248932	-0.050005846	0.07815374
1277140393018	0.6946377	7.668256	1.4165162	-1.9777813	0.0	2.75	-52.0625	-18.1875	-0.7157644	0.18193702	-0.09033958
1277140393058	2.9147544	10.651112	-0.61291564	1.2530804	0.0	4.0	-52.5625	-15.6875	-0.7665221	-0.055447083	-0.26711747
1277140393098	3.568531	11.34575	-1.879608	2.2346697	0.0	3.25	-53.0625	-13.9375	-0.72393054	-0.15673748	-0.30472934
1277140393128	0.7218784	9.084772	0.5720546	-0.6753063	0.0	1.75	-53.3125	-12.9375	-0.5565578	0.06268842	-0.07929366
1277140393158	-2.3699405	7.504812	1.0760075	-1.8633127	0.0	0.5	-53.3125	-11.125	1.3124965	0.1358781	0.30587885
1277140393188	-3.2961242	7.246025	1.1168685	-1.768198	0.0	-1.75	-53.5625	-9.875	1.4408772	0.13939169	0.4269107
1277140393228	-3.3642259	7.3958488	2.7921712	-1.2152119	0.0	-3.25	-53.8125	-8.375	1.861874	0.33100605	0.42690495
1277140393258	-3.9090397	8.076866	3.9499009	-0.002667427	0.0	-4.25	-54.3125	-6.375	2.0160146	0.4146694	0.4507495
1277140393298	-3.636633	8.689782	1.9477097	-0.18734741	0.0	-4.5	-55.0625	-5.125	1.7618445	0.20388901	0.39634824
1277140393338	-3.718355	7.205164	0.9942854	-1.6378593	0.0	-4.25	-55.0625	-3.375	1.6522123	0.12202014	0.47641927
1277140393378	-0.7218784	5.6252036	2.152015	-3.740746	0.0	-4.25	-54.5625	-2.625	2.5483937	0.36267054	0.12763172
1277140393418	-0.19068487	11.264028	-4.440233	2.302452	0.0	-4.25	-54.3125	-3.125	0.22298883	-0.37544394	0.016927041
1277140393458	0.6537767	18.850561	-5.938472	9.967993	0.0	-5.8125	-53.3125	-5.625	0.1828076	-0.30501494	-0.034668185
1277140393488	-1.4573772	16.589584	-2.7240696	7.0681477	0.0	-7.3125	-52.3125	-10.375	0.5689968	-0.16213775	0.087623976
1277140393518	-5.8567495	10.501288	0.08172209	2.2177114	0.0	-7.8125	-52.0625	-14.1875	1.1629747	0.0067964285	0.5087488
1277140393558	-6.701211	6.742072	0.10896278	-0.30014515	0.0	-7.8125	-51.5625	-16.9375	1.193912	0.011462168	0.78235865
1277140393598	-1.6889231	3.405087	2.1111538	-5.4587717	0.0	-7.0625	-51.5625	-18.1875	1.7403612	0.5070031	0.46044248
1277140393648	1.4573772	5.706926	1.56634	-3.7118678	0.0	-5.5625	-51.3125	-18.4375	-1.0004035	0.2599134	-0.2500263
1277140393688	0.040861044	8.471856	2.5606253	-0.9561806	0.0	-4.5	-50.8125	-18.6875	0.92881644	0.29351723	-0.004823114
1277140393718	-1.6889231	8.662541	3.5276701	-0.30209637	0.0	-4.0	-50.3125	-19.4375	1.5704619	0.3802534	0.19255297
1277140393758	-4.440233	9.152874	4.099725	1.161417	0.0	-3.25	-49.8125	-19.6875	1.4883366	0.383089	0.4516721
1277140393798	-1.3756552	11.795221	2.6014864	2.350134	0.0	-3.25	-50.0625	-19.6875	0.8055375	0.2156625	0.11610366
1277140393838	-1.334794	12.299174	1.0351465	2.607974	0.0	-2.75	-50.3125	-20.4375	0.46621495	0.08347814	0.10810403
1277140393868	-0.84446156	17.079916	-2.7921712	7.5205784	0.0	-1.75	-50.5625	-20.6875	0.14764078	-0.16184925	0.049401555
1277140393948	1.5390993	12.4489975	-4.5219555	3.5273075	0.0	-0.25	-50.5625	-20.6875	-0.16179256	-0.34599274	-0.1230082
1277140393988	-0.23154591	10.337844	-1.2666923	0.6110821	0.0	1.75	-50.8125	-19.1875	-0.024245545	-0.12189163	0.022394149
1277140394028	5.407278	10.923519	-0.50395286	2.3923616	0.0	3.0	-51.3125	-16.6875	-0.9418191	-0.041322716	-0.45964962
1277140394068	4.0180025	8.349273	0.5720546	-0.52322674	0.0	4.0	-52.0625	-14.1875	-1.1608713	0.06166015	-0.44852713
1277140394111	0.14982383	6.1700177	1.2258313	-3.514256	0.0	3.25	-53.0625	-12.125	-1.2368896	0.19606535	-0.02427779
1277140394148	-2.6014864	8.049625	0.53119355	-1.3304262	0.0	1.75	-53.8125	-10.875	1.0980878	0.06270974	0.31258586
1277140394188	-4.140586	9.466142	1.7978859	0.68070793	0.0	0.25	-54.0625	-8.875	1.55983	0.17228466	0.41233498
1277140394218	-4.2495484	8.812365	2.7921712	0.36746693	0.0	-1.5	-54.0625	-7.125	1.8205245	0.27800593	0.4493273
1277140394258	-3.8681788	8.117727	2.7649305	-0.39893246	0.0	-2.0	-54.5625	-5.125	1.9242213	0.29830474	0.44467974
1277140394288	-5.243834	7.205164	0.5720546	-0.876956	0.0	-2.75	-54.8125	-3.125	1.5596839	0.06410596	0.6291334
1277140394328	-3.7864566	6.4015636	0.46309182	-2.3546891	0.0	-2.75	-54.8125	-2.375	1.5864654	0.06218369	0.53413814
1277140394368	-0.7218784	9.112013	-0.08172209	-0.6657219	0.0	-3.25	-54.5625	-3.375	1.0982466	-0.008940359	0.079057604
1277140394398	1.6889231	15.636159	-4.2086873	6.47386	0.0	-4.5	-53.8125	-5.875	-0.066374645	-0.26148024	-0.10759679
1277140394438	2.9147544	19.313654	-4.0588636	10.142971	0.0	-5.3125	-52.8125	-9.875	-0.12778221	-0.20488612	-0.14978643
1277140394468	-2.3699405	13.375181	-2.1383946	3.9441624	0.0	-5.8125	-52.3125	-14.1875	0.5965655	-0.15614414	0.17536923
1277140394498	-7.04172	9.193735	-0.29964766	1.7778378	0.0	-6.0625	-52.0625	-16.9375	1.1144024	-0.02586917	0.653616
1277140394528	-7.164303	5.597963	1.1168685	-0.64630985	0.0	-5.3125	-51.0625	-18.6875	1.2341671	0.122228466	0.9075196
1277140394568	-1.9885708	2.6832085	2.8738933	-5.4005995	0.0	-3.75	-50.8125	-19.4375	1.8748152	0.71056294	0.6377916
1277140394598	1.4982382	4.6036777	1.5390993	-4.726552	0.0	-2.5	-50.3125	-20.4375	-1.2253462	0.30780387	-0.3146332
1277140394638	0.84446156	8.539958	1.7297841	-1.0524426	0.0	-1.25	-49.5625	-21.6875	-0.30626062	0.19890353	-0.09856315
1277140394668	-1.1168685	9.80665	2.6832085	0.42161465	0.0	-0.5	-49.5625	-23.1875	0.57253724	0.2654388	0.11340028
1277140394698	-3.2961242	9.847511	2.982856	0.9977627	0.0	0.25	-49.5625	-24.1875	0.98635936	0.27971065	0.32299486
1277140394728	-2.7240696	8.921328	3.6774938	0.22004414	0.0	0.5	-49.3125	-23.6875	1.2461808	0.37553504	0.29635188
1277140394768	-0.38136974	8.894087	4.5219555	0.17825317	0.0	0.5	-49.3125	-23.1875	2.3670766	0.4699921	0.04285277
1277140394808	-1.3075534	9.234595	2.4108016	-0.17340565	0.0	1.0	-49.5625	-22.4375	0.5645839	0.25294727	0.1406579
1277140394848	-1.6889231	15.5135765	-5.284695	6.669136	0.0	1.25	-49.8125	-21.6875	0.11326664	-0.3265268	0.108440354
1277140394888	2.1792557	11.985906	-2.982856	2.7356195	0.0	2.5	-50.0625	-21.6875	-0.33611864	-0.24012522	-0.17985351
1277140394928	-2.2201166	8.430995	0.46309182	-1.0759544	0.0	4.75	-50.8125	-20.6875	0.43441075	0.053066704	0.25748274
1277140394958	1.3756552	7.6954966	0.040861044	-1.9890571	0.0	6.8125	-51.3125	-17.9375	-0.72729343	0.0052268296	-0.17689262
1277140394988	4.5628166	9.888372	0.92618364	1.1229897	0.0	8.0625	-51.8125	-16.1875	-1.1662586	0.084842294	-0.43232045
1277140395018	3.9499009	10.079058	-0.3405087	1.0240955	0.0	7.8125	-52.8125	-13.6875	-1.0525268	-0.031444263	-0.37349713
1277140395058	1.2258313	7.8861814	-0.42223078	-1.8146043	0.0	6.3125	-53.0625	-12.125	-0.770367	-0.052855987	-0.15420635
1277140395090	-1.6889231	7.504812	-0.27240697	-2.109321	0.0	4.25	-53.3125	-11.375	0.51869464	-0.035397194	0.22135761
1277140395148	-2.4516625	9.275456	0.313268	-0.20754147	0.0	2.5	-53.5625	-9.875	0.94419557	0.03264091	0.25840762
1277140395178	-3.9499009	8.049625	4.862464	0.39343548	0.0	1.25	-53.8125	-8.625	2.1786063	0.49690616	0.45617494
1277140395208	-4.2495484	8.499097	3.5276701	0.32931423	0.0	0.5	-54.0625	-7.125	1.9777288	0.35547423	0.4636476
1277140395248	-4.372132	7.6273947	1.2258313	-0.9299755	0.0	-0.0	-54.5625	-5.875	1.5972636	0.13853851	0.5204913
1277140395278	-3.5276701	6.2789803	2.0294318	-2.3240938	0.0	-0.75	-55.0625	-5.375	1.8442104	0.2746621	0.5118744
1277140395308	-1.0760075	5.012288	2.1111538	-4.2624826	0.0	-1.5	-54.8125	-5.375	2.4389293	0.39064863	0.21146446
1277140395348	-0.6946377	9.888372	-2.982856	0.5451546	0.0	-2.25	-54.8125	-6.375	0.27204826	-0.29229265	0.07013272
1277140395378	0.9942854	18.04696	-6.851035	9.5225525	0.0	-3.75	-54.0625	-9.625	0.027302667	-0.3623147	-0.055038694
1277140395408	0.7218784	18.34661	-3.9090397	8.965664	0.0	-4.75	-53.0625	-13.4375	0.109380424	-0.20976935	-0.039326407
1277140395448	-3.3642259	11.372991	-0.3405087	2.0583773	0.0	-5.5625	-52.0625	-17.6875	0.8117976	-0.028702458	0.28760687
1277140395478	-7.5865335	7.9679036	1.0351465	1.2438936	0.0	-5.5625	-51.3125	-20.9375	1.1481874	0.09381134	0.7608847
1277140395508	-5.7477865	5.366417	1.1849703	-1.8543148	0.0	-3.75	-51.3125	-22.4375	1.1615576	0.1495661	0.81969845
1277140395548	-0.9125633	3.3778462	2.2201166	-5.662795	0.0	-2.5	-50.5625	-22.4375	1.984909	0.56540895	0.26386216
1277140395578	1.334794	5.47538	1.334794	-4.0150065	0.0	-0.75	-50.3125	-22.6875	-0.80440223	0.23255959	-0.23911706
1277140395608	0.38136974	7.0553403	2.070293	-2.4439478	0.0	0.25	-49.8125	-23.4375	-0.33247697	0.28503036	-0.0540015
1277140395648	-0.9125633	7.3141265	3.3778462	-1.6986876	0.0	-0.25	-48.5625	-23.6875	1.3400198	0.42971146	0.1241258
1277140395678	-3.9771416	9.466142	3.8681788	1.1655102	0.0	0.5	-49.0625	-23.6875	1.2504611	0.3602892	0.39775032
1277140395708	-2.5333846	11.686258	3.486809	2.6490517	0.0	0.75	-49.3125	-23.1875	0.8390115	0.28372824	0.21347997
1277140395738	-0.23154591	11.985906	4.3312707	2.9399366	0.0	1.0	-49.3125	-22.6875	-0.010345919	0.34670258	0.019315781
1277140395778	-2.7513103	10.18802	0.95342433	0.7893152	0.0	2.0	-49.5625	-22.9375	0.5362548	0.0901018	0.2637617
1277140395818	0.3405087	17.774553	-5.434519	8.783258	0.0	2.5	-49.5625	-23.1875	-0.09383376	-0.29666972	-0.019154748
1277140395858	1.6889231	7.3141265	-1.1441092	-2.2133708	0.0	3.5	-49.5625	-22.6875	-0.45736444	-0.15124995	-0.22693485
1277140395898	-2.1111538	9.575105	0.53119355	0.0128088	0.0	6.0625	-49.8125	-21.1875	0.25471264	0.05412243	0.21701157
1277140395938	2.4108016	9.425281	0.38136974	-0.070464134	0.0	7.8125	-50.5625	-18.4375	-0.8810181	0.039180364	-0.25041157
1277140395968	4.140586	9.656827	0.23154591	0.70298195	0.0	8.5625	-51.0625	-16.4375	-1.0658097	0.022033563	-0.405062
1277140395998	2.3018389	7.8180795	-0.95342433	-1.6011734	0.0	8.5625	-51.8125	-14.9375	-0.84363014	-0.11645672	-0.2863344
1277140396028	-0.040861044	6.4015636	-0.040861044	-3.4048252	0.0	7.0625	-52.3125	-13.6875	-0.4474147	-0.0063827615	0.0063828924
1277140396068	-1.9477097	7.7772183	-0.50395286	-1.773427	0.0	5.0625	-53.3125	-13.4375	0.44796002	-0.06277481	0.2453907
1277140396108	-3.2961242	9.084772	1.607201	-0.009680748	0.0	3.5	-54.0625	-11.875	1.363813	0.16479573	0.34804854
1277140396138	-3.568531	8.962189	4.3312707	0.7676172	0.0	2.5	-54.8125	-10.375	2.1511805	0.4220208	0.37893322
1277140396178	-3.8681788	8.771504	3.405087	0.36668396	0.0	1.5	-55.3125	-8.875	1.9676754	0.34129438	0.41533917
1277140396208	-4.903325	7.43671	0.50395286	-0.88469887	0.0	1.0	-55.0625	-6.875	1.4280457	0.05651468	0.5829136
1277140396238	-4.630918	7.1234417	0.92618364	-1.2599173	0.0	0.5	-55.0625	-6.125	1.5351043	0.10858021	0.5764424
1277140396278	-1.0351465	6.4015636	2.2609777	-2.9390764	0.0	-0.25	-54.8125	-5.875	2.50829	0.33548284	0.16031447
1277140396308	0.14982383	11.032481	-2.4516625	1.4959488	0.0	-1.0	-55.0625	-7.125	0.013343253	-0.21864943	-0.013579413
1277140396348	0.46309182	17.393185	-6.891896	8.90793	0.0	-1.75	-54.8125	-10.125	0.009811596	-0.3771405	-0.026618613
1277140396378	-0.27240697	17.66559	-3.636633	8.231432	0.0	-2.5	-53.5625	-14.1875	0.13390897	-0.20299998	0.01541898
1277140396408	-3.445948	11.645397	-0.0	2.3378897	0.0	-3.0	-52.0625	-18.1875	0.77037716	-0.0	0.28769702
1277140396448	-6.6331096	7.7363577	0.95342433	0.42850494	0.0	-2.75	-51.0625	-20.4375	1.1244578	0.093287155	0.7087713
1277140396478	-4.2495484	4.140586	1.0760075	-3.77665	0.0	-2.0	-50.3125	-21.4375	1.1877295	0.17940317	0.79838437
1277140396508	-0.46309182	1.920469	1.920469	-7.0514994	0.0	-1.0	-50.3125	-21.4375	2.5390375	0.7712706	0.23661765
1277140396538	1.920469	4.099725	1.3075534	-5.094364	0.0	-0.0	-50.8125	-21.9375	-1.2029006	0.2811675	-0.43808118
1277140396578	1.2666923	8.349273	1.9885708	-1.1308632	0.0	0.75	-50.5625	-23.1875	-0.64191586	0.23126525	-0.15056472
1277140396618	-1.2666923	9.384419	3.8273177	0.40707588	0.0	1.25	-50.3125	-23.4375	1.0731289	0.38409793	0.13416734
1277140396648	-4.372132	9.997335	3.718355	1.7210732	0.0	1.75	-50.0625	-24.1875	1.1675681	0.3284303	0.41226748
1277140396678	-2.5606253	10.841797	1.9885708	1.5095224	0.0	2.0	-50.0625	-23.6875	0.57738966	0.17664544	0.23193075
1277140396708	-0.19068487	10.991621	4.0588636	1.9119883	0.0	1.75	-50.3125	-22.9375	-0.21155694	0.3536878	0.017346462
1277140396738	-2.7240696	8.049625	1.5390993	-1.1703396	0.0	2.0	-50.5625	-23.4375	0.7819436	0.17916967	0.32631212
1277140396778	-1.920469	15.363752	-6.4015636	6.9478455	0.0	2.75	-50.5625	-22.9375	0.087258816	-0.3920464	0.124354996
1277140396818	3.718355	10.732834	-2.1792557	1.7592068	0.0	4.25	-50.5625	-22.6875	-0.58547896	-0.18955459	-0.3335058
1277140396858	-2.1111538	7.7772183	0.10896278	-1.7472477	0.0	6.8125	-50.3125	-21.1875	0.31166407	0.013520369	0.26506618
1277140396898	1.1441092	7.504812	0.27240697	-2.2102432	0.0	9.0625	-50.8125	-18.6875	-0.77626747	0.035867665	-0.15128526
1277140396938	4.372132	10.528529	-0.42223078	1.6014061	0.0	9.5625	-51.3125	-16.6875	-1.0002974	-0.03702009	-0.3935964
1277140396968	3.445948	8.771504	-1.1441092	-0.3133459	0.0	8.3125	-51.8125	-14.6875	-0.9269508	-0.120811164	-0.3743336
1277140396998	0.23154591	7.3141265	0.23154591	-2.4851975	0.0	6.5625	-52.0625	-13.6875	-0.59821546	0.031630956	-0.031646788
1277140397028	-2.4925237	7.5865335	0.7218784	-1.7885904	0.0	3.75	-52.5625	-13.4375	0.9710718	0.09015363	0.31743562
1277140397068	-3.9499009	9.193735	1.3075534	0.28474045	0.0	2.25	-52.8125	-11.625	1.3044035	0.1299365	0.40578544
1277140397108	-3.8681788	8.349273	2.8738933	-0.1665039	0.0	2.0	-53.0625	-10.375	1.7962928	0.30271953	0.43385512
1277140397148	-2.3699405	8.19945	2.6014864	-0.8839083	0.0	1.0	-53.8125	-9.125	2.0015435	0.29585397	0.28136846
1277140397178	-3.568531	7.504812	1.1168685	-1.4219007	0.0	0.5	-54.0625	-7.375	1.536668	0.13359945	0.44385546
1277140397208	-3.336985	6.3607025	1.7570249	-2.4119802	0.0	-0.0	-54.5625	-6.875	1.7580312	0.23990148	0.4831532
1277140397238	-1.1441092	6.742072	1.4573772	-2.814621	0.0	-1.25	-54.3125	-6.875	1.9733062	0.2099736	0.16809563
1277140397278	-0.0	14.246883	-4.7126403	5.199438	0.0	-2.25	-54.3125	-7.625	0.09234449	-0.31945434	0.0
1277140397308	1.9885708	19.082108	-6.1291566	10.334049	0.0	-3.25	-53.5625	-10.875	-0.08673042	-0.3092213	-0.10383647
1277140397348	-1.0351465	15.213928	-2.9556155	5.726244	0.0	-4.75	-52.8125	-15.4375	0.31998345	-0.19144844	0.06793469
1277140397388	-7.9679036	8.499097	0.53119355	1.8554382	0.0	-5.0625	-52.0625	-18.4375	1.1658446	0.045564517	0.7531513
1277140397428	-6.1291566	4.0588636	0.46309182	-2.4408245	0.0	-4.25	-51.5625	-20.9375	1.1677922	0.062911816	0.985877
1277140397488	1.1168685	1.3756552	2.5333846	-6.7150717	0.0	-3.25	-51.3125	-21.6875	-2.2040827	0.9604453	-0.6819437
1277140397518	1.1441092	6.932757	2.070293	-2.481473	0.0	-1.25	-50.8125	-21.9375	-0.8015685	0.2865317	-0.16355531
1277140397558	-0.88532263	11.141444	3.486809	1.901186	0.0	-0.5	-50.5625	-22.6875	0.5946783	0.30240655	0.079295486
1277140397598	-3.5276701	11.536434	4.140586	2.9478874	0.0	-0.0	-50.0625	-23.4375	1.1457456	0.33062717	0.29675576
1277140397638	-2.1383946	9.847511	2.3426998	0.5390959	0.0	1.0	-49.8125	-23.1875	0.6946289	0.22842209	0.21383098
1277140397668	0.08172209	10.841797	2.4108016	1.3002481	0.0	0.75	-50.3125	-22.6875	-0.100237176	0.21879596	-0.007537546
1277140397708	-1.2666923	13.102775	-1.0351465	3.3978472	0.0	1.25	-50.5625	-21.9375	0.13931261	-0.078474	0.0963741
1277140397738	1.0760075	17.24336	-4.0180025	7.931322	0.0	2.25	-50.3125	-21.6875	-0.16418917	-0.22850315	-0.06232046
1277140397778	1.1441092	6.510526	-1.6889231	-2.9840112	0.0	3.75	-50.3125	-21.6875	-0.358295	-0.25014752	-0.17395605
1277140397818	-2.8330324	9.302697	-0.08172209	-0.08178902	0.0	5.8125	-50.0625	-20.6875	0.40408862	-0.008403518	0.2956156
1277140397858	2.7649305	9.847511	-1.1441092	0.48544884	0.0	8.0625	-50.5625	-19.4375	-0.7189461	-0.11139407	-0.2737268
1277140397898	5.5162406	10.147159	0.040861044	1.743043	0.0	8.3125	-51.8125	-16.9375	-1.0882192	0.0035378542	-0.49793497
1277140397938	1.920469	6.932757	0.46309182	-2.597921	0.0	8.0625	-52.5625	-14.4375	-1.0929096	0.06428469	-0.27023742
1277140397968	-1.56634	6.510526	0.61291564	-3.0823631	0.0	6.5625	-53.0625	-12.375	0.6785262	0.09127622	0.23609878
1277140397998	-3.255263	8.894087	-0.23154591	-0.33273125	0.0	4.25	-53.3125	-11.125	0.85832983	-0.024442786	0.3508597
1277140398028	-3.9771416	11.372991	0.50395286	2.2522278	0.0	2.75	-53.3125	-10.375	1.0693098	0.041803196	0.33640805
1277140398068	-4.140586	9.152874	3.445948	0.8138075	0.0	0.5	-53.5625	-9.125	1.8951538	0.3304442	0.42483217
1277140398108	-3.5276701	6.5513873	3.0645783	-1.759491	0.0	-0.0	-54.0625	-7.375	1.9863044	0.39069092	0.4939414
1277140398148	-3.6774938	6.1291566	1.4573772	-2.5118256	0.0	-0.5	-54.3125	-5.375	1.7103839	0.20113578	0.5404195
1277140398178	-3.0645783	6.973618	1.5390993	-2.0354333	0.0	-1.0	-54.5625	-4.375	1.8078681	0.1993694	0.41404864
1277140398208	-1.4982382	7.8180795	0.38136974	-1.8371754	0.0	-1.25	-55.0625	-5.375	1.3344054	0.047872096	0.18934204
1277140398238	-0.50395286	11.686258	-4.3312707	2.6666212	0.0	-2.0	-54.8125	-7.375	0.16675177	-0.3546308	0.04309684
1277140398268	2.2609777	16.780268	-6.469665	8.319187	0.0	-3.5	-54.3125	-11.125	-0.12642106	-0.36497995	-0.13393363
1277140398298	2.982856	19.19107	-3.9499009	10.01244	0.0	-4.5	-53.5625	-14.9375	-0.14816494	-0.20064129	-0.15419556
1277140398338	-2.6832085	13.947236	-1.3075534	4.4564037	0.0	-5.0625	-52.0625	-18.1875	0.577778	-0.09180305	0.19006072
1277140398378	-7.6954966	7.6954966	0.23154591	1.0788879	0.0	-5.3125	-50.8125	-20.9375	1.0990137	0.02127257	0.7853982
1277140398408	-4.0588636	3.8681788	1.4165162	-4.0235972	0.0	-4.25	-50.5625	-21.9375	1.2422252	0.24746053	0.8094485
1277140398448	0.38136974	2.4108016	1.7297841	-6.8150687	0.0	-3.0	-50.3125	-22.1875	-2.7193618	0.61654204	-0.15689199
1277140398478	0.95342433	5.09401	0.7627395	-4.568356	0.0	-2.0	-50.3125	-22.6875	-0.44743368	0.14612788	-0.18502508
1277140398508	0.040861044	7.5865335	1.2666923	-2.1149874	0.0	-1.25	-50.3125	-23.1875	0.06702678	0.16543743	-0.0053859446
1277140398538	-1.2666923	8.771504	2.4925237	-0.60032177	0.0	-0.5	-49.8125	-23.9375	0.6647703	0.2741619	0.14341846
1277140398578	-4.399372	10.651112	4.7126403	2.6436357	0.0	-0.75	-49.3125	-23.9375	1.3194045	0.38819316	0.39169994
1277140398608	-4.0180025	11.604536	3.336985	2.919114	0.0	-0.75	-49.8125	-23.9375	1.0041206	0.26532486	0.33332494
1277140398648	-0.53119355	12.299174	2.8330324	2.8257656	0.0	-0.75	-50.3125	-23.4375	0.24713507	0.22619069	0.043162543
1277140398678	-2.6832085	8.730643	0.84446156	-0.63403606	0.0	-0.25	-50.8125	-23.1875	0.6834166	0.092193894	0.29817
1277140398708	-2.1383946	14.709975	-3.718355	5.515957	0.0	0.75	-51.3125	-23.9375	0.18453372	-0.2451184	0.14435916
1277140398738	3.7864566	14.669114	-5.202973	6.211811	0.0	1.75	-51.0625	-23.4375	-0.362797	-0.3308119	-0.25261045
1277140398778	1.3075534	7.5865335	-0.9125633	-2.0543628	0.0	3.5	-51.3125	-22.4375	-0.4077128	-0.11798893	-0.1706751
1277140398818	-0.95342433	8.349273	0.10896278	-1.4024105	0.0	4.75	-51.8125	-20.4375	0.058586013	0.012965579	0.113699995
1277140398858	3.9090397	8.471856	0.040861044	-0.4763441	0.0	5.8125	-52.5625	-17.4375	-1.007556	0.0043794033	-0.4323058
1277140398898	4.9850473	9.152874	-1.525479	0.72676754	0.0	5.8125	-53.3125	-14.4375	-0.9769259	-0.14533387	-0.4987209
1277140398938	1.7297841	8.240311	-0.08172209	-1.3863449	0.0	4.25	-54.0625	-12.6875	-0.85814923	-0.009705512	-0.20691304
1277140398968	-2.4516625	7.8861814	1.4165162	-1.4275675	0.0	2.25	-54.8125	-11.375	1.412826	0.16986963	0.30140904
1277140398998	-4.1814466	9.00305	1.1441092	0.18576622	0.0	0.5	-54.5625	-10.125	1.3792841	0.11474942	0.43480355
1277140399028	-4.5900574	9.534244	2.3018389	1.0224257	0.0	-0.75	-54.5625	-9.375	1.6208696	0.21419509	0.4486804
1277140399068	-4.1814466	8.894087	3.1054392	0.5002909	0.0	-1.5	-54.3125	-7.875	1.8535373	0.30605143	0.43947378
1277140399108	-4.1814466	8.308413	1.56634	-0.37438488	0.0	-1.75	-54.0625	-6.625	1.6231589	0.16683477	0.46626708
1277140399148	-4.7535014	6.973618	2.0294318	-1.1264591	0.0	-2.0	-54.5625	-5.875	1.7108462	0.23598455	0.59829766
1277140399178	-2.4925237	6.5922484	1.5390993	-2.5928273	0.0	-2.25	-55.0625	-6.125	1.7912172	0.21500693	0.36148497
1277140399208	-0.29964766	10.691973	-2.7240696	1.2309504	0.0	-2.75	-55.0625	-7.375	0.20430727	-0.24937576	0.028018145
1277140399238	2.6832085	16.507862	-5.8976107	7.9272423	0.0	-4.5	-54.5625	-9.625	-0.15706667	-0.33901843	-0.16113208
1277140399278	2.4108016	18.34661	-4.630918	9.268345	0.0	-5.5625	-54.0625	-13.1875	-0.058755383	-0.24522467	-0.13065456
1277140399318	-4.2904096	10.732834	-0.84446156	1.7827606	0.0	-5.8125	-52.3125	-15.9375	0.9103358	-0.07292956	0.38028756
1277140399348	-7.4639506	7.273266	0.7627395	0.64288235	0.0	-6.0625	-51.3125	-18.6875	1.1913776	0.07305766	0.79833645
1277140399388	-3.8273177	3.0645783	1.8387469	-4.5701447	0.0	-4.75	-51.0625	-19.6875	1.3742253	0.35878843	0.89562154
1277140399428	0.8036005	2.7921712	1.5390993	-6.518669	0.0	-3.25	-50.8125	-20.1875	-2.032523	0.4871378	-0.2802314
1277140399468	1.334794	6.932757	1.6480621	-2.5567603	0.0	-2.75	-51.0625	-21.4375	-0.6389561	0.22932719	-0.19020689
1277140399498	-0.27240697	9.466142	2.3699405	-0.04454708	0.0	-1.5	-50.5625	-22.1875	0.30864993	0.24521971	0.028769039
1277140399528	-2.7513103	10.528529	3.718355	1.6931677	0.0	-1.0	-49.8125	-23.4375	1.1132815	0.32925734	0.25560364
1277140399568	-5.202973	10.528529	3.336985	2.4022121	0.0	-1.25	-49.5625	-23.9375	1.1248606	0.27684778	0.45897958
1277140399608	-0.6537767	12.367276	2.6832085	2.8652306	0.0	-1.25	-49.5625	-22.9375	0.31275165	0.21336019	0.052814275
1277140399648	-1.4982382	11.073342	1.1441092	1.4260082	0.0	-1.75	-50.0625	-22.6875	0.44878027	0.10203256	0.13448468
1277140399678	-0.29964766	16.467001	-2.8330324	6.9049606	0.0	-1.0	-50.5625	-22.4375	0.06249255	-0.17034747	0.018194849
1277140399708	2.1111538	11.604536	-5.6252036	3.2610636	0.0	-0.25	-50.5625	-22.1875	-0.20924374	-0.44500875	-0.17995678
1277140399738	0.5720546	8.19945	-1.0760075	-1.5171385	0.0	1.0	-50.5625	-21.6875	-0.15969388	-0.13017078	-0.06965457
1277140399778	-1.334794	9.915613	-0.23154591	0.20108032	0.0	2.75	-51.0625	-19.9375	0.1912226	-0.023138769	0.13381098
1277140399818	2.6423476	7.7772183	0.42223078	-1.5819674	0.0	3.75	-51.3125	-17.9375	-0.9134541	0.051359605	-0.32751873
1277140399858	2.8738933	8.076866	0.61291564	-1.2118444	0.0	4.0	-52.0625	-15.6875	-1.0474404	0.07137291	-0.34184834
1277140399898	0.7218784	7.504812	-0.19068487	-2.264789	0.0	3.5	-52.8125	-13.9375	-0.5104117	-0.025286226	-0.095893726
1277140399938	-2.6014864	8.281172	0.19068487	-1.1243753	0.0	2.25	-53.3125	-12.375	0.8883869	0.021964313	0.30438256
1277140399968	-3.486809	9.80665	0.08172209	0.60175514	0.0	0.5	-53.8125	-11.125	1.0224041	0.007851629	0.3416155
1277140399998	-3.255263	9.112013	1.7570249	0.027608871	0.0	-0.75	-54.0625	-10.375	1.5096285	0.17962812	0.3431186
1277140400028	-3.1054392	8.962189	3.636633	0.35158157	0.0	-1.75	-54.3125	-8.875	2.041103	0.36612356	0.33355746
1277140400068	-4.2904096	9.425281	1.3075534	0.6314163	0.0	-2.5	-54.5625	-7.375	1.5215644	0.12559775	0.42717174
1277140400108	-5.202973	8.390134	0.313268	0.07076931	0.0	-2.75	-55.0625	-5.625	1.4381448	0.03172089	0.55508953
1277140400148	-1.6480621	7.0553403	2.4516625	-2.1578207	0.0	-3.0	-55.0625	-4.375	2.2636828	0.32628664	0.22947602
1277140400178	0.14982383	9.043911	-1.1441092	-0.6894274	0.0	-3.5	-55.3125	-5.375	0.20734614	-0.1258205	-0.016564751
1277140400208	1.7297841	12.53072	-4.399372	3.586093	0.0	-4.25	-54.8125	-7.625	-0.12949282	-0.33470362	-0.13717651
1277140400238	2.3699405	17.474907	-5.012288	8.526707	0.0	-5.3125	-54.0625	-11.375	-0.07745774	-0.276923	-0.13479723
1277140400278	-2.3426998	16.589584	-1.525479	7.0168343	0.0	-6.3125	-53.3125	-15.1875	0.60470974	-0.09080028	0.14028747
1277140400318	-7.8180795	8.730643	0.84446156	1.9432268	0.0	-6.5625	-52.5625	-17.4375	1.2139952	0.07193184	0.73030984
1277140400348	-6.2108784	4.9850473	2.4925237	-1.461689	0.0	-5.5625	-52.0625	-19.4375	1.3453096	0.30331558	0.8944528
1277140400378	-1.6889231	2.9147544	2.7649305	-5.448543	0.0	-4.25	-51.5625	-20.4375	1.931998	0.6872758	0.5251641
1277140400408	1.2258313	3.568531	1.56634	-5.7212496	0.0	-3.0	-51.3125	-21.4375	-1.5116159	0.39347413	-0.33088273
1277140400448	1.879608	7.273266	0.92618364	-2.2375593	0.0	-1.5	-51.0625	-22.6875	-0.6036938	0.12267135	-0.25289407
1277140400478	0.46309182	9.275456	1.4573772	-0.40598583	0.0	-0.75	-50.5625	-23.4375	-0.11517157	0.155657	-0.049885157
1277140400508	-1.607201	9.847511	3.1463003	0.6554613	0.0	-0.5	-50.5625	-23.4375	0.8644733	0.30546096	0.16178244
1277140400538	-4.399372	10.651112	4.2904096	2.4900265	0.0	0.25	-50.5625	-23.1875	1.2952878	0.3564057	0.39169994
1277140400578	-3.0645783	12.571581	2.4925237	3.370943	0.0	0.25	-50.3125	-22.9375	0.7215869	0.19029504	0.2391069
1277140400618	-2.2201166	12.489859	2.7921712	3.182642	0.0	-0.0	-50.8125	-22.6875	0.6623338	0.21665034	0.17591612
1277140400648	-2.4925237	15.050485	-0.95342433	5.4785967	0.0	0.75	-50.5625	-22.6875	0.28405192	-0.062415984	0.16412123
1277140400678	1.4573772	14.669114	-4.2086873	5.5237083	0.0	0.75	-50.5625	-21.6875	-0.16432337	-0.2781039	-0.0990251
1277140400708	2.2609777	7.164303	-1.525479	-2.1407294	0.0	2.25	-51.0625	-20.6875	-0.53089726	-0.20033218	-0.30569687
1277140400738	-1.3756552	8.281172	-0.23154591	-1.408803	0.0	4.0	-51.3125	-18.9375	0.21594566	-0.02757555	0.1646152
1277140400778	-1.2666923	9.043911	-0.5720546	-0.65656376	0.0	5.3125	-51.8125	-16.6875	0.09641953	-0.06255984	0.13915502
1277140400818	2.1111538	8.117727	1.6480621	-1.2585173	0.0	6.0625	-52.3125	-14.9375	-1.3045797	0.19401276	-0.25443092
1277140400858	1.879608	7.0553403	0.14982383	-2.5036922	0.0	5.0625	-52.8125	-13.1875	-0.98882604	0.02051694	-0.2603621
1277140400898	-0.3405087	5.47538	-0.46309182	-4.3011813	0.0	3.75	-53.3125	-11.875	-0.026555633	-0.08421438	0.062109068
1277140400938	-1.525479	8.539958	-0.7218784	-1.101532	0.0	1.5	-54.3125	-11.125	0.47911248	-0.08302108	0.17676407
1277140400968	-3.568531	11.563675	0.5720546	2.3086395	0.0	0.25	-54.5625	-10.625	1.0959692	0.04723514	0.2993264
1277140400998	-3.718355	11.141444	1.9477097	2.0992947	0.0	-0.0	-55.3125	-9.125	1.5468829	0.16432996	0.32211727
1277140401028	-2.1383946	10.228881	2.7649305	1.0029554	0.0	-0.25	-55.8125	-7.875	2.0691304	0.25865918	0.20608656
1277140401068	-1.56634	8.117727	2.4516625	-1.1833344	0.0	0.25	-55.3125	-6.875	2.2845316	0.28828275	0.19061053
1277140401108	-3.5276701	8.62168	1.1168685	-0.42447376	0.0	0.5	-55.5625	-6.125	1.5738448	0.11932448	0.38838026
1277140401148	-2.0294318	7.9270425	0.88532263	-1.5761948	0.0	-0.5	-55.3125	-6.625	1.5120013	0.10777519	0.2506306
1277140401178	-0.6946377	11.114203	-2.5333846	1.6137743	0.0	-1.25	-55.0625	-7.875	0.23162358	-0.2236901	0.06241881
1277140401208	0.84446156	14.328606	-4.2904096	5.174327	0.0	-2.5	-54.5625	-10.625	-0.027660962	-0.29045743	-0.058867272
1277140401238	1.1849703	18.578154	-3.445948	9.125505	0.0	-4.0	-53.8125	-14.1875	0.023827454	-0.18303593	-0.06369671
1277140401278	-2.4516625	13.824653	-1.525479	4.3163366	0.0	-4.25	-52.5625	-17.6875	0.5245573	-0.108225055	0.17551513
1277140401328	-6.238119	5.7477865	0.84446156	-1.2823153	0.0	-4.25	-52.0625	-19.6875	1.19158	0.09922755	0.82628447
1277140401358	-2.8330324	2.8738933	1.9477097	-5.3257008	0.0	-3.0	-51.8125	-20.1875	1.4915615	0.4496657	0.7782384
1277140401388	0.313268	2.7649305	1.9477097	-6.4101005	0.0	-1.25	-51.5625	-20.4375	-2.7971046	0.61069596	-0.11281938
1277140401428	1.4165162	6.238119	1.3756552	-3.2634802	0.0	-0.0	-51.3125	-21.4375	-0.8277756	0.21182343	-0.22328787
1277140401468	0.46309182	11.563675	2.3426998	2.001028	0.0	1.5	-50.3125	-22.1875	-0.28965208	0.19973007	-0.040025726
1277140401498	-2.1383946	10.651112	3.486809	1.6028519	0.0	2.0	-50.3125	-23.1875	0.8567567	0.3105745	0.1981332
1277140401528	-4.399372	9.656827	3.486809	1.3632479	0.0	2.25	-50.3125	-23.1875	1.1939181	0.3174671	0.42747727
1277140401568	-2.6832085	10.732834	3.214402	1.714014	0.0	2.25	-50.3125	-22.9375	0.8816264	0.28276497	0.24497867
1277140401608	-1.9477097	13.021052	-0.19068487	3.3606482	0.0	2.0	-50.3125	-22.9375	0.22700064	-0.014482207	0.14848073
1277140401648	1.3075534	15.894946	-2.7921712	6.3845577	0.0	3.0	-49.8125	-22.6875	-0.22528404	-0.17331624	-0.08207741
1277140401678	0.08172209	6.973618	-2.4516625	-2.414176	0.0	4.0	-49.8125	-22.1875	-0.12183025	-0.33804464	-0.011718214
1277140401708	-2.3018389	10.61025	-0.19068487	1.0520897	0.0	5.3125	-50.0625	-20.9375	0.24363518	-0.0175614	0.21363431
1277140401738	-0.3405087	11.223166	-1.3756552	1.5056372	0.0	6.8125	-51.3125	-19.1875	-0.2046725	-0.12190891	0.030330501
1277140401778	3.5957718	9.043911	1.1441092	-0.007115364	0.0	7.0625	-52.8125	-16.9375	-1.1587442	0.11701827	-0.3784274
1277140401818	2.9556155	7.164303	0.6537767	-2.0290976	0.0	6.8125	-53.5625	-14.9375	-1.1822197	0.08415874	-0.3912762
1277140401858	0.38136974	5.366417	-0.46309182	-4.406805	0.0	5.5625	-54.3125	-12.9375	-0.49280378	-0.085865684	-0.070946716
1277140401898	-1.3075534	8.19945	-0.88532263	-1.4565325	0.0	3.5	-54.3125	-12.125	0.278846	-0.10622482	0.15813692
1277140401938	-3.568531	10.269742	1.3075534	1.1437702	0.0	1.25	-54.3125	-11.125	1.2861556	0.11969227	0.33442816
1277140401968	-4.399372	9.275456	3.336985	0.9879799	0.0	-0.25	-54.5625	-10.125	1.8027995	0.31428212	0.44287908
1277140401998	-3.8273177	9.697687	3.3778462	1.1525164	0.0	-1.0	-55.0625	-8.625	1.9103254	0.31332248	0.37589702
1277140402028	-2.8738933	9.425281	1.920469	0.2324419	0.0	-1.25	-55.5625	-6.875	1.7609426	0.1924855	0.29595825
1277140402068	-3.7864566	9.302697	1.0351465	0.29032707	0.0	-1.0	-55.8125	-5.875	1.5442647	0.102700874	0.3865501
1277140402108	-1.1441092	6.701211	2.2609777	-2.6423473	0.0	-1.0	-55.8125	-5.875	1.5442647	0.102700874	0.3865501
1277140402148	-0.29964766	6.1291566	0.040861044	-3.6700373	0.0	-1.5	-55.5625	-6.625	0.59250593	0.0066586155	0.048849992
1277140402178	-1.1441092	14.437569	-5.175732	5.573226	0.0	-3.0	-55.0625	-9.125	0.2655918	-0.34322557	0.07908003
1277140402208	-0.7218784	19.340895	-6.1700177	10.507397	0.0	-4.5	-54.0625	-13.1875	0.22150238	-0.30860683	0.037306625
1277140402238	-1.0760075	15.472715	-3.0645783	6.003294	0.0	-5.5625	-53.0625	-16.4375	0.33739215	-0.19507352	0.06943048
1277140402278	-4.7126403	7.8180795	1.4165162	-0.5688009	0.0	-5.3125	-52.3125	-18.9375	1.2001165	0.15394565	0.5424666
1277140402318	-5.243834	4.630918	1.1441092	-2.7177725	0.0	-3.0	-51.8125	-19.9375	1.2294165	0.16210401	0.8473877
1277140402348	-1.3756552	2.2609777	2.2609777	-6.3257785	0.0	-1.0	-51.8125	-20.1875	2.0103061	0.706984	0.5465977
1277140402378	1.334794	3.2961242	1.879608	-5.7843328	0.0	0.5	-51.5625	-20.6875	-1.7678096	0.48622844	-0.38477376
