#timestamp	accel_x	accel_y	accel_z	accel_mag	temperature	mag_x	mag_y	mag_z	azimuth	pitch	roll
1277307502995	-1.1849703	3.405087	8.771504	-0.32308197	0.0	7.875	-5.8125	-52.5	-0.41668922	1.1808146	0.33489197
1277307503035	-1.3075534	3.5276701	8.921328	-0.12448883	0.0	9.375	-6.0625	-52.25	-0.5059614	1.1717167	0.35495713
1277307503074	-1.3756552	3.5276701	8.853226	-0.17770958	0.0	10.3125	-6.3125	-52.0	-0.56274194	1.166652	0.37182257
1277307503104	-1.2666923	3.5957718	8.853226	-0.16747475	0.0	10.5625	-6.3125	-52.75	-0.5736984	1.1641766	0.33869806
1277307503135	-1.3075534	3.568531	8.921328	-0.10952759	0.0	11.0625	-6.5625	-52.75	-0.61519605	1.1680739	0.35122052
1277307503174	-1.3756552	3.5957718	8.812365	-0.19001007	0.0	11.3125	-6.8125	-53.0	-0.6080266	1.1589073	0.36539584
1277307503204	-1.3075534	3.636633	8.689782	-0.2962818	0.0	10.8125	-7.0625	-52.75	-0.5747565	1.1523385	0.34515765
1277307503234	-1.2666923	3.5957718	8.689782	-0.31737232	0.0	10.5625	-7.3125	-52.5	-0.57742393	1.1573645	0.33869806
1277307503264	-1.3075534	3.5957718	8.812365	-0.19951534	0.0	10.0625	-7.0625	-52.25	-0.5469538	1.1611781	0.348771
1277307503294	-1.2258313	3.5957718	8.771504	-0.24780464	0.0	9.625	-7.3125	-52.5	-0.524655	1.1620812	0.32855314
1277307503334	-1.2666923	3.636633	8.62168	-0.36403465	0.0	9.625	-7.5625	-53.0	-0.49590382	1.1507268	0.33517256
1277307503375	-1.1849703	3.6774938	8.662541	-0.321517	0.0	9.375	-7.3125	-53.0	-0.48729268	1.1512544	0.31171745
1277307503414	-1.0760075	3.5957718	8.771504	-0.2658615	0.0	9.125	-7.5625	-53.0	-0.5088631	1.1664732	0.29076162
1277307503444	-1.1849703	3.3778462	8.921328	-0.19394588	0.0	8.625	-6.8125	-52.5	-0.4936397	1.1892147	0.33739308
1277307503474	-0.7627395	3.445948	8.662541	-0.45272255	0.0	8.125	-6.0625	-52.25	-0.48371303	1.1839038	0.21783179
1277307503504	-0.7627395	3.214402	8.689782	-0.51006603	0.0	7.875	-5.5625	-52.25	-0.4951981	1.2074943	0.23297925
1277307503544	-0.6537767	2.9556155	9.084772	-0.23083878	0.0	7.125	-4.8125	-52.25	-0.5091899	1.2491646	0.21769285
1277307503585	-0.10896278	3.255263	9.084772	-0.15565586	0.0	6.4375	-4.8125	-52.5	-0.44994438	1.2265503	0.033460308
1277307503624	-0.8036005	2.6832085	10.691973	1.2461176	0.0	6.1875	-3.0	-53.0	-0.51590437	1.314585	0.290991
1277307503664	-0.9125633	1.4165162	7.273266	-2.3407488	0.0	6.9375	-0.4375	-52.75	-0.6170169	1.3431398	0.57230884
1277307503704	-2.1111538	0.92618364	9.343558	-0.18288422	0.0	8.125	1.3125	-52.25	-0.65580547	1.328893	1.157371
1277307503734	-0.6537767	1.7978859	9.275456	-0.33596325	0.0	9.375	3.125	-52.25	-0.7648557	1.3673984	0.348771
1277307503774	-1.4982382	1.9477097	9.575105	0.078739166	0.0	10.5625	3.125	-51.75	-0.85018104	1.319584	0.6556956
1277307503814	-1.607201	1.9477097	9.234595	-0.23301888	0.0	10.3125	2.125	-52.5	-0.79675025	1.3038709	0.6899041
1277307503855	-1.525479	1.9477097	9.084772	-0.3910389	0.0	9.8125	1.875	-53.25	-0.7476645	1.3049203	0.66442317
1277307503915	-1.9477097	2.3426998	9.275456	-0.043663025	0.0	10.0625	1.625	-53.0	-0.6471095	1.2534391	0.6935935
1277307503953	-2.1111538	2.6014864	8.962189	-0.23870754	0.0	10.5625	1.0625	-52.75	-0.5984766	1.2130526	0.6817249
1277307503998	-2.4925237	2.6014864	8.499097	-0.57544994	0.0	12.3125	0.8125	-52.75	-0.6184038	1.1698512	0.7640111
1277307504036	-2.4925237	2.6832085	8.62168	-0.43938446	0.0	13.75	0.0625	-52.5	-0.7023179	1.1691157	0.7485727
1277307504081	-2.6832085	2.5606253	9.043911	-0.031746864	0.0	14.25	-0.4375	-52.75	-0.75111717	1.1816083	0.8087705
1277307504114	-3.173541	2.1111538	9.765789	0.6766205	0.0	14.0	-0.4375	-53.25	-0.7288559	1.1986783	0.98378485
1277307504144	-3.0645783	1.879608	9.765789	0.5998478	0.0	13.0	-0.1875	-52.75	-0.7093449	1.2180625	1.0206306
1277307504174	-2.9147544	1.6889231	9.507003	0.27954578	0.0	12.75	0.5625	-52.75	-0.7431924	1.2302599	1.0456322
1277307504219	-2.7513103	1.920469	9.193735	-0.019787788	0.0	13.0	1.3125	-52.5	-0.7753104	1.2208629	0.9614006
1277307504264	-2.3018389	1.920469	8.812365	-0.4983511	0.0	12.75	1.875	-52.25	-0.8351673	1.2428981	0.87547636
1277307504305	-1.6889231	2.070293	8.471856	-0.9234686	0.0	12.75	2.125	-52.25	-0.86321324	1.2652947	0.68429476
1277307504374	-1.0760075	1.879608	8.771504	-0.7717171	0.0	11.8125	2.375	-52.5	-0.9098949	1.3287241	0.51992613
1277307504414	-0.9942854	1.7570249	9.043911	-0.5401478	0.0	10.5625	2.625	-52.75	-0.8813111	1.35117	0.514962
1277307504444	-0.95342433	1.7570249	9.425281	-0.17171001	0.0	9.625	3.625	-52.75	-0.8166673	1.3618003	0.4971716
1277307504474	-1.1168685	1.6889231	9.575105	-0.019797325	0.0	8.125	4.375	-52.5	-0.7408821	1.3624004	0.58427125
1277307504504	-1.3756552	1.5390993	9.847511	0.25489712	0.0	7.875	4.9375	-52.0	-0.7868521	1.3641638	0.7293821
1277307504534	-1.56634	1.4982382	9.915613	0.34310436	0.0	8.375	5.1875	-52.0	-0.83156765	1.3555852	0.8076167
1277307504564	-1.4982382	1.5390993	9.956474	0.37887478	0.0	8.875	5.4375	-52.0	-0.8609749	1.358322	0.771946
1277307504601	-1.3756552	1.56634	9.656827	0.072628975	0.0	9.625	5.6875	-52.25	-0.8847128	1.3581839	0.7206739
1277307504644	-1.6889231	1.4165162	9.575105	0.0189085	0.0	10.3125	5.6875	-52.25	-0.96654606	1.3445262	0.87289345
1277307504692	-1.8387469	1.8387469	9.425281	-0.029232979	0.0	10.8125	5.4375	-52.25	-0.8432448	1.3015989	0.7853982
1277307504762	-2.4108016	2.070293	8.662541	-0.5796404	0.0	11.8125	4.125	-51.75	-0.7367956	1.2192006	0.8612402
1277307504794	-1.6889231	1.9885708	8.240311	-1.1631794	0.0	13.75	2.875	-51.75	-0.9289657	1.2641679	0.70409626
1277307504824	-1.8387469	1.920469	8.471856	-0.92737484	0.0	15.4375	1.625	-51.75	-1.088277	1.2666928	0.76366246
1277307504864	-2.5606253	1.7570249	8.812365	-0.46311188	0.0	17.4375	1.3125	-50.9375	-1.214916	1.2319859	0.9694125
1277307504904	-3.1463003	1.4982382	8.730643	-0.40622234	0.0	19.625	1.0625	-51.4375	-1.2582563	1.1910254	1.1263771
1277307504934	-3.759216	1.4982382	8.853226	-0.07237911	0.0	20.8125	1.875	-50.4375	-1.1688597	1.1420565	1.19154
1277307504966	-3.718355	1.5390993	9.152874	0.19185448	0.0	22.0625	3.125	-49.6875	-1.3592935	1.1565608	1.1783483
1277307505012	-4.099725	0.92618364	8.894087	0.03054142	0.0	22.8125	4.375	-49.4375	-1.3716413	1.129336	1.3486124
1277307505054	-4.1814466	0.92618364	9.697687	0.79464436	0.0	23.5625	6.6875	-48.6875	-1.5752686	1.1549245	1.3528173
1277307505084	-3.8681788	0.6537767	8.962189	-0.023447037	0.0	24.0	8.0	-48.375	-1.6596353	1.1581911	1.4033645
1277307505124	-3.9771416	0.6537767	8.853226	-0.079128265	0.0	24.25	9.0	-48.125	-1.6105212	1.1435769	1.4078698
1277307505154	-4.2495484	0.9942854	8.962189	0.16170406	0.0	24.75	10.0	-47.375	-1.4978766	1.117627	1.3409566
1277307505184	-4.399372	1.0760075	8.921328	0.1984663	0.0	25.0	9.75	-46.875	-1.4653589	1.1010355	1.3309233
1277307505214	-4.5900574	0.95342433	8.730643	0.10303116	0.0	25.5	9.5	-46.625	-1.4497133	1.0780172	1.3659935
1277307505244	-4.7535014	0.95342433	8.430995	-0.081092834	0.0	26.4375	9.75	-46.625	-1.4073626	1.0489306	1.3728498
1277307505274	-4.862464	0.95342433	8.62168	0.13749123	0.0	27.1875	9.0	-46.625	-1.4573169	1.0491722	1.3771744
1277307505324	-4.7943625	0.92618364	8.894087	0.3397045	0.0	27.4375	9.5	-46.625	-1.5430313	1.0687082	1.3799652
1277307505355	-4.630918	1.1441092	9.112013	0.4784441	0.0	27.1875	9.25	-46.625	-1.557483	1.0885245	1.3285878
1277307505394	-4.862464	1.2258313	9.343558	0.79751396	0.0	26.6875	8.5	-46.375	-1.5059018	1.0782288	1.3238413
1277307505435	-4.671779	1.1849703	8.539958	-5.00679E-4	0.0	26.0	8.25	-47.125	-1.3665469	1.0569855	1.3223907
1277307505474	-4.399372	1.7978859	8.499097	-0.06901646	0.0	26.25	6.4375	-46.875	-1.3363582	1.0609291	1.1828393
1277307505504	-4.440233	1.7978859	7.7363577	-0.7072382	0.0	26.9375	5.6875	-46.625	-1.2487366	1.0163729	1.1860662
1277307505545	-3.8681788	2.152015	7.5456724	-1.0584421	0.0	27.1875	4.375	-46.875	-1.282129	1.0402668	1.0631001
1277307505584	-3.8273177	2.2201166	7.3141265	-1.2583332	0.0	27.9375	2.375	-46.375	-1.3066878	1.026751	1.0451593
1277307505624	-4.3312707	2.5333846	7.8589406	-0.48244	0.0	27.9375	1.3125	-47.125	-1.2190295	1.0025634	1.0415496
1277307505654	-4.2086873	2.982856	9.084772	0.64052963	0.0	27.6875	-0.1875	-47.875	-1.3295397	1.0543731	0.95423007
1277307505685	-4.5900574	3.0237172	9.575105	1.2339172	0.0	27.4375	-0.9375	-47.875	-1.3299037	1.0496833	0.9882919
1277307505724	-4.2904096	2.9147544	9.466142	0.98738766	0.0	26.9375	-0.9375	-48.375	-1.3487297	1.0695384	0.9740539
1277307505771	-3.9499009	2.8738933	8.894087	0.34055424	0.0	26.25	-1.1875	-48.125	-1.3045688	1.0685557	0.94179505
1277307505806	-3.9090397	3.0645783	7.3549876	-0.9315119	0.0	25.5	-1.4375	-48.125	-0.9907152	0.9768134	0.9059052
1277307505844	-3.5957718	3.3778462	8.962189	0.42370892	0.0	25.75	-2.5	-48.375	-1.2423353	1.0675852	0.816638
1277307505884	-3.759216	2.9147544	7.8180795	-0.6551552	0.0	26.0	-3.75	-47.875	-1.1782973	1.0241936	0.91125995
1277307505924	-4.140586	2.4925237	7.504812	-0.88032246	0.0	26.4375	-4.5	-47.625	-1.1152695	0.99866736	1.0289268
1277307505964	-4.5900574	2.4108016	7.6954966	-0.5275736	0.0	27.1875	-4.8125	-47.625	-1.0513514	0.97792304	1.0871749
1277307506004	-3.445948	2.4108016	7.9679036	-0.7969885	0.0	26.4375	-4.8125	-47.875	-1.504033	1.0851495	0.9603356
1277307506044	-2.9556155	3.0645783	8.812365	-0.019665718	0.0	24.75	-4.0	-49.1875	-1.3525448	1.1207265	0.7673006
1277307506084	-2.7921712	3.336985	8.894087	0.09468651	0.0	21.8125	-3.75	-50.4375	-1.1157827	1.1158197	0.69674224
1277307506124	-1.1441092	3.255263	8.921328	-0.2413063	0.0	17.9375	-3.25	-51.4375	-1.0011696	1.2017503	0.33797884
1277307506164	-0.0	3.1054392	8.349273	-0.89855766	0.0	14.0	-2.75	-52.5	-0.72744787	1.2147099	0.0
1277307506204	0.23154591	2.7649305	8.689782	-0.68465614	0.0	11.0625	-2.75	-52.25	-0.67146534	1.2617325	-0.0835489
1277307506244	0.040861044	2.5333846	9.043911	-0.41452408	0.0	9.625	-3.0	-52.75	-0.69964486	1.2976421	-0.016127635
1277307506284	-0.0	2.4925237	9.507003	0.02166462	0.0	9.125	-3.5	-52.5	-0.7432393	1.3143896	0.0
1277307506324	-1.4165162	2.4925237	10.651112	1.2235527	0.0	11.3125	-4.0	-52.0	-1.0261917	1.307862	0.516789
1277307506364	-2.7240696	3.255263	9.084772	0.22083092	0.0	14.0	-4.25	-52.0	-0.6328662	1.1337066	0.6967925
1277307506404	-2.4108016	3.7864566	8.240311	-0.42305088	0.0	16.4375	-4.8125	-51.1875	-0.70833474	1.0720042	0.56696194
1277307506444	-2.3018389	3.718355	8.499097	-0.24844551	0.0	19.625	-5.5625	-50.4375	-0.957391	1.0955801	0.5543075
1277307506484	-2.7921712	3.5276701	8.853226	0.12412453	0.0	21.3125	-5.8125	-49.6875	-1.1008712	1.1006323	0.66954005
1277307506524	-3.405087	3.568531	8.281172	-0.16783047	0.0	23.5625	-6.0625	-48.9375	-1.0546073	1.0336022	0.761965
1277307506564	-3.718355	3.3778462	7.504812	-0.775692	0.0	25.75	-5.3125	-48.125	-1.034049	0.9809201	0.83334607
1277307506604	-4.2086873	3.718355	7.43671	-0.4876442	0.0	28.1875	-4.5	-47.625	-1.0164914	0.9239947	0.8471751
1277307506644	-4.372132	3.1054392	8.308413	0.08218193	0.0	29.125	-3.75	-47.125	-1.3034811	0.99761754	0.9532041
1277307506685	-3.6774938	1.879608	8.771504	-0.11148739	0.0	29.625	-3.0	-46.625	-2.0220847	1.1307454	1.0982994
1277307506724	-4.099725	1.4982382	8.349273	-0.38524818	0.0	30.625	-2.75	-46.125	-2.129612	1.0890837	1.2204257
1277307506764	-3.9771416	2.2609777	7.6273947	-0.9124479	0.0	30.375	-2.25	-45.625	-1.5808069	1.0305252	1.0538659
1277307506804	-4.2086873	3.173541	7.1234417	-0.9450569	0.0	31.125	-1.4375	-45.625	-1.2185608	0.93374914	0.9247112
1277307506844	-4.0588636	2.4108016	8.076866	-0.45132542	0.0	31.875	-1.1875	-45.625	-1.6467297	1.04186	1.03483
1277307506884	-3.6774938	1.9885708	7.668256	-1.0727787	0.0	31.375	-0.9375	-45.625	-1.7656829	1.0716478	1.0750897
1277307506914	-4.2086873	2.1111538	8.539958	-0.054680824	0.0	32.0625	-0.9375	-46.125	-1.802553	1.0669173	1.1058551
1277307506944	-5.47538	2.9147544	8.580819	0.7813635	0.0	32.5625	-1.4375	-45.3125	-1.3804412	0.94488174	1.081614
1277307506984	-5.7886477	3.1463003	6.238119	-0.7335148	0.0	33.0625	-1.1875	-45.0625	-0.87318325	0.75809216	1.0729345
1277307507024	-5.434519	2.6832085	7.504812	-0.16010666	0.0	33.8125	-0.4375	-44.8125	-1.27655	0.8914432	1.1121738
1277307507065	-5.325556	1.9885708	8.499097	0.41834927	0.0	33.5625	0.8125	-44.5625	-1.6604277	0.9812762	1.2134278
1277307507105	-5.407278	1.607201	9.152874	0.94494724	0.0	33.5625	2.125	-44.8125	-1.8527819	1.0184649	1.2818835
1277307507151	-4.903325	1.5390993	8.853226	0.43009853	0.0	33.8125	3.375	-44.8125	-1.8979396	1.0448464	1.2666466
1277307507185	-4.862464	1.3075534	8.281172	-0.11484623	0.0	34.5625	3.875	-43.8125	-1.9383645	1.0244933	1.308103
1277307507224	-6.1700177	1.7570249	7.8589406	0.3382597	0.0	35.75	3.625	-42.5625	-1.4919707	0.8861905	1.2933716
1277307507265	-6.5922484	1.56634	7.9679036	0.65273094	0.0	37.6875	2.875	-41.0	-1.6458694	0.86607933	1.3375187
1277307507294	-6.0882955	1.334794	8.689782	0.8873358	0.0	39.6875	0.8125	-38.9375	-2.3212774	0.9485752	1.3549716
1277307507324	-6.851035	2.2201166	7.0553403	0.27518654	0.0	41.375	-1.1875	-37.9375	-1.630988	0.77512735	1.2574188
1277307507354	-6.5513873	3.0645783	7.3549876	0.5087824	0.0	43.0625	-3.75	-37.1875	-1.7617319	0.7937792	1.133259
1277307507384	-6.6331096	3.9090397	7.0553403	0.63636494	0.0	44.0625	-6.0625	-37.1875	-1.5888158	0.7417833	1.038265
1277307507414	-6.1700177	4.7126403	6.742072	0.47603607	0.0	43.5625	-7.875	-37.1875	-1.4600184	0.71507263	0.91852355
1277307507444	-5.8976107	4.6036777	6.701211	0.2373476	0.0	43.5625	-8.875	-36.6875	-1.5317374	0.73042417	0.90799683
1277307507475	-6.238119	3.0645783	6.782933	-0.0951128	0.0	43.8125	-8.625	-36.1875	-1.9205796	0.7732164	1.11416
1277307507514	-5.5571017	1.9885708	5.597963	-1.6719723	0.0	44.3125	-7.0625	-34.875	-2.1179976	0.75895053	1.2271515
1277307507554	-5.134871	1.4982382	5.9793324	-1.7839308	0.0	45.5625	-5.3125	-33.875	-2.538346	0.8409846	1.2869004
1277307507594	-5.47538	1.56634	6.238119	-1.3599148	0.0	46.5	-4.8125	-33.125	-2.530877	0.8308789	1.2921681
1277307507634	-7.504812	3.6774938	4.399372	-0.36204147	0.0	46.75	-5.5625	-31.5625	-1.1360064	0.48454723	1.1151661
1277307507674	-8.049625	4.7126403	2.9556155	-0.021911621	0.0	47.0	-8.125	-30.8125	-0.8115376	0.30685687	1.0411452
1277307507714	-6.701211	5.243834	5.09401	0.110655785	0.0	47.0	-10.375	-31.0625	-1.3643354	0.5394318	0.9068049
1277307507754	-7.04172	6.2108784	3.1463003	0.095876694	0.0	46.75	-11.4375	-30.8125	-0.9591753	0.32333133	0.84800893
1277307507794	-6.5513873	6.3607025	4.099725	0.20269299	0.0	47.0	-11.9375	-31.0625	-1.139686	0.42200434	0.800165
1277307507834	-6.469665	6.1700177	4.1814466	0.063010216	0.0	46.5	-11.4375	-31.0625	-1.1542678	0.43748948	0.8091006
1277307507874	-7.04172	4.7943625	4.2495484	-0.28665066	0.0	46.25	-11.4375	-30.5625	-1.1503842	0.46271715	0.97303796
1277307507904	-6.1700177	4.862464	4.2904096	-0.8556566	0.0	45.75	-11.9375	-31.5625	-1.2198145	0.49988222	0.9033664
1277307507945	-4.903325	4.7126403	3.7864566	-2.0227675	0.0	44.5625	-11.1875	-33.625	-1.1584828	0.50802004	0.8052256
1277307507984	-2.982856	4.2086873	6.782933	-1.2849922	0.0	40.625	-10.875	-37.6875	-1.6800632	0.9205985	0.61656624
1277307508024	-3.0237172	4.0588636	10.760075	2.0843735	0.0	34.3125	-10.375	-42.3125	-1.9325851	1.1311225	0.64027184
1277307508084	-2.2201166	5.5162406	11.223166	2.8944244	0.0	26.0	-10.375	-47.125	-1.3296231	1.0835793	0.38263315
1277307508117	-1.1441092	5.243834	7.164303	-0.85488987	0.0	17.1875	-11.6875	-49.9375	-0.67491555	0.92783433	0.21481541
1277307508154	0.50395286	7.164303	8.894087	1.6251469	0.0	11.5625	-13.6875	-50.4375	-0.5225067	0.89149684	-0.070226535
1277307508194	0.9942854	7.8861814	5.706926	-0.021484375	0.0	8.625	-16.5	-50.1875	-0.32188317	0.6226898	-0.1254177
1277307508235	-1.4165162	7.0553403	11.372991	3.6517773	0.0	7.375	-19.3125	-49.1875	-0.36136273	1.0066513	0.19813795
1277307508274	0.8036005	4.440233	6.973618	-1.5004606	0.0	6.6875	-21.375	-48.375	-0.82368225	0.9964891	-0.17904358
1277307508314	2.0294318	3.173541	5.175732	-3.405232	0.0	5.4375	-21.875	-48.6875	-0.79301274	0.94164795	-0.56894773
1277307508354	2.3018389	2.6014864	5.9793324	-2.89155	0.0	3.25	-21.375	-48.9375	-0.92137724	1.0445082	-0.72436297
1277307508394	3.5276701	3.214402	8.240311	-0.28406906	0.0	1.3125	-20.625	-48.6875	-0.88421094	1.0458368	-0.8318294
1277307508424	3.6774938	3.3778462	7.668256	-0.65591526	0.0	-0.1875	-19.5625	-49.4375	-0.7358105	0.9935956	-0.8278437
1277307508464	3.568531	3.2961242	7.0553403	-1.2406311	0.0	-0.9375	-18.8125	-49.6875	-0.6568466	0.9678049	-0.8250599
1277307508494	3.0237172	3.636633	7.9679036	-0.5408287	0.0	-1.1875	-18.0625	-49.9375	-0.6897132	1.0351211	-0.69363207
1277307508534	3.8681788	3.7864566	8.049625	-0.106313705	0.0	-1.1875	-16.25	-50.9375	-0.53272974	0.9788021	-0.7960739
1277307508574	3.8273177	3.6774938	8.240311	-0.0048627853	0.0	-1.625	-15.0	-51.1875	-0.4939418	0.9985648	-0.80535924
1277307508614	3.9090397	3.0237172	8.471856	0.0012960434	0.0	-2.125	-12.9375	-51.75	-0.46544218	1.0427136	-0.91241205
1277307508654	3.7864566	2.8330324	9.112013	0.45941544	0.0	-2.625	-11.1875	-52.25	-0.42646635	1.0920773	-0.9284473
1277307508694	3.336985	2.152015	8.580819	-0.35164642	0.0	-3.125	-9.625	-52.5	-0.40469176	1.1373951	-0.9980161
1277307508734	2.9556155	1.9477097	8.539958	-0.56218624	0.0	-3.625	-8.125	-52.75	-0.3463537	1.1778675	-0.98812985
1277307508764	3.636633	2.8330324	8.962189	0.27164268	0.0	-4.8125	-7.5625	-52.5	-0.18028773	1.0957173	-0.9089758
1277307508804	1.334794	3.255263	6.742072	-2.2017865	0.0	-5.3125	-7.0625	-52.5	0.13302842	1.089828	-0.38913307
1277307508844	5.706926	3.445948	8.308413	0.84573364	0.0	-4.5625	-7.5625	-52.25	-0.15347573	0.8945987	-1.0275737
1277307508884	4.5219555	3.3778462	6.510526	-1.1901035	0.0	-3.375	-8.625	-52.5	-0.17024085	0.8565454	-0.92922574
1277307508924	1.2258313	4.0180025	6.4424243	-2.1156273	0.0	-1.375	-10.625	-52.25	-0.09042211	0.99297583	-0.29611516
1277307508964	3.718355	5.407278	6.3607025	-0.66753864	0.0	1.0625	-14.75	-50.9375	-0.31292734	0.7697935	-0.6023942
1277307509004	1.6889231	6.66035	6.2108784	-0.5444832	0.0	2.25	-20.375	-48.9375	-0.2976956	0.7349692	-0.24834405
1277307509044	-0.19068487	9.234595	6.4424243	1.4547415	0.0	3.0	-26.1875	-45.3125	-0.110543184	0.6090403	0.020646036
1277307509084	2.1111538	5.407278	4.671779	-2.3553991	0.0	4.0	-32.0625	-42.3125	-0.793184	0.67766947	-0.3722277
1277307509124	2.6423476	8.349273	5.938472	0.7743616	0.0	4.4375	-35.625	-39.75	-0.79863095	0.5958815	-0.30650336
1277307509164	3.718355	7.8180795	6.4424243	0.9847059	0.0	5.1875	-36.1875	-38.4375	-1.0116808	0.6397546	-0.4439457
1277307509204	2.152015	7.4639506	7.082581	0.70547104	0.0	6.4375	-34.875	-40.0	-1.0941712	0.7392769	-0.28070813
1277307509244	0.53119355	6.2108784	7.5865335	0.012345314	0.0	7.125	-32.8125	-42.3125	-1.364475	0.8829867	-0.08531869
1277307509284	0.46309182	5.829509	7.668256	-0.16301155	0.0	7.875	-29.8125	-44.8125	-1.1941562	0.9192748	-0.079272784
1277307509324	1.8387469	5.8567495	7.205164	-0.3410864	0.0	8.375	-28.25	-46.625	-0.9554489	0.8651577	-0.3042085
1277307509364	1.4165162	5.09401	6.5513873	-1.3878536	0.0	8.625	-27.5	-47.375	-0.96180934	0.8917718	-0.27122265
1277307509404	0.92618364	5.366417	6.1700177	-1.5771084	0.0	9.375	-26.75	-46.875	-0.8363148	0.84766924	-0.1709052
1277307509447	1.5390993	6.0882955	6.4424243	-0.8099289	0.0	9.375	-27.5	-46.625	-0.8090153	0.79817843	-0.24760886
1277307509484	0.53119355	6.0882955	6.5513873	-0.8472872	0.0	9.625	-28.0	-45.875	-0.8072825	0.8201287	-0.08702794
1277307509514	0.19068487	7.3549876	6.8237944	0.2281084	0.0	9.625	-29.0	-44.8125	-0.6619517	0.7477842	-0.025920121
1277307509554	0.88532263	9.847511	6.4424243	1.9942865	0.0	9.125	-30.3125	-43.8125	-0.51878625	0.5774926	-0.089662135
1277307509594	0.38136974	8.962189	5.134871	0.5293627	0.0	8.875	-31.8125	-42.0	-0.45576963	0.5199009	-0.042527538
1277307509634	0.14982383	7.3549876	3.8273177	-1.5140848	0.0	9.125	-34.375	-39.5	-0.4715337	0.4797259	-0.020367555
1277307509674	-0.46309182	5.243834	1.5390993	-4.322028	0.0	10.5625	-37.9375	-35.125	-0.30464563	0.2844409	0.08808318
1277307509704	0.313268	7.164303	-3.718355	-1.7288084	0.0	13.25	-42.3125	-28.0	-0.32995528	-0.47835046	-0.0436984
1277307509744	1.2666923	8.62168	-3.0237172	-0.58272743	0.0	15.9375	-46.875	-17.3125	-0.63265765	-0.33398718	-0.14587581
1277307509784	-0.50395286	8.853226	0.9942854	-0.88352394	0.0	18.875	-49.9375	-5.8125	-1.5644654	0.11165981	0.056861714
1277307509824	-0.61291564	11.372991	-4.5628166	2.462819	0.0	21.3125	-50.9375	4.9375	-0.8984888	-0.38103753	0.053840127
1277307509864	-0.7627395	8.962189	-4.671779	0.32883835	0.0	22.3125	-50.1875	12.8125	-0.9612571	-0.47904602	0.084901795
1277307509904	-2.4516625	9.112013	-3.636633	0.30594254	0.0	23.3125	-49.1875	16.875	-1.2243661	-0.36785454	0.2628339
1277307509947	-1.56634	9.043911	-4.671779	0.49244118	0.0	23.75	-48.125	18.9375	-1.168041	-0.4708128	0.1714916
1277307509984	-1.0760075	8.008764	-5.325556	-0.12885952	0.0	23.75	-47.625	19.6875	-0.99043715	-0.58270705	0.13355398
1277307510024	-0.8036005	7.6954966	-4.944186	-0.62452507	0.0	24.25	-47.875	19.6875	-1.0729758	-0.5686058	0.10404768
1277307510064	-0.9942854	7.8589406	-5.012288	-0.4325056	0.0	24.5	-46.875	19.1875	-1.0611871	-0.5641442	0.12584785
1277307510094	-1.2666923	7.9679036	-5.243834	-0.18429089	0.0	25.0	-46.875	17.9375	-0.9525131	-0.5763455	0.15765505
1277307510134	-1.525479	8.430995	-4.7126403	-0.02821827	0.0	25.25	-47.125	16.625	-1.0270439	-0.50287014	0.1790004
1277307510174	-1.56634	8.539958	-5.09401	0.25979137	0.0	25.75	-46.875	15.625	-0.9445044	-0.5305859	0.18139692
1277307510214	-1.334794	8.499097	-4.7126403	0.0027999878	0.0	26.4375	-47.375	14.375	-1.0076933	-0.5011317	0.15577883
1277307510254	-1.2258313	8.349273	-4.440233	-0.2709961	0.0	26.6875	-47.875	13.3125	-1.015011	-0.48436373	0.14577743
1277307510284	-1.2666923	8.771504	-4.372132	0.07562351	0.0	27.4375	-47.625	12.5625	-1.0630255	-0.45829716	0.14341845
1277307510324	-0.88532263	8.580819	-4.2086873	-0.20835304	0.0	27.4375	-48.375	11.3125	-1.0718476	-0.45390972	0.10281083
1277307510364	-1.4165162	8.281172	-3.5276701	-0.6946373	0.0	27.1875	-49.1875	10.5	-1.0399488	-0.3975331	0.16941305
1277307510404	-1.1168685	8.349273	-4.3312707	-0.33470917	0.0	26.9375	-48.9375	9.75	-0.92779756	-0.4749273	0.13297893
1277307510452	-1.4982382	9.084772	-5.8976107	1.1276817	0.0	26.6875	-49.4375	8.75	-0.7098231	-0.56968445	0.16344634
1277307510494	-1.9477097	8.158588	-4.671779	-0.20552254	0.0	26.0	-49.4375	8.25	-0.62530476	-0.50817823	0.23434494
1277307510534	-0.7627395	8.390134	-3.718355	-0.5978346	0.0	24.75	-49.9375	7.4375	-0.9569911	-0.4156472	0.09065989
1277307510574	-0.10896278	8.076866	-2.6423476	-1.307848	0.0	22.3125	-50.9375	5.9375	-1.1267935	-0.31614846	0.013489907
1277307510616	1.0760075	7.6954966	-2.2609777	-1.7140312	0.0	18.375	-52.0	4.125	-1.2054136	-0.2831563	-0.13892233
1277307510654	2.8330324	8.240311	-0.61291564	-1.0714083	0.0	13.5	-52.75	0.8125	-1.4913533	-0.07022355	-0.33114228
1277307510694	2.7921712	8.771504	1.6480621	-0.45509338	0.0	4.8125	-54.0	-5.875	-1.7142318	0.17715923	-0.30818093
1277307510734	3.0237172	7.5865335	3.990762	-0.71684647	0.0	-1.5625	-53.5	-13.1875	-2.0790071	0.45452675	-0.3792676
1277307510764	4.0180025	5.8976107	3.5957718	-1.8156724	0.0	-6.5	-50.4375	-21.125	-1.637483	0.46674177	-0.5980605
1277307510804	4.862464	5.243834	3.5957718	-1.8022184	0.0	-9.6875	-47.375	-28.5	-1.30268	0.46589503	-0.7476802
1277307510844	5.7477865	5.6252036	7.668256	1.3056002	0.0	-11.625	-44.8125	-32.3125	-1.7357131	0.7615889	-0.7961762
1277307510884	6.4015636	6.469665	10.691973	4.234535	0.0	-12.375	-44.0625	-32.5625	-1.9703131	0.86558133	-0.78010726
1277307510914	6.742072	5.053149	7.5456724	1.5038328	0.0	-13.5625	-44.8125	-31.3125	-1.6372278	0.7303625	-0.9276185
1277307510951	5.597963	4.630918	2.9147544	-1.9785991	0.0	-14.5625	-45.625	-30.0625	-1.108453	0.381537	-0.8796586
1277307510984	6.3607025	4.7126403	2.9147544	-1.3708153	0.0	-14.5625	-46.125	-29.25	-1.115011	0.35279346	-0.93314517
1277307511024	7.082581	5.134871	4.862464	0.20201683	0.0	-14.0625	-46.125	-28.75	-1.3527662	0.5073072	-0.9434881
1277307511054	6.1291566	5.6660647	5.7477865	0.3278408	0.0	-13.5625	-46.625	-28.0	-1.5922643	0.6030426	-0.824639
1277307511094	6.3198414	5.47538	5.8567495	0.4022522	0.0	-13.5625	-46.875	-26.1875	-1.6474915	0.6110044	-0.85686976
1277307511124	5.407278	4.903325	5.2165933	-0.83479977	0.0	-14.0625	-47.375	-25.9375	-1.7048203	0.6204975	-0.83423644
1277307511164	5.012288	5.012288	4.8216033	-1.2337904	0.0	-14.8125	-46.625	-27.25	-1.655141	0.5973175	-0.7853982
1277307511204	5.09401	4.630918	4.5628166	-1.5474949	0.0	-15.0625	-45.875	-28.25	-1.5564307	0.58530736	-0.8329813
1277307511244	1.1168685	5.134871	6.66035	-1.3228683	0.0	-15.0625	-45.875	-28.5	2.8987205	0.9028067	-0.2141708
1277307511285	2.5606253	6.66035	10.460427	2.8557987	0.0	-13.5625	-45.875	-28.75	-2.9790566	0.97214836	-0.36703682
1277307511314	6.4015636	4.7126403	1.879608	-1.6383009	0.0	-11.375	-46.625	-28.5	-1.0118665	0.23218934	-0.9362052
1277307511344	4.5219555	4.7126403	7.8589406	0.4119606	0.0	-9.1875	-47.875	-27.75	-2.0483582	0.8774023	-0.76475215
1277307511374	3.636633	6.3607025	7.6954966	0.81899357	0.0	-6.75	-48.6875	-27.75	-2.2203376	0.80992883	-0.5193767
1277307511404	4.1814466	6.1291566	4.862464	-0.9356518	0.0	-5.25	-49.6875	-26.1875	-1.6642047	0.5801273	-0.5986946
1277307511434	3.636633	6.3198414	7.3549876	0.55005455	0.0	-4.5	-50.9375	-24.1875	-2.208024	0.789735	-0.52215815
1277307511464	4.140586	6.0882955	7.7772183	0.9030142	0.0	-3.8125	-51.4375	-23.6875	-2.130797	0.81275934	-0.5972378
1277307511494	3.3778462	5.5162406	6.3198414	-0.7634678	0.0	-3.0625	-51.4375	-23.6875	-2.1196969	0.7737905	-0.54944783
1277307511524	3.0237172	4.9850473	6.1291566	-1.3473291	0.0	-2.5625	-50.9375	-24.9375	-2.1350012	0.81037366	-0.5452271
1277307511554	3.486809	3.9499009	6.0882955	-1.7551346	0.0	-2.0625	-49.4375	-27.0	-1.9211118	0.85743654	-0.7232074
1277307511594	3.8273177	4.8216033	5.8567495	-1.3097258	0.0	-1.375	-48.375	-28.0	-1.788654	0.7604931	-0.67094
1277307511624	3.5276701	5.8567495	6.973618	-0.04051876	0.0	-1.375	-47.875	-28.0	-1.979509	0.7952826	-0.5421277
1277307511664	3.214402	5.7886477	6.701211	-0.38608456	0.0	-1.5625	-48.125	-27.0	-2.052197	0.7914008	-0.5068987
1277307511694	3.1463003	5.8567495	6.5513873	-0.47276592	0.0	-1.125	-49.4375	-24.4375	-2.114245	0.77805156	-0.49297005
1277307511734	2.3426998	6.0201936	6.851035	-0.3902998	0.0	-1.125	-51.1875	-21.625	-2.4265006	0.8147702	-0.37110963
1277307511774	1.879608	6.510526	5.9793324	-0.7693777	0.0	-0.625	-52.75	-18.5625	-2.5233614	0.7229908	-0.28106058
1277307511814	0.88532263	6.8237944	5.434519	-1.038414	0.0	-0.375	-54.0	-15.75	-2.8362246	0.6684829	-0.12901983
1277307511854	1.1441092	6.510526	4.2495484	-1.9482408	0.0	-1.125	-54.8125	-14.75	-2.68111	0.5713456	-0.17395604
1277307511884	0.27240697	7.7363577	4.1814466	-1.008359	0.0	-1.8125	-54.8125	-13.4375	-3.133346	0.49525574	-0.035196725
1277307511914	0.040861044	8.580819	4.399372	-0.16369438	0.0	-3.3125	-54.8125	-13.1875	2.9157145	0.47375003	-0.0047618686
1277307511949	0.46309182	8.921328	5.012288	0.43676567	0.0	-4.25	-54.8125	-12.4375	3.054384	0.5113076	-0.05186185
1277307511984	0.61291564	9.507003	4.399372	0.6868353	0.0	-5.25	-54.0	-11.4375	2.9996455	0.43261677	-0.06438082
1277307512024	0.95342433	9.765789	3.990762	0.7860756	0.0	-6.75	-53.75	-10.625	3.0009146	0.38628042	-0.097320594
1277307512064	1.0760075	9.507003	3.9499009	0.54432106	0.0	-7.1875	-54.5	-8.625	3.0638573	0.39152357	-0.112700924
1277307512094	0.9942854	9.043911	2.9147544	-0.2527647	0.0	-7.6875	-54.5	-6.0625	2.9896784	0.3100285	-0.109500006
1277307512148	0.42223078	8.812365	1.4165162	-0.8711834	0.0	-7.6875	-55.3125	-2.75	2.452017	0.159199	-0.04787684
1277307512184	0.7627395	8.539958	0.3405087	-1.2259388	0.0	-6.75	-55.3125	2.375	2.7668657	0.039693464	-0.089077845
1277307512224	1.334794	8.539958	-0.10896278	-1.1623201	0.0	-5.75	-54.0	7.1875	-2.7536018	-0.012605449	-0.1550454
1277307512254	0.92618364	8.580819	-1.56634	-1.0350084	0.0	-4.5	-53.25	12.0625	-2.6521254	-0.17953151	-0.107520245
1277307512294	1.1441092	8.117727	-2.7513103	-1.1593275	0.0	-3.5625	-52.25	17.125	-1.4689435	-0.32379752	-0.14001736
1277307512334	1.1441092	8.771504	-2.0294318	-0.73103046	0.0	-2.3125	-50.6875	21.0	-2.706119	-0.22552036	-0.12970254
1277307512374	0.10896278	9.043911	-0.8036005	-0.7264538	0.0	-0.625	-49.1875	24.5625	3.139983	-0.08861628	-0.01204761
1277307512412	0.84446156	11.876944	-4.1814466	2.8131514	0.0	2.0625	-47.625	27.125	-2.6395657	-0.33772355	-0.070981465
1277307512444	-0.27240697	9.193735	-2.4516625	-0.28774166	0.0	5.0	-45.625	28.875	-2.919082	-0.26049316	0.029620962
1277307512474	-0.29964766	8.308413	-2.9147544	-0.9966955	0.0	7.4375	-44.0625	30.1875	-2.7417634	-0.33720186	0.036049947
1277307512504	-0.9942854	8.580819	-3.486809	-0.4912386	0.0	9.1875	-42.5625	31.6875	-2.8308346	-0.38364762	0.11535856
1277307512544	-2.4108016	7.7772183	-3.6774938	-0.87238693	0.0	10.375	-40.75	33.5	2.9802558	-0.42422754	0.3005897
1277307512574	-1.879608	6.3198414	-3.9499009	-2.1206217	0.0	11.625	-39.5	35.0	3.1283104	-0.53973264	0.28908244
1277307512604	-0.95342433	6.851035	-3.9499009	-1.8412614	0.0	12.5625	-37.9375	36.8125	-2.617367	-0.51885134	0.1382769
1277307512644	-2.0294318	7.9679036	-3.9771416	-0.6729908	0.0	13.0625	-36.6875	37.8125	-2.9345653	-0.4505247	0.24939807
1277307512685	-1.2666923	7.205164	-6.0882955	-0.28897	0.0	12.5625	-35.375	38.5625	-2.3328238	-0.6940854	0.17402507
1277307512724	-1.334794	7.0553403	-5.243834	-0.91523266	0.0	12.375	-34.125	39.375	-2.642423	-0.630766	0.18697926
1277307512764	-2.1111538	7.668256	-5.47538	-0.15062046	0.0	12.375	-33.125	39.625	-2.8987017	-0.60291094	0.26865515
1277307512804	-2.1111538	8.049625	-6.238119	0.59371376	0.0	13.5625	-31.8125	39.625	-2.717629	-0.6432488	0.25649065
1277307512844	-2.6423476	7.3958488	-5.6660647	-0.1223917	0.0	14.5625	-30.8125	39.375	-2.871506	-0.6249786	0.34314063
1277307512884	-3.0237172	6.851035	-5.8567495	-0.2997551	0.0	15.5	-30.0625	39.0625	-2.9396055	-0.6637218	0.41563892
1277307512914	-3.3642259	7.014479	-6.0474343	0.046896935	0.0	16.75	-30.3125	38.5625	-2.9287078	-0.6607785	0.4472043
1277307512950	-3.6774938	8.19945	-6.1700177	1.0939941	0.0	17.5	-30.5625	37.8125	-2.8452754	-0.6016739	0.42160997
1277307512984	-4.440233	8.049625	-5.6660647	0.992259	0.0	19.4375	-30.5625	37.8125	-2.9724364	-0.55234927	0.5040765
1277307513014	-4.8216033	8.049625	-5.8567495	1.2543554	0.0	20.6875	-30.8125	37.5625	-2.9864595	-0.5580054	0.5396727
1277307513046	-4.5219555	7.246025	-5.175732	0.18039894	0.0	21.625	-30.3125	37.3125	-2.9619377	-0.5447969	0.55792314
1277307513084	-4.440233	6.510526	-4.0588636	-0.94228363	0.0	23.125	-30.0625	37.3125	-3.0056164	-0.4756151	0.5985487
1277307513114	-4.3312707	6.1291566	-3.9090397	-1.3445549	0.0	24.5625	-29.8125	36.0625	-2.9430816	-0.48018923	0.6151862
1277307513144	-4.2086873	6.2789803	-3.8681788	-1.3153934	0.0	26.3125	-29.5	35.25	-2.760156	-0.47298822	0.59050137
1277307513174	-4.4810944	6.469665	-3.759216	-1.0849257	0.0	28.25	-29.0	34.25	-2.6859965	-0.44562012	0.60576355
1277307513204	-4.7126403	6.8237944	-4.2495484	-0.48829174	0.0	29.4375	-28.75	33.25	-2.5270965	-0.473541	0.60440207
1277307513244	-4.903325	6.851035	-4.7126403	-0.15324402	0.0	29.9375	-29.25	32.6875	-2.4252918	-0.510008	0.6211892
1277307513274	-4.671779	6.5513873	-4.7126403	-0.4816742	0.0	30.9375	-29.5	31.9375	-2.2374272	-0.52982026	0.6194624
1277307513304	-4.7943625	6.2789803	-4.862464	-0.5300636	0.0	31.4375	-29.5	31.1875	-2.1132255	-0.55173457	0.6521216
1277307513344	-4.7126403	6.238119	-5.09401	-0.4754095	0.0	32.125	-30.0625	30.6875	-1.8366532	-0.5774739	0.6469854
1277307513384	-4.5900574	6.5922484	-5.134871	-0.27285385	0.0	33.125	-30.3125	29.375	-1.6876048	-0.5687707	0.60822564
1277307513424	-5.284695	6.4015636	-4.7126403	-0.26112747	0.0	33.625	-30.5625	28.375	-1.9354645	-0.5163412	0.69011647
1277307513454	-5.407278	6.4424243	-4.7126403	-0.1654644	0.0	34.625	-30.8125	27.375	-1.7856414	-0.5107171	0.698263
1277307513484	-5.012288	6.4015636	-4.671779	-0.42962646	0.0	34.8125	-30.5625	26.3125	-1.5863068	-0.5215395	0.6642756
1277307513514	-4.5900574	6.510526	-4.944186	-0.43111992	0.0	35.3125	-30.0625	25.5625	-1.4018482	-0.55547863	0.61408776
1277307513545	-4.3312707	6.4015636	-5.012288	-0.5945406	0.0	35.8125	-29.8125	25.0625	-1.3194829	-0.5753133	0.5948451
1277307513585	-3.8273177	6.3198414	-5.284695	-0.7227764	0.0	36.0625	-30.3125	24.8125	-1.2067286	-0.62089914	0.5445295
1277307513624	-3.255263	6.3607025	-5.5571017	-0.7547636	0.0	36.5625	-30.5625	24.8125	-1.1952621	-0.6610125	0.47302496
1277307513664	-2.8330324	6.469665	-6.2108784	-0.4014578	0.0	36.5625	-30.8125	25.8125	-1.1705794	-0.72130734	0.41274172
1277307513694	-4.0180025	8.240311	-5.47538	0.871685	0.0	36.3125	-31.3125	26.0625	-1.5593563	-0.53839177	0.45368114
1277307513734	-6.2789803	12.4489975	-7.9679036	6.252323	0.0	35.8125	-31.5625	25.8125	-1.5948199	-0.51917636	0.46714255
1277307513764	-5.407278	11.645397	-8.117727	5.383855	0.0	35.5625	-31.8125	25.8125	-1.4858757	-0.5637916	0.43470457
1277307513804	-3.173541	7.43671	-5.09401	-0.25024128	0.0	35.8125	-31.8125	25.3125	-1.4891858	-0.5621971	0.40334344
1277307513844	-2.8738933	4.7943625	-3.8273177	-3.0321732	0.0	36.3125	-30.8125	24.5625	-1.2425723	-0.60038644	0.5400016
1277307513884	-3.718355	5.175732	-4.7126403	-1.8805323	0.0	37.75	-29.25	24.3125	-1.0569532	-0.63673204	0.6229824
1277307513924	-3.9090397	5.012288	-4.7943625	-1.8448954	0.0	38.75	-28.25	23.25	-0.9613812	-0.6462215	0.66235864
1277307513954	-3.636633	5.2165933	-5.434519	-1.4417267	0.0	40.0	-27.0	21.5	-0.93182915	-0.70716274	0.6087958
1277307513994	-3.5276701	5.706926	-6.0201936	-0.792428	0.0	41.4375	-26.1875	19.9375	-0.974148	-0.7313231	0.5536499
1277307514024	-3.486809	6.238119	-6.3198414	-0.26661015	0.0	41.9375	-26.1875	18.1875	-1.0067886	-0.72409046	0.5096901
1277307514054	-3.6774938	6.0882955	-6.2789803	-0.3189268	0.0	43.125	-26.1875	16.375	-0.93322825	-0.7232179	0.54337513
1277307514084	-3.8681788	5.8567495	-6.4015636	-0.3069477	0.0	43.875	-26.75	15.375	-0.8305953	-0.7394341	0.5836969
1277307514114	-4.4810944	5.5571017	-6.0882955	-0.42427635	0.0	44.625	-27.25	14.125	-0.69391435	-0.7061481	0.6786146
1277307514144	-4.399372	5.243834	-5.8158884	-0.82462215	0.0	45.125	-28.0	12.8125	-0.62638336	-0.7043029	0.6980503
1277307514174	-4.7126403	4.8216033	-5.47538	-1.1212244	0.0	44.875	-28.5	11.5625	-0.4753345	-0.68208134	0.77397007
1277307514214	-5.175732	5.053149	-5.202973	-0.8963499	0.0	44.625	-28.75	10.0	-0.44461164	-0.62355876	0.79738164
1277307514254	-6.0882955	6.0474343	-5.202973	0.22877407	0.0	43.875	-29.25	9.5	-0.49793932	-0.54504985	0.7887652
1277307514284	-6.8237944	7.205164	-5.597963	1.5870209	0.0	43.375	-29.5	9.5	-0.5854943	-0.51360714	0.75822043
1277307514314	-6.701211	7.273266	-5.6252036	1.5709391	0.0	43.125	-30.3125	10.0	-0.5876551	-0.5171569	0.7444853
1277307514354	-6.428804	7.082581	-5.407278	1.1811218	0.0	42.4375	-31.3125	10.75	-0.5728898	-0.5145208	0.73704875
1277307514394	-6.5922484	6.742072	-5.366417	1.0428524	0.0	42.6875	-32.0625	11.5625	-0.4676593	-0.5174014	0.7741627
1277307514424	-6.701211	6.4015636	-5.09401	0.7685652	0.0	42.1875	-32.5625	11.8125	-0.35323042	-0.5025859	0.8082632
1277307514454	-6.3198414	6.1291566	-4.2495484	-0.030882835	0.0	41.9375	-32.5625	12.8125	-0.47204337	-0.44970766	0.80071425
1277307514484	-6.2108784	5.7886477	-3.7864566	-0.51037693	0.0	42.1875	-32.0625	13.3125	-0.51795894	-0.41950572	0.82057095
1277307514514	-6.2108784	4.862464	-4.2086873	-0.8662014	0.0	41.6875	-31.5625	13.8125	-0.067983985	-0.49013698	0.90657276
1277307514544	-5.7886477	3.5276701	-3.8273177	-2.0219688	0.0	41.9375	-31.0625	14.625	0.3515104	-0.5139805	1.0234852
1277307514584	-5.284695	2.2609777	-2.9556155	-3.3432388	0.0	42.1875	-30.8125	14.375	0.84109986	-0.47493896	1.1665268
1277307514614	-5.434519	2.3426998	-4.099725	-2.607346	0.0	42.1875	-31.3125	14.625	0.61406565	-0.60585034	1.1637892
1277307514644	-5.8567495	2.7649305	-5.012288	-1.6170607	0.0	42.1875	-32.0625	13.8125	0.48578346	-0.65862703	1.1297225
1277307514684	-6.6331096	3.718355	-6.782933	0.383173	0.0	42.1875	-32.5625	13.0625	0.29762834	-0.7283747	1.0598705
1277307514714	-6.5922484	4.440233	-8.008764	1.4766884	0.0	41.6875	-32.5625	12.5625	0.12928586	-0.7891955	0.97804093
1277307514744	-6.932757	4.944186	-8.689782	2.3597136	0.0	41.6875	-32.3125	12.8125	0.07319407	-0.7955468	0.9512906
1277307514784	-7.014479	5.366417	-9.00305	2.8051004	0.0	41.4375	-32.0625	13.5625	0.010269272	-0.7949978	0.9177335
1277307514824	-6.238119	5.134871	-8.962189	2.2599087	0.0	41.4375	-31.8125	14.375	-0.06074554	-0.8371375	0.8821016
1277307514864	-6.742072	5.5571017	-9.915613	3.409109	0.0	41.9375	-31.3125	14.375	-0.08429339	-0.8484962	0.88144726
1277307514894	-6.4015636	5.706926	-8.499097	2.2674408	0.0	42.4375	-30.8125	13.3125	-0.18980573	-0.78089017	0.84270316
1277307514924	-5.407278	4.2904096	-7.014479	0.03454876	0.0	43.125	-29.5	12.0625	-0.12811488	-0.79343486	0.90006155
1277307514955	-4.5628166	3.5957718	-5.47538	-1.823627	0.0	44.125	-28.75	9.5	-0.16136295	-0.7558095	0.9033786
1277307514994	-6.8237944	5.325556	-5.012288	0.19578648	0.0	45.125	-29.0	6.4375	-0.22724324	-0.52487713	0.9080971
1277307515024	-7.6273947	5.938472	-4.862464	1.0139856	0.0	44.875	-29.5	1.625	-0.18761091	-0.46605948	0.90925884
1277307515054	-6.0201936	4.7126403	-3.0645783	-1.5699434	0.0	44.125	-30.8125	-4.0	-0.12322512	-0.3812312	0.90662813
1277307515094	-5.434519	4.1814466	-0.46309182	-2.9340272	0.0	41.6875	-32.3125	-10.375	0.013516128	-0.0674332	0.91497964
1277307515124	-4.372132	3.0645783	1.9477097	-4.1232753	0.0	37.75	-33.375	-17.5625	1.6867937	0.34979263	0.9594434
1277307515164	-3.5957718	2.9556155	3.3778462	-4.0555563	0.0	33.375	-34.375	-23.6875	2.59391	0.62776804	0.88280207
1277307515194	-3.1463003	3.486809	7.082581	-1.3084154	0.0	27.25	-36.4375	-29.25	2.9504313	0.98526376	0.73410845
1277307515234	-2.8738933	3.0237172	7.5865335	-1.1488438	0.0	21.625	-37.6875	-33.625	2.682031	1.0680553	0.75999945
1277307515274	-2.7513103	3.636633	7.0553403	-1.4058981	0.0	15.25	-38.6875	-36.1875	2.4675598	0.99700004	0.6476827
1277307515304	-4.2086873	6.6331096	10.038197	2.9399796	0.0	9.4375	-39.5	-37.4375	2.0689082	0.9067708	0.5653994
1277307515344	-3.8681788	7.9270425	10.501288	3.9074984	0.0	5.5	-38.9375	-38.4375	1.883347	0.87217027	0.45397943
1277307515384	-3.336985	7.9270425	12.067628	5.012294	0.0	2.3125	-38.4375	-38.9375	2.0706782	0.9515875	0.39844564
1277307515424	-3.8681788	6.891896	10.691973	3.4891882	0.0	1.125	-37.6875	-40.25	1.7379161	0.93425983	0.5114507
1277307515458	-1.1441092	5.597963	8.730643	0.6274433	0.0	-0.625	-35.375	-42.0	2.2245762	0.9913061	0.20160311
1277307515494	0.7218784	5.09401	8.921328	0.49190044	0.0	-2.8125	-32.8125	-43.8125	-2.8725343	1.0476873	-0.14077388
1277307515534	1.8387469	4.671779	7.9679036	-0.38890076	0.0	-6.9375	-30.0625	-44.8125	-1.9711072	1.008535	-0.37496486
1277307515564	0.7218784	3.336985	5.5162406	-3.3193173	0.0	-11.125	-27.75	-45.0625	1.833662	1.0165731	-0.21304373
1277307515596	0.38136974	2.9147544	4.099725	-4.761952	0.0	-14.5625	-26.75	-44.8125	1.3019727	0.9487365	-0.13010207
1277307515634	0.84446156	2.4516625	3.5276701	-5.4284973	0.0	-17.5	-26.1875	-43.0625	1.4513594	0.9369305	-0.331717
1277307515664	0.42223078	2.2201166	4.862464	-4.4446774	0.0	-19.6875	-26.1875	-42.3125	2.119476	1.1357306	-0.18793958
1277307515694	-0.61291564	2.6014864	5.597963	-3.6033778	0.0	-21.625	-24.6875	-42.0	1.537625	1.1253556	0.23138246
1277307515724	-0.27240697	3.173541	5.938472	-3.0678806	0.0	-24.0625	-24.1875	-41.0	1.5724841	1.0784787	0.08562702
1277307515754	1.2258313	5.053149	8.390134	0.06408024	0.0	-27.5	-23.125	-40.25	1.7297395	1.0159879	-0.2379902
1277307515784	2.9556155	6.4424243	10.528529	2.8854904	0.0	-30.4375	-22.125	-37.6875	1.8933601	0.978268	-0.43012622
1277307515814	5.407278	5.7477865	9.302697	2.3923616	0.0	-34.625	-22.375	-33.375	2.305328	0.8672888	-0.75488263
1277307515844	5.2165933	7.273266	8.689782	2.6683464	0.0	-38.25	-22.375	-28.0	1.9929883	0.77061397	-0.62219536
1277307515874	7.8861814	8.349273	8.771504	4.6447	0.0	-41.1875	-22.625	-21.625	2.17585	0.6522396	-0.7568824
1277307515904	11.917805	7.5865335	8.812365	6.844095	0.0	-43.625	-22.375	-12.6875	2.8483021	0.5577134	-1.0039192
1277307515934	6.4424243	5.5571017	4.7535014	-0.060780525	0.0	-44.625	-22.875	-3.5	2.6228194	0.50950503	-0.85904455
1277307515974	6.5513873	6.2789803	1.8387469	-0.54774857	0.0	-44.375	-23.375	4.125	2.348476	0.19992146	-0.8066264
1277307516014	4.2904096	5.2165933	2.152015	-2.717812	0.0	-42.9375	-24.1875	11.3125	2.5177643	0.30844557	-0.68828344
1277307516054	4.440233	5.2165933	0.8036005	-2.9092383	0.0	-40.9375	-25.9375	15.375	2.5341902	0.11677275	-0.70517576
1277307516094	6.1700177	5.434519	-3.9090397	-0.70260143	0.0	-38.75	-27.5	18.1875	0.9104542	-0.44379926	-0.8486938
1277307516134	5.175732	5.134871	-5.6660647	-0.5730486	0.0	-36.5625	-29.0	21.5	0.4225412	-0.6606566	-0.7893612
1277307516164	5.9793324	4.630918	-5.6660647	-0.35667133	0.0	-33.875	-30.3125	24.3125	-0.39507347	-0.64298236	-0.9118065
1277307516194	6.4424243	5.053149	-6.0474343	0.37227917	0.0	-31.4375	-31.0625	26.3125	-0.79733527	-0.63616246	-0.90566796
1277307516235	6.469665	4.099725	-6.1700177	0.028665543	0.0	-29.1875	-31.0625	28.625	-1.2433964	-0.67812365	-1.0059766
1277307516274	7.3141265	3.2961242	-3.5957718	-1.015151	0.0	-27.5	-30.5625	30.1875	-2.2038965	-0.421364	-1.1474005
1277307516314	8.281172	3.173541	-2.2201166	-0.66454506	0.0	-27.75	-29.25	30.1875	-2.4370716	-0.24529782	-1.2048354
1277307516354	8.049625	4.5219555	-2.6423476	-0.20318413	0.0	-28.75	-27.75	30.1875	-2.638724	-0.27874073	-1.0589694
1277307516394	8.349273	6.973618	-4.099725	1.8187294	0.0	-30.1875	-26.1875	29.125	-3.0848744	-0.3604047	-0.87493587
1277307516434	8.580819	8.580819	-4.9850473	3.312481	0.0	-32.625	-24.4375	27.625	2.6262221	-0.38977796	-0.7853982
1277307516474	8.471856	8.349273	-5.243834	3.1926003	0.0	-34.375	-23.375	26.625	2.3814006	-0.41522422	-0.79268545
1277307516504	8.689782	7.9270425	-6.6331096	3.6969957	0.0	-35.8125	-21.875	24.8125	1.7415196	-0.513477	-0.8312676
1277307516534	8.240311	8.430995	-5.6660647	3.2734375	0.0	-37.3125	-20.625	23.5625	1.8524835	-0.44802073	-0.77396077
1277307516564	7.0553403	7.4639506	-3.173541	0.94322205	0.0	-38.25	-19.5625	22.0	2.1339586	-0.29968223	-0.757263
1277307516604	6.510526	6.3607025	-2.3018389	-0.418149	0.0	-39.75	-18.3125	20.5	2.1578178	-0.24770164	-0.79703784
1277307516644	5.134871	5.09401	-1.7978859	-2.353582	0.0	-40.9375	-17.8125	18.6875	2.034734	-0.24363063	-0.7893928
1277307516684	6.2789803	2.8738933	-0.3405087	-2.8928375	0.0	-42.1875	-18.3125	15.875	3.0750062	-0.049270432	-1.141557
1277307516714	5.5571017	4.7126403	-1.8387469	-2.2919083	0.0	-43.125	-18.5625	13.3125	1.7098527	-0.24719511	-0.86744165
1277307516754	5.407278	3.2961242	0.040861044	-3.4738183	0.0	-44.125	-19.3125	11.0625	2.6238282	0.006452299	-1.0233685
1277307516794	5.243834	6.510526	-0.5720546	-1.4273901	0.0	-44.375	-21.125	8.75	1.8324473	-0.06832345	-0.6780488
1277307516834	6.932757	6.510526	-1.9477097	-0.0987339	0.0	-43.375	-23.125	8.0	1.4404675	-0.20200206	-0.8167961
1277307516864	7.4639506	5.2165933	-0.19068487	-0.6984253	0.0	-41.9375	-25.9375	6.9375	2.703748	-0.020936988	-0.96080554
1277307516894	7.082581	8.19945	0.313268	1.0327253	0.0	-40.6875	-28.75	5.6875	2.1040828	0.028904954	-0.71244407
1277307516924	7.668256	9.956474	-1.607201	2.8628654	0.0	-39.5	-30.0625	5.1875	1.4988568	-0.12719849	-0.65629035
1277307516957	9.084772	8.853226	-3.3642259	3.3170195	0.0	-39.0	-30.5625	5.1875	0.61082995	-0.259242	-0.79830563
1277307516994	6.891896	8.471856	-2.4108016	1.3773804	0.0	-39.5	-30.3125	5.4375	1.1514397	-0.21726272	-0.6829215
1277307517024	3.1054392	9.466142	-0.6537767	0.17728806	0.0	-39.75	-29.8125	5.6875	1.6760708	-0.065529734	-0.31699485
1277307517054	5.09401	9.112013	-0.6946377	0.655674	0.0	-39.75	-29.5	5.1875	1.6777016	-0.06644308	-0.5097597
1277307517094	7.1234417	9.697687	-0.53119355	2.2378807	0.0	-40.25	-28.75	3.375	1.6548421	-0.044116776	-0.63354
1277307517124	7.504812	8.390134	-1.1168685	1.5054655	0.0	-40.25	-28.0	2.375	1.3666236	-0.09889317	-0.7297573
1277307517155	6.469665	6.742072	-0.84446156	-0.42447472	0.0	-40.0	-27.25	1.625	1.3121568	-0.09012898	-0.76478255
1277307517194	4.7126403	4.944186	-0.42223078	-2.963242	0.0	-40.4375	-26.4375	1.3125	1.4274436	-0.061738115	-0.7614253
1277307517235	3.405087	3.2961242	0.38136974	-5.052232	0.0	-40.6875	-26.1875	0.8125	2.0237951	0.08030002	-0.8016569
1277307517274	4.1814466	3.1463003	0.08172209	-4.573068	0.0	-40.9375	-26.1875	-0.6875	1.589566	0.015615577	-0.9257335
1277307517304	3.2961242	4.372132	1.4982382	-4.1299706	0.0	-41.1875	-26.1875	-2.75	2.0732946	0.267093	-0.64598864
1277307517344	4.944186	5.012288	2.7921712	-2.2327328	0.0	-40.9375	-27.0	-3.75	2.5194023	0.3775629	-0.7785583
1277307517384	7.0553403	7.082581	2.5606253	0.51311684	0.0	-40.4375	-27.5	-4.25	2.2717447	0.25074756	-0.7834714
1277307517424	7.9270425	8.008764	1.4982382	1.5609798	0.0	-40.25	-28.0	-3.5	1.8839759	0.13218322	-0.78027004
1277307517458	8.308413	7.6954966	3.2961242	1.9880447	0.0	-39.75	-28.25	-2.25	2.635987	0.28322977	-0.82367736
1277307517494	8.771504	8.158588	4.671779	3.0513191	0.0	-39.5	-28.0	-1.75	2.7569082	0.37184745	-0.8215851
1277307517535	9.343558	9.084772	1.4982382	3.3112717	0.0	-39.25	-27.25	-1.75	2.006777	0.11446285	-0.7994401
1277307517574	7.273266	7.273266	-0.8036005	0.51064396	0.0	-39.0	-26.4375	-2.0	1.0084785	-0.07796766	-0.7853982
1277307517615	4.2086873	10.460427	-3.0237172	1.8671007	0.0	-38.5	-26.1875	-2.0	1.1392363	-0.26200587	-0.3825252
1277307517654	4.862464	9.615966	-0.9942854	1.0145769	0.0	-38.25	-26.1875	-1.4375	1.3433778	-0.09201265	-0.4681699
1277307517684	2.6014864	5.366417	-0.08172209	-3.8423529	0.0	-38.5	-27.0	0.5625	1.5707717	-0.013702309	-0.45139083
1277307517714	3.1463003	7.3958488	-1.3756552	-1.6524973	0.0	-37.3125	-28.75	1.875	1.3541774	-0.1695168	-0.4022216
1277307517744	2.6832085	6.469665	0.42223078	-2.7899232	0.0	-36.3125	-30.8125	3.125	1.825907	0.060211264	-0.39314565
1277307517774	4.2086873	7.8180795	-0.46309182	-0.91565037	0.0	-34.625	-32.8125	4.625	1.7209183	-0.052109037	-0.49383748
1277307517814	2.3018389	6.2789803	-0.61291564	-3.0910177	0.0	-32.625	-34.625	5.6875	1.6598982	-0.091394186	-0.3513811
1277307517854	4.5219555	5.9793324	-0.95342433	-2.2495666	0.0	-31.4375	-35.625	6.6875	1.7519656	-0.12650011	-0.6474982
1277307517894	5.175732	6.66035	-0.19068487	-1.3695402	0.0	-30.4375	-36.4375	7.6875	2.8934412	-0.022602657	-0.6606183
1277307517924	6.3198414	7.1234417	0.14982383	-0.2826662	0.0	-29.1875	-37.4375	8.25	-2.8184404	0.015731862	-0.72569215
1277307517958	5.243834	7.8861814	1.1849703	-0.26234245	0.0	-28.0	-38.1875	7.4375	2.9791915	0.12447585	-0.586806
1277307517994	4.7535014	8.662541	-0.29964766	0.07895565	0.0	-27.25	-39.25	7.1875	2.4245756	-0.030316155	-0.50187695
1277307518034	3.568531	9.234595	-0.19068487	0.09529495	0.0	-26.0625	-39.75	7.1875	2.1331468	-0.019258505	-0.36875427
1277307518074	5.6660647	10.760075	-0.29964766	2.3577766	0.0	-25.8125	-40.0	6.6875	2.49069	-0.024635602	-0.48468658
1277307518104	6.2789803	9.275456	0.42223078	1.4021835	0.0	-25.5625	-40.5	7.1875	-2.9723816	0.03767838	-0.59508514
1277307518134	4.3312707	7.504812	-0.19068487	-1.1395588	0.0	-25.5625	-40.75	8.0	2.8918035	-0.022002798	-0.5234354
1277307518164	5.134871	5.366417	-3.173541	-1.7297268	0.0	-25.3125	-41.25	9.0	-0.7814578	-0.40379897	-0.7633524
1277307518204	3.0645783	6.3198414	-0.61291564	-2.7562814	0.0	-24.5625	-41.25	11.0625	2.602727	-0.08704372	-0.45150596
1277307518234	1.56634	6.8237944	1.1441092	-2.7125273	0.0	-23.5625	-42.0	12.5625	2.5419798	0.16198307	-0.22563232
1277307518274	0.6537767	8.62168	1.5390993	-1.0243025	0.0	-22.625	-42.3125	12.8125	2.380066	0.17615888	-0.07568454
1277307518304	1.607201	11.686258	-0.14982383	1.9905605	0.0	-22.875	-42.3125	11.3125	2.136985	-0.012700278	-0.13667175
1277307518334	4.440233	12.571581	3.9499009	4.098818	0.0	-23.125	-43.0625	8.25	2.8093486	0.28801945	-0.33951926
1277307518374	4.399372	11.604536	-0.38136974	2.6096773	0.0	-23.125	-43.5625	4.375	2.00551	-0.030720012	-0.3623673
1277307518414	-0.040861044	9.112013	0.27240697	-0.6904745	0.0	-23.125	-44.0625	0.3125	1.6403984	0.029886164	0.004484275
1277307518444	-0.46309182	7.246025	0.040861044	-2.5457273	0.0	-22.375	-44.8125	-2.75	1.4716167	0.005627557	0.06382298
1277307518474	-0.19068487	7.6273947	1.6889231	-1.992178	0.0	-22.125	-45.3125	-5.0625	1.7714055	0.21784659	0.024994794
1277307518504	0.040861044	7.014479	3.0645783	-2.1518326	0.0	-22.125	-45.625	-6.3125	2.0913818	0.4118948	-0.0058251773
1277307518534	1.0351465	7.5865335	2.2201166	-1.8344522	0.0	-21.625	-46.625	-6.5625	2.0245957	0.28221363	-0.13560784
1277307518574	1.7297841	6.8237944	2.8330324	-2.2183437	0.0	-20.6875	-47.625	-6.8125	2.5640004	0.38260874	-0.2482635
1277307518614	3.0237172	9.80665	7.3549876	2.8190813	0.0	-19.1875	-47.625	-6.5625	2.967524	0.6218496	-0.29908442
1277307518654	3.759216	12.4489975	4.2495484	3.874282	0.0	-18.4375	-47.625	-7.0625	2.7384365	0.3158435	-0.29326257
1277307518684	1.1849703	11.032481	4.0588636	2.0083475	0.0	-18.1875	-47.375	-7.3125	2.224709	0.35067824	-0.10699722
1277307518714	-1.334794	12.258313	0.3405087	2.528822	0.0	-18.1875	-47.375	-6.8125	1.3354937	0.027607534	0.108461566
1277307518744	-0.84446156	9.507003	-0.19068487	-0.26031208	0.0	-18.1875	-48.375	-6.0625	1.2682041	-0.019975988	0.0885927
1277307518774	0.50395286	3.759216	1.1441092	-5.8450017	0.0	-17.5	-49.4375	-4.8125	2.3294625	0.29296932	-0.13326344
1277307518814	1.1168685	0.6537767	-2.6014864	-6.9010434	0.0	-16.5	-49.6875	-4.0	-0.7510419	-1.1091789	-1.0412067
1277307518854	-0.29964766	4.671779	-2.4108016	-4.540981	0.0	-15.5	-50.1875	-3.25	0.6347769	-0.47555715	0.0640522
1277307518894	-0.08172209	4.862464	-0.08172209	-4.942813	0.0	-14.8125	-50.4375	-2.25	1.3757824	-0.016802767	0.01680514
1277307518924	-1.0760075	7.7363577	-1.525479	-1.8482513	0.0	-14.0625	-50.6875	-0.1875	1.146911	-0.19287527	0.13819793
1277307518958	1.6480621	16.970953	-1.3075534	7.294199	0.0	-13.5625	-51.4375	2.375	1.3800286	-0.076536015	-0.096807204
1277307518994	0.46309182	13.021052	-1.334794	3.2908278	0.0	-14.3125	-50.9375	4.9375	1.5445534	-0.10208954	-0.035549868
1277307519034	2.982856	7.7363577	-0.50395286	-1.4998684	0.0	-15.25	-50.6875	6.4375	-2.2484157	-0.06070492	-0.36799937
1277307519074	0.50395286	8.499097	-0.88532263	-1.2467194	0.0	-16.0	-49.9375	8.0	1.7755775	-0.10361166	-0.05922553
1277307519104	1.1849703	8.62168	0.6946377	-1.0762405	0.0	-16.0	-49.4375	10.0	2.5654924	0.0796495	-0.13658503
1277307519134	3.214402	9.915613	1.2666923	0.69364834	0.0	-15.0625	-49.6875	11.3125	-3.0848248	0.12092845	-0.31348628
1277307519164	3.2961242	11.413852	1.3075534	2.1453438	0.0	-13.5625	-49.4375	13.3125	-3.105189	0.10961985	-0.28113428
1277307519204	6.8237944	11.141444	-0.6537767	3.274763	0.0	-13.0625	-49.6875	14.125	-2.2372077	-0.049998358	-0.54953784
1277307519244	4.140586	11.727119	1.1849703	2.686306	0.0	-12.8125	-49.9375	13.8125	-2.9022284	0.094993874	-0.33941412
1277307519284	2.4108016	11.645397	0.46309182	2.0946817	0.0	-13.5625	-50.1875	13.0625	2.9382997	0.03892075	-0.20413402
1277307519324	-0.3405087	11.264028	3.3778462	1.9578772	0.0	-15.25	-51.1875	10.5	2.543003	0.29122025	0.030220542
1277307519364	-3.405087	12.489859	-2.2201166	3.328041	0.0	-17.0	-51.75	6.9375	1.5426275	-0.1698423	0.26615977
1277307519404	-0.14982383	13.021052	1.334794	3.283496	0.0	-19.4375	-52.0	2.625	1.945989	0.10214692	0.01150577
1277307519444	1.9477097	10.923519	0.92618364	1.3277407	0.0	-21.125	-52.0	-2.25	1.7674289	0.08327848	-0.1764499
1277307519484	0.8036005	6.66035	0.19068487	-3.0952868	0.0	-22.625	-50.9375	-6.5625	1.2716266	0.028416064	-0.12007398
1277307519514	-0.6537767	5.243834	0.08172209	-4.521587	0.0	-23.5625	-50.1875	-10.375	1.2555919	0.015463457	0.12403531
1277307519544	0.040861044	4.440233	0.50395286	-5.3377233	0.0	-24.0625	-48.6875	-13.4375	1.2503614	0.11300859	-0.009202194
1277307519584	0.040861044	4.0180025	1.3756552	-5.5594816	0.0	-24.3125	-47.375	-16.0	1.5828209	0.32984814	-0.010169141
1277307519624	-0.7627395	3.3778462	1.56634	-6.005987	0.0	-24.5625	-46.625	-18.3125	1.5657899	0.42478275	0.2220819
1277307519654	0.6946377	4.399372	3.173541	-4.3377967	0.0	-24.0625	-46.375	-19.5625	2.2305927	0.61908925	-0.15660188
1277307519684	3.9499009	8.580819	9.275456	3.432166	0.0	-23.5625	-47.125	-19.3125	3.068235	0.7762742	-0.43140072
1277307519714	6.851035	14.669114	13.0619135	10.99559	0.0	-23.375	-48.125	-18.8125	3.098642	0.67886364	-0.43693215
1277307519744	2.152015	13.211738	9.302697	6.4943123	0.0	-23.375	-48.6875	-18.0625	2.3392649	0.60733855	-0.16146854
1277307519774	-3.255263	8.049625	6.5922484	1.0952282	0.0	-23.5625	-48.6875	-17.8125	1.7620813	0.64937556	0.38429314
1277307519814	-0.7218784	10.760075	3.255263	1.458209	0.0	-23.8125	-48.125	-19.0625	1.3935068	0.29315606	0.06698823
1277307519854	-5.6252036	7.6954966	-1.879608	-0.09086323	0.0	-23.8125	-47.125	-19.8125	1.0976207	-0.19468671	0.6312125
1277307519894	0.23154591	8.076866	-6.3607025	0.47673035	0.0	-23.5625	-47.125	-19.0625	0.46249688	-0.66688573	-0.028659942
1277307519924	5.053149	11.141444	-2.6832085	2.7179546	0.0	-23.5625	-47.375	-15.75	0.07065231	-0.21590856	-0.42579824
1277307519964	5.134871	9.765789	1.4573772	1.3226576	0.0	-23.375	-48.375	-10.375	-0.51084435	0.13132666	-0.48407546
1277307520004	2.152015	7.3958488	0.27240697	-2.0992541	0.0	-22.875	-49.6875	-4.8125	1.2265655	0.03535094	-0.28315753
1277307520034	1.6480621	8.19945	1.1441092	-1.3653193	0.0	-22.125	-50.1875	0.0625	2.1260865	0.13595504	-0.19835371
1277307520064	1.879608	7.3141265	0.27240697	-2.2499595	0.0	-21.375	-50.6875	3.625	2.1751566	0.036056258	-0.25154027
1277307520104	1.9477097	8.158588	-0.38136974	-1.4101286	0.0	-20.875	-50.6875	5.6875	1.9317982	-0.0454356	-0.23434494
1277307520134	1.334794	8.580819	1.607201	-0.97515965	0.0	-20.6875	-50.4375	8.25	2.5212374	0.18300503	-0.15431878
1277307520164	0.6537767	8.689782	1.1849703	-1.0121126	0.0	-19.9375	-50.6875	10.75	2.403142	0.13515042	-0.075093634
1277307520204	1.879608	9.507003	-0.42223078	-0.10642815	0.0	-18.9375	-50.1875	12.8125	2.4414804	-0.043541707	-0.1951905
1277307520244	2.2201166	10.923519	1.3075534	1.4166241	0.0	-17.5	-49.6875	14.375	2.7993035	0.116768904	-0.2005108
1277307520284	5.434519	9.888372	-0.14982383	1.4776907	0.0	-16.0	-49.9375	15.875	-2.5580142	-0.013277535	-0.5025259
1277307520314	4.671779	10.337844	2.6832085	1.8508005	0.0	-15.0625	-49.9375	16.125	-2.8986495	0.23225354	-0.4244415
1277307520354	3.255263	12.067628	1.3756552	2.7678003	0.0	-14.8125	-50.9375	15.625	3.0931141	0.10962023	-0.2634804
1277307520394	2.7921712	12.217452	2.7921712	3.0330763	0.0	-16.25	-51.75	14.375	2.9759266	0.21921499	-0.2246809
1277307520434	-3.636633	15.595298	-4.440233	6.8112335	0.0	-18.1875	-52.0	9.75	1.4684473	-0.27048212	0.2290939
1277307520464	-0.9125633	14.628253	3.0237172	5.1586905	0.0	-19.9375	-52.0	4.9375	2.1481512	0.20344862	0.062302876
1277307520504	3.336985	11.372991	0.50395286	2.0565004	0.0	-22.375	-50.9375	0.5625	1.9578668	0.042493314	-0.28540292
1277307520534	3.0237172	6.851035	0.7218784	-2.2833095	0.0	-23.8125	-50.6875	-4.25	2.2843363	0.09609969	-0.41563892
1277307520564	0.53119355	5.6660647	-0.88532263	-4.0472884	0.0	-25.0625	-49.9375	-7.3125	0.92700815	-0.1543308	-0.09347678
1277307520596	-0.19068487	4.440233	-1.3756552	-5.1542897	0.0	-26.75	-49.1875	-10.625	0.86971533	-0.30017743	0.042918414
1277307520635	-0.23154591	4.0588636	-0.9942854	-5.6213675	0.0	-26.75	-48.6875	-14.75	0.8573914	-0.23986046	0.056985214
1277307520674	-2.1792557	2.8330324	-0.10896278	-6.2307444	0.0	-26.75	-47.375	-17.5625	1.2222395	-0.030476099	0.6556957
1277307520704	-2.1792557	1.4573772	1.7297841	-6.6657495	0.0	-26.0625	-46.625	-19.3125	1.317605	0.58323705	0.98135287
1277307520734	2.0294318	7.205164	4.862464	-0.88047886	0.0	-25.0625	-46.625	-18.8125	2.393461	0.57608193	-0.27455062
1277307520764	8.771504	17.24336	15.213928	14.805061	0.0	-24.5625	-47.375	-17.5625	3.1200643	0.66639733	-0.47057447
1277307520804	4.099725	12.912089	11.182305	7.759617	0.0	-24.3125	-48.125	-16.0	2.7614245	0.69005334	-0.3074431
1277307520844	-1.7978859	7.8589406	5.7477865	0.094480515	0.0	-24.0625	-48.6875	-15.5	1.902432	0.6193649	0.2248994
1277307520884	-2.8330324	11.836082	-0.14982383	2.364684	0.0	-23.8125	-48.375	-16.5	1.1118062	-0.012309876	0.23493557
1277307520914	-3.2961242	4.6036777	-3.5276701	-3.1356125	0.0	-24.3125	-47.875	-17.0	1.0468106	-0.5571906	0.62136805
1277307520944	2.5606253	8.771504	-7.04172	1.7294626	0.0	-23.5625	-48.125	-16.75	0.19809413	-0.6565739	-0.28403258
1277307520984	5.366417	12.639683	-1.7570249	4.037018	0.0	-23.375	-49.4375	-14.5	0.10263556	-0.12726226	-0.4015055
1277307521024	1.7297841	8.662541	0.95342433	-0.9217863	0.0	-23.5625	-50.9375	-10.625	1.226531	0.10751585	-0.19709316
1277307521054	-1.9885708	7.8180795	0.5720546	-1.7193747	0.0	-22.875	-52.5	-5.5625	1.5040092	0.07079427	0.24907365
1277307521094	1.2258313	8.158588	-0.29964766	-1.5510454	0.0	-22.875	-53.0	-0.6875	1.3888671	-0.036304247	-0.14913484
1277307521124	2.8738933	7.6273947	-1.1441092	-1.5758905	0.0	-22.375	-52.75	3.625	0.49159986	-0.13945568	-0.3603353
1277307521155	2.4516625	8.117727	1.3075534	-1.2265663	0.0	-21.375	-52.75	7.6875	2.8309891	0.15299013	-0.29330295
1277307521194	1.7297841	8.349273	1.7978859	-1.0925865	0.0	-21.125	-52.75	10.25	2.7080917	0.20781258	-0.2042877
1277307521234	2.0294318	9.193735	-0.0	-0.39159012	0.0	-19.9375	-53.0	12.5625	2.5720208	-0.0	-0.21725672
1277307521274	3.6774938	10.038197	2.2609777	1.1204433	0.0	-18.6875	-53.5	14.375	-3.10839	0.2084205	-0.35116565
1277307521314	4.2904096	10.269742	-0.19068487	1.3249073	0.0	-17.25	-53.75	15.875	-2.8299432	-0.017130954	-0.3957325
1277307521354	6.2108784	10.228881	1.607201	2.2676249	0.0	-15.75	-53.5	17.125	-2.6068068	0.13350576	-0.5456898
1277307521394	2.7240696	11.836082	2.982856	2.6997814	0.0	-16.0	-54.0	16.625	3.0243444	0.2408269	-0.22621046
1277307521434	1.6480621	13.184497	3.405087	3.9098253	0.0	-17.5	-54.5	14.125	2.7753136	0.25087118	-0.124354996
1277307521464	-2.1792557	15.854085	-4.8216033	6.9070873	0.0	-19.6875	-54.5	8.75	1.3365793	-0.29264048	0.136601
1277307521504	-2.1792557	15.4046135	1.5390993	5.8272905	0.0	-21.875	-54.5	2.875	1.8333179	0.098605745	0.14053516
1277307521534	3.990762	11.727119	0.6946377	2.6003656	0.0	-23.8125	-54.25	-2.5	1.7291206	0.056016788	-0.32800916
1277307521564	4.140586	7.246025	0.3405087	-1.4540892	0.0	-25.5625	-53.25	-7.0625	-0.7370283	0.04077828	-0.51914614
1277307521604	0.313268	6.2108784	-0.46309182	-3.5706577	0.0	-27.0	-52.25	-10.375	1.0388079	-0.074329555	-0.050395895
1277307521644	-1.0351465	4.903325	-1.7297841	-4.5051146	0.0	-28.0	-50.9375	-14.75	0.9293431	-0.33236533	0.20805617
1277307521674	-1.56634	3.8273177	-1.4165162	-5.435346	0.0	-28.25	-49.1875	-19.0625	0.9910674	-0.33000618	0.3884573
1277307521704	-3.1054392	2.3699405	-0.10896278	-5.8986783	0.0	-28.0	-47.375	-22.875	1.1716942	-0.027885797	0.9189272
1277307521734	-2.8738933	0.88532263	0.88532263	-6.671869	0.0	-28.0	-47.125	-25.1875	1.0898641	0.2863151	1.2719644
1277307521764	-0.3405087	3.8273177	3.636633	-4.5161486	0.0	-27.75	-47.125	-25.4375	1.9342166	0.757888	0.08873434
1277307521804	7.9270425	14.410328	14.2877445	11.979473	0.0	-27.5	-48.375	-23.9375	3.0993195	0.71526647	-0.5029158
1277307521844	4.9850473	12.912089	10.419566	7.5179024	0.0	-27.75	-49.6875	-22.625	2.6736493	0.64529413	-0.36844558
1277307521884	-3.173541	3.0237172	7.205164	-1.3728714	0.0	-27.75	-49.6875	-22.625	2.6736493	0.64529413	-0.36844558
1277307521914	0.27240697	12.871228	0.7627395	3.0900354	0.0	-28.0	-49.6875	-22.875	0.9355371	0.05917682	-0.021160863
1277307521944	-2.6014864	14.47843	-1.4982382	4.979741	0.0	-28.5	-48.6875	-23.125	0.9298312	-0.10149967	0.17778312
1277307521984	-4.1814466	5.7886477	-1.1168685	-2.5789027	0.0	-29.0	-48.125	-22.625	1.1084913	-0.15514676	0.6255709
1277307522024	4.399372	9.343558	-7.5456724	2.9837255	0.0	-28.5	-48.9375	-19.8125	0.09987002	-0.630996	-0.44005316
1277307522054	7.7363577	12.340035	0.10896278	4.758362	0.0	-28.25	-50.1875	-15.5	-0.17878416	0.007481202	-0.55998707
1277307522094	-0.040861044	7.7772183	1.9477097	-1.7891464	0.0	-28.0	-51.75	-11.6875	1.6131617	0.24538745	0.005253892
1277307522124	-1.920469	7.668256	0.7627395	-1.8648543	0.0	-27.5	-53.0	-6.8125	1.5080512	0.09618945	0.24539655
1277307522154	1.7297841	7.9270425	-0.29964766	-1.68754	0.0	-27.5	-53.25	-2.5	1.2805082	-0.036914848	-0.21484521
1277307522184	2.4516625	7.8180795	-0.42223078	-1.6023045	0.0	-27.5	-53.5	0.3125	1.30927	-0.051487032	-0.30387655
1277307522224	2.6014864	8.240311	0.84446156	-1.12428	0.0	-27.5	-53.25	3.625	2.313192	0.09741565	-0.30579975
1277307522264	1.9477097	8.076866	1.6480621	-1.3363819	0.0	-26.75	-53.0	6.1875	2.4764843	0.1958193	-0.23662895
1277307522304	2.7649305	8.771504	-0.08172209	-0.6093235	0.0	-26.0625	-53.0	8.25	2.2847273	-0.008885535	-0.30535856
1277307522334	3.1463003	10.119919	2.7240696	1.1355858	0.0	-25.3125	-52.75	10.5	2.8082743	0.25159597	-0.30142814
1277307522374	3.568531	10.501288	-0.0	1.2844038	0.0	-24.0625	-52.5	11.8125	2.6789663	-0.0	-0.3275757
1277307522414	6.469665	10.310603	1.8387469	2.5037556	0.0	-23.125	-52.5	12.5625	-2.7628992	0.1499263	-0.5603785
1277307522444	2.8330324	11.917805	1.4573772	2.529642	0.0	-23.375	-52.0	12.0625	2.6187832	0.11841391	-0.23338264
1277307522484	4.2904096	11.686258	2.7921712	2.951581	0.0	-23.8125	-51.75	10.0	2.9406717	0.22063833	-0.3518557
1277307522524	-2.8330324	16.017529	-2.070293	6.5907097	0.0	-25.3125	-50.9375	6.4375	1.5888327	-0.12659557	0.17506024
1277307522564	-3.718355	14.437569	-0.88532263	5.1283207	0.0	-27.5	-50.1875	2.125	1.5617748	-0.05931327	0.25206918
1277307522594	2.3018389	12.830367	2.0294318	3.3855963	0.0	-29.0	-48.6875	-2.25	1.8600763	0.15444851	-0.17751707
1277307522625	5.243834	8.471856	-0.040861044	0.1568737	0.0	-30.1875	-46.375	-6.3125	0.1904577	-0.004101075	-0.55425215
1277307522654	1.8387469	6.0474343	0.42223078	-3.4717684	0.0	-31.1875	-44.5625	-8.875	1.2606227	0.06670117	-0.29517195
1277307522685	-0.7627395	5.706926	-0.84446156	-3.987381	0.0	-31.6875	-42.5625	-11.6875	1.1388739	-0.14562891	0.13286418
1277307522724	-0.6537767	4.8216033	-1.4982382	-4.7154813	0.0	-31.4375	-40.75	-14.75	0.9767972	-0.29870394	0.13477127
1277307522754	-2.1111538	4.1814466	-1.0351465	-5.0094643	0.0	-31.1875	-39.5	-17.3125	1.1309329	-0.21749265	0.46754876
1277307522794	-3.2961242	2.4108016	-0.0	-5.7229753	0.0	-30.6875	-38.1875	-20.0625	1.1817449	-0.0	0.9393026
1277307522834	-1.7978859	2.6014864	2.070293	-6.026936	0.0	-30.1875	-37.9375	-21.125	1.3589453	0.57965815	0.60472745
1277307522874	5.938472	12.571581	11.114203	7.993227	0.0	-29.6875	-38.6875	-20.375	2.501063	0.6743603	-0.44130254
1277307522914	7.4639506	14.859799	13.0619135	11.338984	0.0	-29.4375	-38.9375	-19.3125	2.5936928	0.66583	-0.4654791
1277307522944	-0.7627395	6.6331096	7.9270425	0.55761147	0.0	-29.0	-39.75	-18.0625	2.018926	0.87079906	0.114486896
1277307522984	0.3405087	12.299174	5.175732	3.5415277	0.0	-28.5	-40.0	-17.5625	1.5569676	0.39818743	-0.027678423
1277307523024	-5.706926	8.580819	-2.2201166	0.7350941	0.0	-28.75	-40.0	-17.5625	1.1463326	-0.21219115	0.5869029
1277307523054	-4.2904096	4.2086873	-2.6832085	-3.2248363	0.0	-28.0	-40.75	-16.75	1.2027359	-0.419901	0.7950133
1277307523094	4.5628166	12.217452	-8.499097	5.759983	0.0	-27.75	-40.75	-15.0	0.29444343	-0.5775604	-0.35742608
1277307523124	7.43671	12.571581	0.040861044	4.7998886	0.0	-27.5	-41.5	-11.6875	0.21646652	0.0027974525	-0.53418255
1277307523154	1.1441092	8.008764	1.1441092	-1.6360769	0.0	-26.75	-42.5625	-7.5625	1.5191258	0.14048973	-0.14189707
1277307523194	-2.2609777	7.3141265	0.9942854	-2.0867362	0.0	-27.0	-43.0625	-4.0	1.5787188	0.12915364	0.29980698
1277307523234	2.3699405	8.19945	-0.08172209	-1.2711792	0.0	-26.3125	-44.0625	-0.1875	1.5200288	-0.009574555	-0.2813685
1277307523274	2.8330324	8.008764	0.61291564	-1.2894888	0.0	-25.8125	-44.3125	2.375	2.1310096	0.07202469	-0.34000412
1277307523314	2.2609777	8.158588	1.56634	-1.196888	0.0	-25.5625	-44.3125	4.9375	2.3961515	0.18294482	-0.27034402
1277307523344	1.4982382	8.580819	1.5390993	-0.9610863	0.0	-25.0625	-44.3125	7.4375	2.3135233	0.17488688	-0.1728606
1277307523384	2.5606253	8.62168	-1.0760075	-0.7486172	0.0	-24.3125	-44.3125	9.5	1.8926319	-0.11907159	-0.28870076
1277307523424	2.4516625	9.956474	2.152015	0.67061996	0.0	-23.125	-44.0625	11.5625	2.6302092	0.20687081	-0.24143487
1277307523468	3.214402	10.882658	-0.10896278	1.5413227	0.0	-21.875	-43.5625	13.0625	2.5406184	-0.009602107	-0.28720295
1277307523504	5.8976107	10.732834	1.7978859	2.5710688	0.0	-19.9375	-43.5625	13.8125	-2.973091	0.14576747	-0.5024534
1277307523534	8.580819	10.923519	-0.08172209	4.0843697	0.0	-18.6875	-44.0625	14.875	-2.4327095	-0.005883122	-0.66585904
1277307523574	5.6660647	11.182305	0.42223078	2.7363367	0.0	-18.1875	-44.5625	14.375	-2.9011776	0.033669055	-0.46899256
1277307523614	-4.862464	12.067628	2.9147544	3.5262785	0.0	-18.6875	-45.0625	12.5625	2.0974262	0.22039308	0.38303357
1277307523654	-2.7240696	13.565866	-1.6889231	4.1327095	0.0	-20.4375	-45.625	10.0	1.7412162	-0.1214606	0.19816777
1277307523684	0.95342433	13.565866	-0.27240697	3.7954063	0.0	-22.125	-45.3125	6.1875	1.841826	-0.020028234	-0.07016575
1277307523714	1.6480621	11.413852	1.607201	1.8370275	0.0	-23.8125	-45.0625	3.625	2.1086066	0.1384742	-0.14340031
1277307523744	2.1792557	9.00305	0.6537767	-0.5205593	0.0	-25.0625	-45.0625	1.3125	1.907003	0.07046216	-0.2374895
1277307523774	2.2201166	7.273266	1.1441092	-2.116507	0.0	-25.5625	-45.0625	-0.1875	2.1469557	0.14933045	-0.29626033
1277307523814	0.3405087	6.1700177	0.50395286	-3.606728	0.0	-26.75	-45.0625	-2.25	1.634054	0.08137351	-0.055131715
1277307523854	-0.3405087	4.2495484	-0.5720546	-5.505272	0.0	-27.5	-44.5625	-5.0625	1.2400885	-0.13338853	0.07995737
1277307523894	-0.88532263	3.759216	-0.7218784	-5.877705	0.0	-28.0	-43.5625	-8.125	1.1972089	-0.18478316	0.2312926
1277307523924	-0.9125633	3.6774938	0.7218784	-5.9494696	0.0	-28.0	-42.5625	-10.625	1.4651657	0.18826194	0.243235
1277307523954	-0.27240697	4.5219555	2.6832085	-4.5414915	0.0	-27.5	-41.75	-12.6875	1.8772095	0.5347383	0.06016825
1277307523984	1.1849703	7.6954966	6.3607025	0.24737167	0.0	-26.5	-41.75	-13.6875	2.309244	0.6849736	-0.15278232
1277307524024	6.5513873	13.402422	12.026767	9.355518	0.0	-25.0625	-42.5625	-13.4375	2.9566762	0.6785062	-0.45466462
1277307524054	3.445948	12.14935	8.62168	5.4843483	0.0	-24.8125	-42.8125	-13.6875	2.4825664	0.59902835	-0.27637374
1277307524094	-2.6014864	4.2904096	7.205164	-1.0265741	0.0	-24.8125	-42.5625	-13.6875	1.8302056	0.96250665	0.54507494
1277307524124	-0.29964766	8.730643	4.099725	-0.15669346	0.0	-25.0625	-42.3125	-13.9375	1.7566787	0.4387894	0.03430791
1277307524154	-0.38136974	16.821129	0.313268	7.021717	0.0	-25.5625	-41.75	-14.5	1.09276	0.018616548	0.022668181
1277307524184	-0.50395286	8.580819	-1.56634	-1.0694971	0.0	-25.0625	-42.0	-14.75	0.90098476	-0.18024792	0.058662772
1277307524224	-0.5720546	5.053149	-4.5219555	-3.0015311	0.0	-24.5625	-42.5625	-13.6875	0.6747069	-0.7268155	0.112727605
1277307524264	5.6252036	13.102775	-4.2086873	5.0607185	0.0	-24.0625	-43.8125	-10.875	0.19442604	-0.28700623	-0.4055189
1277307524304	3.173541	10.56939	0.3405087	1.2341528	0.0	-23.125	-44.8125	-7.875	0.9703165	0.030845828	-0.2916932
1277307524334	-3.2961242	8.049625	0.38136974	-1.099966	0.0	-23.125	-45.625	-3.75	1.5119127	0.04381597	0.38864812
1277307524374	-0.7627395	8.539958	0.6537767	-1.2078085	0.0	-22.375	-46.125	-0.1875	1.689776	0.07610423	0.08907784
1277307524414	2.2609777	7.9679036	-0.50395286	-1.508851	0.0	-21.875	-45.625	2.625	1.5233046	-0.060770717	-0.27649257
1277307524444	1.9477097	7.205164	1.1168685	-2.2597733	0.0	-21.375	-45.3125	5.6875	2.5432715	0.14853641	-0.26401132
1277307524484	1.0760075	7.7363577	0.84446156	-1.9503064	0.0	-20.6875	-45.3125	7.6875	2.301674	0.10769592	-0.13819794
1277307524514	2.152015	8.853226	-0.9125633	-0.65003777	0.0	-19.9375	-45.0625	9.5	2.0575047	-0.099827394	-0.2384523
1277307524544	3.2961242	9.534244	2.4925237	0.5846405	0.0	-18.9375	-45.0625	11.3125	3.0025444	0.24222843	-0.33285174
1277307524574	3.0237172	10.61025	1.9885708	1.4038229	0.0	-18.4375	-45.3125	12.3125	2.890865	0.17832877	-0.27762136
1277307524614	5.829509	10.419566	0.313268	2.1369114	0.0	-17.5	-45.0625	13.5625	-2.7151668	0.026232036	-0.5100902
1277307524654	4.2495484	11.304889	2.7240696	2.573969	0.0	-17.0	-45.875	14.375	-3.132357	0.22184208	-0.35956264
1277307524684	4.8216033	11.75436	1.7978859	3.024766	0.0	-17.25	-46.125	13.5625	-3.0657067	0.1405785	-0.38926587
1277307524714	4.5628166	11.223166	2.8738933	2.6447763	0.0	-17.75	-46.125	11.5625	-3.100633	0.23290838	-0.38614306
1277307524744	-1.9477097	14.750836	0.23154591	5.0740213	0.0	-19.1875	-46.125	8.0	1.9039247	0.015560808	0.1312812
1277307524774	-3.5276701	15.322891	-3.405087	6.2815475	0.0	-20.875	-46.125	4.625	1.4411293	-0.21326417	0.22627945
1277307524814	0.6537767	13.565866	1.56634	3.8649836	0.0	-22.625	-46.125	2.125	1.9240581	0.114820726	-0.048155513
1277307524854	5.8567495	9.915613	-0.10896278	1.70998	0.0	-24.3125	-45.625	-0.4375	-1.1834079	-0.009461484	-0.5335231
1277307524894	2.2201166	7.3141265	0.5720546	-2.141625	0.0	-25.8125	-45.3125	-2.75	1.661818	0.07470126	-0.29469967
1277307524924	-0.29964766	5.6252036	-1.607201	-3.9486814	0.0	-27.0	-44.0625	-6.5625	1.020272	-0.2779256	0.053218465
1277307524954	-0.3405087	4.671779	-1.9477097	-4.733679	0.0	-28.25	-42.5625	-11.6875	0.87147576	-0.39405805	0.07275764
1277307524984	-1.2666923	4.2495484	-1.4982382	-5.126064	0.0	-29.0	-41.5	-15.25	1.0167913	-0.32583112	0.28969157
1277307525024	-2.6014864	2.7240696	-0.38136974	-6.020659	0.0	-28.5	-40.0	-18.3125	1.1928698	-0.100902945	0.76238436
1277307525054	-2.3699405	2.8330324	2.2609777	-5.4759793	0.0	-28.75	-40.0	-19.5625	1.3582454	0.54929364	0.69662684
1277307525084	0.42223078	8.076866	5.09401	-0.24825191	0.0	-28.5	-41.0	-19.3125	1.8047287	0.562066	-0.052229017
1277307525114	6.5513873	14.628253	13.824653	11.360008	0.0	-28.0	-42.0	-18.5625	2.7150102	0.71171504	-0.42107165
1277307525144	9.656827	13.443283	9.384419	9.220791	0.0	-28.0	-43.3125	-17.0	-2.9078264	0.5157696	-0.6229279
1277307525174	3.1463003	6.701211	5.325556	-0.6870575	0.0	-28.0	-43.8125	-16.5	2.7590573	0.6236089	-0.43896127
1277307525214	2.7240696	-0.19068487	5.706926	-3.4800458	0.0	-27.25	-43.5625	-16.5	-1.8833005	1.1245	-1.6406823
1277307525254	-0.42223078	-1.8387469	-7.6954966	-1.8832707	0.0	-26.75	-43.5625	-16.5	-2.779753	-1.3303809	2.9158762
1277307525294	-7.205164	17.393185	2.3699405	9.168436	0.0	-26.5	-44.0625	-14.5	1.3205346	0.12522452	0.392732
1277307525324	3.0645783	10.18802	5.134871	2.0066595	0.0	-25.0625	-45.0625	-10.625	2.4120946	0.44966993	-0.29219255
1277307525364	-6.0474343	4.6036777	-4.671779	-0.8852806	0.0	-24.3125	-46.125	-7.0625	1.369075	-0.5511434	0.92012686
1277307525404	5.8567495	12.4489975	-10.460427	7.4762783	0.0	-24.0625	-47.375	-4.0	0.04541685	-0.6500752	-0.4397372
1277307525444	2.9147544	10.800936	2.6832085	1.6979408	0.0	-23.5625	-48.125	-1.1875	2.3985338	0.23539731	-0.26358253
1277307525484	-6.2108784	8.62168	2.4925237	1.1076097	0.0	-23.375	-48.375	1.3125	1.7204145	0.23040631	0.6242727
1277307525524	7.205164	6.851035	-1.4165162	0.23613739	0.0	-22.875	-48.9375	4.375	-1.431451	-0.14152002	-0.81058663
1277307525565	4.140586	7.8861814	2.1111538	-0.6527834	0.0	-22.125	-48.375	8.0	-2.9979026	0.2327248	-0.48348087
1277307525604	2.3699405	7.504812	-0.29964766	-1.9308257	0.0	-21.375	-48.125	9.5	2.4759307	-0.0380557	-0.30587885
1277307525634	1.1441092	7.5456724	-0.040861044	-2.1746235	0.0	-20.875	-47.625	10.5	2.2193184	-0.005353917	-0.15047838
1277307525664	2.9556155	9.193735	2.5606253	0.18420696	0.0	-20.6875	-47.125	11.8125	2.9299705	0.25918913	-0.3110462
1277307525704	4.372132	9.343558	2.4108016	0.78719616	0.0	-19.9375	-47.375	12.5625	-3.0573287	0.2295776	-0.4376641
1277307525734	4.903325	9.425281	1.8387469	0.97571945	0.0	-18.9375	-47.625	13.0625	-2.9058917	0.1713703	-0.47970125
1277307525764	6.891896	11.917805	1.0351465	3.9992847	0.0	-18.4375	-47.875	13.3125	-2.7031586	0.0750488	-0.52430004
1277307525804	6.851035	12.026767	-1.1441092	4.081791	0.0	-18.6875	-48.6875	11.8125	-2.334366	-0.08247198	-0.51780355
1277307525844	-5.5162406	14.2877445	2.2201166	5.669056	0.0	-19.6875	-48.375	9.5	1.9643072	0.14395487	0.36845082
1277307525884	-4.0180025	15.4046135	-0.61291564	6.125147	0.0	-21.375	-48.125	6.4375	1.7174338	-0.038480714	0.2551464
1277307525924	2.9556155	12.340035	1.0760075	2.9279451	0.0	-23.125	-47.875	2.375	2.1081626	0.0845957	-0.23508573
1277307525954	5.5571017	9.765789	0.19068487	1.43116	0.0	-24.5625	-46.875	-0.9375	-1.5490317	0.016968966	-0.5173419
1277307525984	3.3778462	8.662541	1.5390993	-0.3823042	0.0	-26.0625	-46.375	-4.0	2.1303458	0.16404577	-0.37180147
1277307526091	1.0351465	7.5456724	-0.42223078	-2.1786108	0.0	-27.75	-45.3125	-7.0625	1.1423044	-0.055380773	-0.13633314
1277307526124	-2.2201166	3.486809	-0.6946377	-5.6150784	0.0	-28.5	-43.8125	-11.1875	1.2726191	-0.1664906	0.5669819
1277307526155	-2.3426998	2.152015	0.7218784	-6.544669	0.0	-28.75	-42.8125	-14.5	1.3318827	0.22314796	0.82779694
1277307526184	-0.84446156	3.1054392	1.920469	-6.058975	0.0	-28.75	-42.0	-17.3125	1.6232698	0.53802705	0.26550967
1277307526225	3.7864566	11.182305	8.390134	4.676981	0.0	-27.75	-42.8125	-18.3125	2.4005492	0.6178498	-0.3264933
1277307526264	9.152874	15.785983	12.026767	12.047766	0.0	-27.0	-43.5625	-17.8125	3.0289261	0.58273894	-0.52544177
1277307526304	-1.9477097	8.349273	7.164303	1.3661366	0.0	-27.25	-44.0625	-17.8125	1.8347492	0.6960974	0.22918037
1277307526334	2.8330324	15.241169	5.597963	6.675356	0.0	-27.0	-44.3125	-18.5625	1.517381	0.34653506	-0.18378276
1277307526374	-4.0588636	3.6774938	-4.5900574	-2.6605349	0.0	-27.25	-43.3125	-19.5625	1.1810104	-0.69751495	0.83465403
1277307526414	-1.920469	9.112013	-6.851035	1.7542171	0.0	-27.5	-43.8125	-19.8125	0.75756156	-0.63428986	0.2077222
1277307526444	9.888372	15.935807	-2.982856	9.183538	0.0	-26.3125	-44.5625	-18.3125	-0.043382235	-0.15772669	-0.55536604
1277307526474	3.445948	8.499097	0.6537767	-0.61227036	0.0	-26.0625	-45.875	-15.25	0.54172766	0.07116618	-0.3851947
1277307526514	-5.325556	7.4639506	2.5333846	-0.2940197	0.0	-25.5625	-47.125	-11.4375	1.4722747	0.26957104	0.6197314
1277307526544	-1.4573772	9.343558	-0.50395286	-0.33669853	0.0	-25.3125	-47.625	-7.3125	1.2823553	-0.05324114	0.15472993
1277307526574	3.6774938	8.308413	-2.7240696	-0.32117558	0.0	-25.0625	-48.375	-4.25	0.16796039	-0.29128495	-0.4167022
1277307526604	5.09401	7.43671	-1.6480621	-0.64315224	0.0	-24.3125	-48.6875	-1.4375	-0.5911042	-0.18083473	-0.60057527
1277307526634	3.7864566	7.7772183	1.9885708	-0.93102074	0.0	-23.5625	-49.4375	0.3125	-3.1053636	0.22596654	-0.4530846
1277307526664	2.9556155	8.308413	1.5390993	-0.8548784	0.0	-22.625	-49.6875	2.875	2.776094	0.17279091	-0.34177718
1277307526694	2.0294318	8.117727	1.0351465	-1.3753033	0.0	-22.375	-49.1875	5.4375	2.4546847	0.123084106	-0.24497867
1277307526745	2.7240696	8.662541	1.1168685	-0.65746593	0.0	-21.375	-49.4375	7.1875	2.755377	0.12237825	-0.30467442
1277307526784	3.0237172	8.894087	1.920469	-0.21833134	0.0	-20.4375	-49.1875	9.0	2.9627917	0.20165654	-0.32771105
1277307526814	4.671779	9.384419	-1.334794	0.76096725	0.0	-19.4375	-49.6875	9.5	-2.090138	-0.12664813	-0.46190444
1277307526844	8.62168	9.997335	-0.7627395	3.4168844	0.0	-18.0	-50.4375	9.5	-1.9002991	-0.057712488	-0.71164775
1277307526874	6.3607025	11.876944	0.50395286	3.6757193	0.0	-18.0	-50.6875	9.0	-2.5083005	0.037387367	-0.49168187
1277307526915	-0.88532263	14.982383	2.8738933	5.4745426	0.0	-19.1875	-50.4375	8.0	2.22907	0.189194	0.059022278
1277307526954	-8.853226	14.369467	2.8330324	7.3072987	0.0	-20.6875	-49.6875	4.9375	1.7975225	0.1663049	0.5521836
1277307526994	-0.95342433	12.53072	-2.4516625	2.997201	0.0	-23.125	-48.9375	1.3125	1.2900661	-0.19266832	0.07594064
1277307527034	5.325556	11.454713	1.8387469	2.9586535	0.0	-25.0625	-47.875	-2.5	2.6943302	0.14454536	-0.4351941
1277307527064	4.0588636	9.80665	0.88532263	0.8436346	0.0	-26.3125	-47.125	-6.3125	1.2870187	0.083222695	-0.39242193
1277307527104	0.6946377	7.9270425	0.50395286	-1.8332891	0.0	-27.75	-46.375	-9.125	1.320449	0.06324673	-0.08740559
1277307527134	-0.42223078	6.2789803	-0.6537767	-3.479621	0.0	-28.75	-45.3125	-12.4375	1.08273	-0.10351552	0.06714403
1277307527174	-0.08172209	4.8216033	-0.88532263	-4.90376	0.0	-29.0	-43.8125	-15.5	0.9110782	-0.18156756	0.01694753
1277307527214	-1.4165162	4.099725	-0.0	-5.4691095	0.0	-29.1875	-43.0625	-19.0625	1.1415734	-0.0	0.33267367
1277307527254	-2.3699405	2.1792557	1.1849703	-6.3759174	0.0	-29.0	-42.3125	-20.625	1.2506175	0.35266346	0.8272898
1277307527294	-0.50395286	3.3778462	2.7240696	-5.438084	0.0	-28.25	-42.3125	-20.375	1.7886586	0.67329013	0.14810115
1277307527334	8.499097	14.437569	12.639683	11.180004	0.0	-27.75	-43.5625	-19.3125	3.026316	0.64634466	-0.5320538
1277307527364	6.742072	15.132206	11.264028	10.226261	0.0	-27.5	-44.3125	-17.8125	2.6821785	0.59713566	-0.41914257
1277307527404	-1.879608	11.114203	8.117727	4.0842085	0.0	-27.5	-45.3125	-17.3125	1.8350476	0.62413245	0.16753247
1277307527444	1.1168685	9.043911	-0.9942854	-0.6399536	0.0	-28.0	-45.0625	-18.0625	0.7653062	-0.10868097	-0.12287186
1277307527474	-6.0474343	2.7240696	-5.09401	-1.4435797	0.0	-28.5	-44.3125	-19.0625	1.3742465	-0.6549349	1.1475679
1277307527514	3.9499009	14.09706	-6.2108784	6.0963	0.0	-28.25	-44.8125	-18.3125	0.39073044	-0.40122768	-0.27318788
1277307527544	8.281172	12.571581	-0.14982383	5.2480803	0.0	-27.25	-45.3125	-17.3125	-0.12105171	-0.009952107	-0.582482
1277307527574	-0.88532263	7.668256	-0.10896278	-2.086688	0.0	-26.0625	-46.375	-14.75	1.113528	-0.014114888	0.114944026
1277307527614	-3.173541	8.921328	0.9942854	-0.28561783	0.0	-25.5625	-47.625	-11.4375	1.3836341	0.10462117	0.3417661
1277307527654	1.4165162	9.697687	-0.8036005	0.026834488	0.0	-25.3125	-47.875	-8.375	0.9664575	-0.081812054	-0.1450417
1277307527684	3.5957718	8.076866	-0.040861044	-0.9654398	0.0	-25.3125	-47.875	-4.25	0.6819402	-0.0046216734	-0.41885003
1277307527714	2.3018389	7.5865335	0.9942854	-1.8164964	0.0	-25.5625	-48.6875	-1.4375	2.0446332	0.124762245	-0.29458335
1277307527744	2.2609777	7.082581	0.38136974	-2.3621612	0.0	-24.8125	-48.9375	1.3125	2.007422	0.0512509	-0.309005
1277307527774	2.9147544	6.66035	-0.50395286	-2.5189881	0.0	-23.5625	-49.1875	3.125	1.2347193	-0.069206744	-0.41251773
1277307527814	3.255263	7.164303	2.152015	-1.6485167	0.0	-22.625	-49.6875	4.375	3.1392283	0.26694685	-0.42648426
1277307527854	2.4516625	8.62168	2.070293	-0.6071863	0.0	-21.125	-49.6875	6.4375	2.7897277	0.22698918	-0.2770473
1277307527894	4.944186	8.853226	-0.19068487	0.33538818	0.0	-19.6875	-50.1875	7.6875	-2.3132594	-0.018802542	-0.5093164
1277307527934	8.430995	9.724928	3.336985	3.4896412	0.0	-18.6875	-50.4375	8.25	-2.3992474	0.25368333	-0.7142506
1277307527967	2.7921712	12.217452	4.7126403	3.582574	0.0	-19.4375	-50.9375	6.9375	2.8518794	0.35967776	-0.22468089
1277307528004	-1.4573772	16.017529	0.88532263	6.3013897	0.0	-20.875	-50.9375	3.375	1.8047366	0.054989245	0.09073655
1277307528044	-5.8976107	17.311462	-0.8036005	8.499477	0.0	-23.375	-49.9375	-0.4375	1.5138028	-0.04391201	0.3283449
1277307528074	4.399372	12.789507	1.5390993	3.8056526	0.0	-26.0625	-49.4375	-4.5	1.7749506	0.11330909	-0.33130437
1277307528114	7.668256	10.732834	1.3075534	3.4487476	0.0	-27.5	-47.125	-7.3125	-1.2059084	0.09880377	-0.62036955
1277307528154	1.9477097	10.119919	1.4165162	0.59589005	0.0	-29.4375	-45.875	-9.375	1.4529539	0.1365946	-0.19013803
1277307528184	-0.7218784	7.6273947	-0.14982383	-2.1437068	0.0	-30.6875	-44.3125	-12.1875	1.2128123	-0.01955298	0.09436178
1277307528224	-0.6946377	4.9850473	-1.4165162	-4.577909	0.0	-31.6875	-42.3125	-15.0	0.9866798	-0.27433786	0.13845275
1277307528264	-2.070293	2.9556155	-1.334794	-5.9591246	0.0	-32.125	-41.5	-18.0625	1.1515274	-0.35428804	0.61103517
1277307528304	-2.5333846	1.7297841	0.42223078	-6.710125	0.0	-31.1875	-40.5	-20.0625	1.1926602	0.13678244	0.97171044
1277307528344	-0.7627395	2.1111538	2.1792557	-6.6780887	0.0	-30.4375	-41.25	-20.625	1.688009	0.77060294	0.34669742
1277307528384	10.95076	15.6634	13.565866	13.630371	0.0	-29.0	-42.5625	-19.5625	-3.0968642	0.6172835	-0.6101422
1277307528424	5.09401	8.662541	8.580819	3.4076986	0.0	-28.25	-43.5625	-19.3125	3.0226724	0.7067375	-0.5315866
1277307528454	-2.9147544	1.1168685	4.372132	-4.4346185	0.0	-28.0	-44.0625	-18.8125	1.2087284	0.9507807	1.2048756
1277307528494	2.9147544	13.375181	0.7627395	3.903676	0.0	-28.0	-44.0625	-18.8125	1.2087284	0.9507807	1.2048756
1277307528534	-0.040861044	11.876944	1.6480621	2.1841612	0.0	-29.0	-43.3125	-18.5625	1.1672184	0.1378802	0.0034403533
1277307528564	-2.9556155	5.175732	-3.486809	-2.9014564	0.0	-29.1875	-43.5625	-17.5625	1.0496505	-0.52932936	0.51886266
1277307528604	3.636633	10.501288	-7.246025	3.4601145	0.0	-29.0	-44.3125	-16.5	0.29889417	-0.5777957	-0.3333779
1277307528644	5.8976107	11.454713	1.2258313	3.135333	0.0	-28.25	-44.8125	-14.5	0.45387194	0.09485962	-0.47546738
1277307528674	-4.2086873	9.534244	0.9942854	0.6625166	0.0	-27.75	-45.625	-11.9375	1.3685453	0.095116094	0.4157031
1277307528704	-0.8036005	8.580819	-1.0351465	-1.1263418	0.0	-26.75	-45.875	-8.625	1.1532567	-0.11953674	0.09337843
1277307528734	3.718355	7.9270425	-0.50395286	-1.0363522	0.0	-26.3125	-46.125	-5.3125	0.46949956	-0.057492986	-0.43860066
1277307528764	2.7240696	7.43671	0.7627395	-1.8500819	0.0	-26.0625	-46.375	-2.5	1.8610435	0.096010305	-0.35112187
1277307528804	2.152015	6.701211	-0.23154591	-2.7645617	0.0	-25.3125	-47.375	-0.4375	1.3483456	-0.03288622	-0.3107351
1277307528844	2.7240696	7.5865335	-0.0	-1.7458782	0.0	-25.0625	-48.125	1.625	1.7891165	-0.0	-0.3447289
1277307528884	3.405087	8.430995	2.3699405	-0.4102192	0.0	-24.0625	-49.1875	4.125	2.9259803	0.25497073	-0.38384438
1277307528924	3.7864566	10.038197	0.38136974	0.9287157	0.0	-22.375	-49.9375	6.6875	2.7750409	0.03553209	-0.3607023
1277307528954	8.499097	9.084772	-0.27240697	2.6369	0.0	-21.125	-50.6875	8.25	-1.9259588	-0.021893168	-0.752103
1277307528994	4.440233	10.119919	2.5606253	1.537302	0.0	-20.4375	-51.1875	9.0	-3.054498	0.22768824	-0.413469
1277307529034	2.982856	11.876944	4.2086873	3.1421824	0.0	-20.6875	-51.1875	7.6875	2.8471045	0.33103758	-0.24605769
1277307529064	-0.29964766	13.0619135	2.3018389	3.459918	0.0	-22.375	-51.1875	4.375	2.0785165	0.17438929	0.022936542
1277307529104	-4.630918	15.785983	-2.7240696	6.868578	0.0	-23.8125	-49.9375	0.3125	1.3984463	-0.16409571	0.28535062
1277307529134	-1.0351465	15.023244	1.0351465	5.2877502	0.0	-25.5625	-48.6875	-3.75	1.5524035	0.06863205	0.068794265
1277307529164	6.2108784	11.141444	0.6946377	2.967907	0.0	-27.25	-47.625	-6.5625	0.16991138	0.054403488	-0.50855047
1277307529194	7.504812	8.471856	0.95342433	1.5513229	0.0	-29.0	-46.125	-7.875	-1.2114668	0.08404207	-0.7249434
1277307529234	1.607201	7.9679036	1.7297841	-1.4962511	0.0	-30.6875	-45.0625	-8.375	1.6774141	0.20968002	-0.19903867
1277307529274	-0.95342433	5.5162406	-0.7627395	-4.156898	0.0	-32.125	-43.8125	-10.125	1.2019113	-0.13541757	0.17114861
1277307529314	-1.0351465	3.486809	-1.1849703	-5.9812717	0.0	-32.625	-42.3125	-12.6875	1.1054282	-0.3149464	0.28858736
1277307529344	-2.2201166	2.4108016	-0.42223078	-6.5022345	0.0	-32.375	-41.75	-15.0	1.2728406	-0.12812804	0.74424493
1277307529384	-2.5333846	1.4573772	0.5720546	-6.8285246	0.0	-31.875	-41.0	-17.3125	1.2277522	0.19328673	1.04876
1277307529424	1.920469	6.5513873	3.3778462	-2.1896482	0.0	-30.6875	-41.75	-17.3125	1.9014999	0.4594569	-0.28515074
1277307529454	12.871228	17.924377	14.056199	16.356846	0.0	-29.9375	-42.8125	-16.25	-3.0960555	0.56716686	-0.6227608
1277307529494	7.7363577	10.760075	10.228881	6.93433	0.0	-29.9375	-43.3125	-15.5	-3.0925112	0.6573339	-0.6233558
1277307529524	-0.50395286	4.671779	5.706926	-2.4141884	0.0	-29.9375	-44.0625	-15.0	2.1345906	0.8819701	0.10745621
1277307529554	3.173541	14.560152	2.1111538	5.2441425	0.0	-30.6875	-43.8125	-15.75	1.1732216	0.14073272	-0.21460432
1277307529594	-2.4108016	12.980191	-1.0351465	3.4360409	0.0	-31.1875	-43.0625	-16.25	1.1112833	-0.07824721	0.18363683
1277307529634	-1.9885708	6.8237944	-5.284695	-0.9496422	0.0	-30.9375	-43.0625	-16.75	0.9027355	-0.6393428	0.28356415
1277307529664	4.5628166	13.211738	-5.434519	5.1901264	0.0	-29.9375	-43.8125	-16.25	0.39368066	-0.37081927	-0.33253595
1277307529694	3.759216	11.836082	-0.38136974	2.6179218	0.0	-29.0	-44.8125	-13.9375	0.7368684	-0.030699622	-0.30753022
1277307529724	-2.3018389	10.038197	1.4573772	0.5946865	0.0	-28.75	-46.375	-10.875	1.4327135	0.14057696	0.22541106
1277307529754	-2.1111538	8.853226	0.08172209	-0.7048235	0.0	-28.25	-47.375	-7.5625	1.3855884	0.008978768	0.2340898
1277307529794	2.3018389	7.8589406	-1.56634	-1.4690943	0.0	-27.75	-47.625	-4.0	0.75836945	-0.1889886	-0.2849251
1277307529834	3.636633	6.1291566	-0.9942854	-2.6108003	0.0	-27.0	-48.375	-0.9375	-0.16900767	-0.13861834	-0.5355031
1277307529874	2.7649305	6.701211	0.6946377	-2.5242338	0.0	-26.0625	-48.6875	1.3125	2.4409413	0.09553085	-0.39132243
1277307529914	1.2666923	7.7363577	0.9942854	-1.9044766	0.0	-24.5625	-48.6875	3.875	2.1362252	0.12615868	-0.16229235
1277307529944	2.1111538	9.466142	1.0760075	-0.04844284	0.0	-23.5625	-48.9375	6.4375	2.3515353	0.11049161	-0.21943055
1277307529974	2.6423476	10.228881	1.2666923	0.83367443	0.0	-22.375	-48.375	8.5	2.5641816	0.119329385	-0.2527959
1277307530014	4.630918	9.847511	-0.08172209	1.0757008	0.0	-20.4375	-49.1875	10.0	-2.8929465	-0.0075096693	-0.4395761
1277307530054	6.1291566	10.119919	0.3405087	2.0295343	0.0	-19.6875	-49.9375	10.5	-2.4971983	0.028772421	-0.54456556
1277307530084	2.3699405	12.830367	2.3426998	3.4494114	0.0	-19.6875	-50.1875	10.0	2.6514013	0.1776598	-0.18265462
1277307530124	1.0351465	13.293459	5.243834	4.5211334	0.0	-20.6875	-50.6875	8.25	2.583944	0.37469703	-0.077712044
1277307530154	-3.445948	14.750836	-3.7864566	5.807413	0.0	-22.875	-50.1875	4.625	1.3916093	-0.24494499	0.22949463
1277307530184	-1.879608	14.941522	-1.920469	5.3745947	0.0	-24.3125	-49.6875	1.0625	1.4138534	-0.1268426	0.12514028
1277307530224	1.9885708	13.6748295	2.3699405	4.213763	0.0	-25.5625	-49.1875	-3.0	1.8836353	0.16985048	-0.14440611
1277307530264	3.5957718	9.507003	-0.5720546	0.37371922	0.0	-26.3125	-48.6875	-6.0625	0.67999876	-0.056221545	-0.36159372
1277307530304	0.38136974	6.701211	0.08172209	-3.0940986	0.0	-26.75	-47.375	-8.375	1.2575002	0.01217482	-0.05684925
1277307530344	-0.3405087	5.284695	-0.88532263	-4.4375024	0.0	-27.75	-46.375	-11.4375	1.0252861	-0.16564721	0.06434404
1277307530374	0.14982383	2.8738933	-1.0760075	-6.734273	0.0	-28.75	-45.625	-13.6875	0.7321344	-0.35780585	-0.052085552
1277307530414	-1.334794	1.8387469	-0.38136974	-7.502717	0.0	-29.1875	-44.5625	-16.5	1.1992536	-0.16629526	0.62791485
1277307530444	-1.1441092	1.5390993	1.7978859	-7.177923	0.0	-29.1875	-44.3125	-18.5625	1.5481665	0.75314677	0.6392398
1277307530475	3.405087	6.701211	4.7126403	-0.9347944	0.0	-28.5	-44.3125	-18.5625	2.7268429	0.5600044	-0.47013053
1277307530514	9.915613	16.698545	13.988097	14.127169	0.0	-27.25	-44.8125	-18.0625	3.1071856	0.6242009	-0.535849
1277307530544	2.5606253	9.466142	7.668256	2.6419163	0.0	-26.75	-45.0625	-17.8125	2.4526398	0.66364855	-0.26418114
1277307530575	-1.1168685	7.246025	8.008764	1.0511847	0.0	-26.3125	-45.625	-17.5625	2.0810473	0.82951254	0.15293181
1277307530618	2.5606253	12.598822	6.973618	4.8193016	0.0	-25.8125	-44.8125	-19.3125	1.9442124	0.49700788	-0.2005121
1277307530654	-3.214402	7.668256	-2.2201166	-1.2006378	0.0	-26.0625	-43.5625	-21.375	0.96331984	-0.26092333	0.39693323
1277307530684	-1.879608	10.61025	-4.8216033	1.9983568	0.0	-25.5625	-43.3125	-22.375	0.73749375	-0.4207412	0.1753312
1277307530714	1.2258313	16.589584	-4.2495484	7.362381	0.0	-24.8125	-43.0625	-22.875	0.57557696	-0.25011194	-0.07375758
1277307530744	3.2961242	17.352324	-1.6480621	7.9326744	0.0	-23.8125	-44.5625	-21.625	0.5253351	-0.09303861	-0.18771648
1277307530774	2.070293	15.472715	0.5720546	5.814434	0.0	-22.625	-46.875	-19.3125	0.7474398	0.036628865	-0.13301279
1277307530814	-0.61291564	12.571581	3.568531	3.2759619	0.0	-22.125	-48.375	-17.3125	1.4178227	0.27627	0.048715487
1277307530854	1.0351465	4.2086873	4.0588636	-3.8687253	0.0	-21.625	-49.6875	-14.25	2.8051434	0.75261414	-0.24116772
1277307530894	2.4925237	-1.8387469	0.6946377	-6.632349	0.0	-20.875	-50.4375	-11.4375	-1.31181	0.22061703	-2.206382
1277307530934	1.6480621	1.8387469	-0.27240697	-7.322439	0.0	-20.4375	-50.4375	-9.625	-0.8821511	-0.10987628	-0.7307651
1277307530964	0.50395286	4.9850473	0.92618364	-4.711311	0.0	-18.9375	-51.1875	-7.0625	1.7625668	0.18278691	-0.1007506
1277307530994	0.8036005	7.205164	1.1849703	-2.4606094	0.0	-18.4375	-52.0	-5.8125	1.7999457	0.1620152	-0.11107215
1277307531034	0.84446156	9.888372	0.88532263	0.15712547	0.0	-18.4375	-52.25	-4.25	1.6089832	0.088971466	-0.08519275
1277307531064	0.38136974	12.258313	0.92618364	2.4925165	0.0	-17.5	-52.5	-1.75	1.7115782	0.075375944	-0.031101082
1277307531104	2.1792557	10.378705	0.8036005	0.828784	0.0	-16.5	-52.5	0.0625	2.235571	0.07563087	-0.20696706
1277307531134	3.255263	11.563675	2.070293	2.3835688	0.0	-15.75	-52.75	1.875	3.0643284	0.1706595	-0.27440622
1277307531164	1.920469	10.61025	1.5390993	1.0852938	0.0	-15.0625	-53.25	3.125	2.6854038	0.14178075	-0.17906265
1277307531194	2.7649305	7.3549876	0.42223078	-1.9377899	0.0	-15.0625	-53.5	2.875	-2.4613779	0.053684227	-0.3595822
1277307531234	1.4165162	9.112013	4.399372	0.41048145	0.0	-16.0	-53.75	1.3125	2.8494115	0.44514394	-0.15422148
1277307531274	-1.4165162	12.108489	0.46309182	2.3932056	0.0	-16.5	-52.75	-2.0	1.5671295	0.037967917	0.11645605
1277307531314	0.95342433	17.815414	2.1792557	8.1668625	0.0	-18.6875	-51.4375	-5.5625	1.6227492	0.121547244	-0.053465817
1277307531354	3.759216	15.5135765	3.568531	6.5499134	0.0	-21.375	-50.4375	-9.875	1.8085382	0.21994013	-0.23773542
1277307531394	0.53119355	6.1700177	0.38136974	-3.602077	0.0	-23.5625	-48.125	-13.6875	1.0699791	0.061504677	-0.08588095
1277307531434	-1.6889231	4.4810944	0.10896278	-5.0166044	0.0	-25.8125	-46.625	-17.0	1.1909024	0.022749716	0.36043513
1277307531464	-0.61291564	4.671779	-0.23154591	-5.089151	0.0	-27.0	-44.5625	-20.625	0.9642186	-0.04910207	0.13045031
1277307531504	-0.38136974	4.2904096	1.0760075	-5.36696	0.0	-27.25	-42.3125	-23.125	1.177796	0.24479862	0.08865589
1277307531544	-2.1111538	2.2609777	1.3075534	-6.4482746	0.0	-27.25	-41.5	-25.4375	1.1980822	0.39991608	0.75114363
1277307531576	-0.61291564	2.3018389	2.7240696	-6.1879926	0.0	-26.3125	-41.25	-25.4375	1.7936001	0.8522821	0.26023406
1277307531614	4.5628166	7.6273947	6.238119	1.0520134	0.0	-24.8125	-42.3125	-24.6875	-3.0878725	0.6119726	-0.5391055
1277307531654	8.921328	17.856276	14.818938	15.053711	0.0	-23.8125	-44.0625	-23.6875	2.9940245	0.6386188	-0.46334246
1277307531684	-1.7570249	3.5276701	7.5456724	-1.2937918	0.0	-23.5625	-44.0625	-22.875	1.9248852	1.0894778	0.46210203
1277307531714	-0.7218784	6.2108784	3.636633	-2.57331	0.0	-24.0625	-44.3125	-23.125	1.596397	0.5267885	0.1157089
1277307531744	2.152015	17.62473	0.38136974	7.9530716	0.0	-24.5625	-43.8125	-23.9375	0.6936942	0.021475509	-0.12150058
1277307531784	1.0760075	12.721405	-2.1792557	3.1448402	0.0	-25.0625	-43.0625	-24.6875	0.5895191	-0.1690672	-0.084381595
1277307531814	-2.4516625	5.434519	-2.5333846	-3.3287892	0.0	-24.8125	-43.0625	-24.9375	0.8657927	-0.40180856	0.4237914
1277307531845	0.5720546	6.6331096	-5.134871	-1.3987789	0.0	-24.8125	-43.0625	-24.4375	0.42171827	-0.65697193	-0.08602943
1277307531884	2.2609777	14.09706	-1.8387469	4.5884924	0.0	-24.5625	-44.0625	-22.625	0.54501134	-0.12808378	-0.15903206
1277307531924	0.88532263	13.824653	1.6889231	4.148896	0.0	-24.5625	-45.3125	-18.8125	1.0289559	0.121319026	-0.06395208
1277307531954	-0.19068487	7.1234417	1.2258313	-2.5759897	0.0	-24.8125	-47.125	-14.25	1.3383582	0.1703552	0.026762253
1277307531994	2.6423476	6.5513873	-0.14982383	-2.7408786	0.0	-24.8125	-48.6875	-9.875	0.41054645	-0.021205759	-0.3833707
1277307532034	2.0294318	6.238119	0.14982383	-3.245006	0.0	-24.5625	-49.1875	-6.0625	1.0362597	0.02283526	-0.3145281
1277307532064	2.3018389	6.2789803	1.0351465	-3.0394068	0.0	-24.0625	-49.6875	-3.0	2.3514488	0.15356717	-0.35138106
1277307532104	2.7240696	6.891896	1.7570249	-2.1904888	0.0	-22.625	-49.9375	-0.4375	2.9251008	0.23279384	-0.37641087
1277307532144	1.334794	9.888372	1.56634	0.29359818	0.0	-20.875	-50.6875	2.375	2.2206726	0.15570778	-0.1341752
1277307532174	5.5162406	10.18802	0.84446156	1.8096218	0.0	-19.9375	-51.4375	4.125	-2.4313927	0.07276062	-0.49625045
1277307532214	5.6252036	11.536434	2.0294318	3.1876106	0.0	-18.6875	-51.75	4.375	-2.712649	0.15682109	-0.45368117
1277307532254	3.5957718	13.443283	3.8273177	4.625945	0.0	-18.9375	-52.25	3.875	2.8870063	0.2683965	-0.26135898
1277307532294	-2.7240696	14.519291	-1.0351465	5.0021954	0.0	-20.6875	-51.75	0.0625	1.4632208	-0.06995761	0.18546124
1277307532334	-1.7297841	15.050485	-0.14982383	5.3436537	0.0	-22.875	-51.1875	-3.75	1.4239137	-0.009889324	0.11443004
1277307532364	2.7921712	14.7916975	3.0237172	5.546962	0.0	-25.0625	-50.1875	-7.3125	1.792854	0.19823426	-0.18657078
1277307532405	5.053149	11.032481	0.53119355	2.3396301	0.0	-27.25	-48.6875	-11.1875	0.47528735	0.043746974	-0.42950723
1277307532444	0.92618364	7.246025	1.3075534	-2.3855724	0.0	-28.5	-46.375	-12.9375	1.3942999	0.17711917	-0.1271302
1277307532478	-0.84446156	5.134871	-0.6946377	-4.556647	0.0	-29.1875	-44.5625	-16.0	1.042061	-0.132701	0.16299722
1277307532514	-0.7627395	3.8273177	-1.56634	-5.6014686	0.0	-29.6875	-42.5625	-19.8125	0.867002	-0.38167834	0.1967111
1277307532554	-1.7570249	2.4925237	-1.1849703	-6.534959	0.0	-29.9375	-40.75	-23.375	1.0484273	-0.37061515	0.61401904
1277307532594	-2.3018389	0.7218784	0.6946377	-7.296253	0.0	-29.0	-40.5	-26.1875	1.0138404	0.28036284	1.266901
1277307532634	2.2609777	5.284695	3.214402	-3.2208772	0.0	-27.75	-40.75	-26.75	1.5988746	0.5098917	-0.4042695
1277307532674	9.343558	17.856276	15.826844	15.818293	0.0	-26.5	-42.3125	-26.4375	2.7713516	0.66573113	-0.48208568
1277307532704	-0.27240697	7.5865335	8.19945	1.3674574	0.0	-25.3125	-43.3125	-25.6875	2.040937	0.82388407	0.035891227
1277307532734	-1.56634	1.1441092	6.0474343	-3.4557552	0.0	-25.0625	-43.5625	-25.6875	1.517809	1.2604167	0.93993497
1277307532764	1.334794	9.043911	4.0588636	0.19576836	0.0	-24.8125	-43.3125	-25.4375	1.3343091	0.4178411	-0.1465325
1277307532804	0.95342433	17.924377	-0.42223078	8.148031	0.0	-24.8125	-43.0625	-25.1875	0.7089226	-0.02351864	-0.053141408
1277307532839	-0.7218784	7.7772183	-1.920469	-1.7633648	0.0	-25.3125	-43.5625	-23.9375	0.72424436	-0.24109566	0.09255443
1277307532899	0.10896278	6.0201936	-5.202973	-1.8489165	0.0	-25.5625	-44.3125	-22.125	0.49362424	-0.71263	-0.018097572
1277307532934	4.140586	14.2877445	-1.9477097	5.195939	0.0	-25.5625	-46.125	-19.5625	0.4222488	-0.13019237	-0.28207278
1277307532965	-2.4108016	9.507003	1.5390993	0.12128544	0.0	-26.0625	-47.125	-15.25	1.3318121	0.1556549	0.24834679
1277307533004	-1.920469	7.3958488	-0.53119355	-2.1470847	0.0	-25.8125	-47.875	-11.1875	1.2110069	-0.069406055	0.25405753
1277307533044	2.6423476	7.246025	-0.8036005	-2.0521255	0.0	-25.3125	-48.9375	-6.3125	0.53113234	-0.10381627	-0.34967625
1277307533074	2.982856	7.3141265	0.8036005	-1.866899	0.0	-25.0625	-48.9375	-2.25	2.1811025	0.10138591	-0.38723058
1277307533114	2.9556155	7.8861814	0.6946377	-1.356204	0.0	-24.3125	-49.4375	1.0625	2.369799	0.08229416	-0.35858136
1277307533154	3.3778462	9.00305	1.5390993	-0.06839657	0.0	-22.875	-50.1875	3.625	2.842335	0.15871222	-0.35893646
1277307533194	2.9147544	9.956474	1.607201	0.69145775	0.0	-21.625	-50.9375	5.9375	2.7178159	0.15369879	-0.28479192
1277307533234	6.66035	9.425281	-0.19068487	1.7359896	0.0	-20.6875	-51.1875	7.1875	-2.0329247	-0.01652079	-0.6151734
1277307533274	4.0180025	9.615966	3.1463003	1.0795956	0.0	-19.6875	-51.4375	7.4375	-3.0693839	0.2931989	-0.39579642
1277307533314	2.0294318	11.182305	3.3778462	2.049673	0.0	-19.4375	-51.4375	6.9375	2.718213	0.28890032	-0.17953192
1277307533354	1.879608	13.797412	0.3405087	4.122365	0.0	-20.6875	-50.9375	3.875	1.9339032	0.024448438	-0.13539556
1277307533384	-2.3426998	16.930092	-3.1054392	7.5645905	0.0	-22.375	-50.1875	0.5625	1.3088832	-0.17973514	0.13750172
1277307533424	-0.5720546	15.935807	3.1463003	6.4468536	0.0	-24.0625	-48.6875	-4.0	1.7744665	0.19480655	0.035882026
1277307533454	6.932757	10.923519	-0.5720546	3.1437798	0.0	-26.5	-47.625	-8.625	-0.27806365	-0.04418701	-0.5655181
1277307533494	5.09401	8.390134	1.1441092	0.075265884	0.0	-28.0	-46.125	-11.4375	-7.463678E-4	0.11603831	-0.5456551
1277307533534	-0.7627395	6.742072	-0.50395286	-3.002881	0.0	-29.0	-44.8125	-14.75	1.0875113	-0.07413755	0.11265235
1277307533564	-1.334794	4.630918	-1.879608	-4.6336427	0.0	-29.6875	-43.5625	-18.5625	0.9420875	-0.37186027	0.28062886
1277307533604	-1.1441092	3.255263	-2.2201166	-5.703646	0.0	-29.4375	-41.75	-22.375	0.8736813	-0.57173914	0.33797887
1277307533666	-3.486809	0.95342433	-0.10896278	-6.190198	0.0	-28.5	-40.25	-25.9375	1.0691247	-0.030134303	1.3038833
1277307533714	3.405087	8.158588	6.238119	1.0133	0.0	-27.25	-40.25	-27.25	2.0653772	0.614486	-0.3953837
1277307533744	6.891896	16.507862	14.437569	13.181416	0.0	-26.0625	-41.0	-27.25	2.3917117	0.67904	-0.39549392
1277307533775	-0.10896278	5.175732	5.9793324	-1.8976369	0.0	-25.0625	-41.75	-26.4375	2.061374	0.8572033	0.021049522
1277307533814	0.84446156	5.829509	5.7477865	-1.5766239	0.0	-24.5625	-43.0625	-25.6875	2.2226026	0.7731487	-0.14385912
1277307533854	0.5720546	17.052675	-0.19068487	7.2566833	0.0	-24.8125	-42.8125	-25.9375	0.7240092	-0.011175357	-0.033533752
1277307533894	-1.1849703	8.539958	-3.214402	-0.60515976	0.0	-25.5625	-42.5625	-24.9375	0.7018602	-0.3568612	0.13787562
1277307533934	0.7218784	8.390134	-6.238119	0.67331123	0.0	-26.3125	-43.3125	-22.875	0.46007672	-0.63756746	-0.08582759
1277307533964	5.597963	12.762266	-3.1463003	4.4801207	0.0	-26.75	-44.5625	-19.8125	0.21179333	-0.22204486	-0.4133618
1277307533994	1.7978859	11.223166	1.334794	1.6377172	0.0	-27.0	-46.375	-15.75	1.1013159	0.11689935	-0.15884459
1277307534034	-3.9090397	9.234595	0.7627395	0.2501936	0.0	-26.5	-47.875	-11.9375	1.3571649	0.075915724	0.4004331
1277307534064	1.1168685	7.9270425	-1.2258313	-1.708005	0.0	-26.0625	-48.9375	-7.875	0.8806532	-0.15194651	-0.13997212
1277307534104	3.1463003	7.273266	-0.50395286	-1.8660226	0.0	-25.8125	-49.1875	-4.25	0.4924625	-0.0635078	-0.408277
1277307534134	3.255263	6.4015636	0.7627395	-2.5845642	0.0	-25.3125	-49.1875	-1.1875	3.0842624	0.1058094	-0.47043288
1277307534164	3.214402	7.014479	0.88532263	-2.0401134	0.0	-24.5625	-49.6875	2.375	2.9558535	0.114240274	-0.4296954
1277307534194	3.5957718	8.499097	0.88532263	-0.5358343	0.0	-23.375	-49.6875	5.4375	2.9408684	0.0956414	-0.40024066
1277307534234	3.5957718	9.112013	2.4925237	0.30131817	0.0	-22.375	-50.4375	7.6875	3.032785	0.24915999	-0.37585884
1277307534274	5.284695	9.615966	0.46309182	1.1755743	0.0	-20.875	-50.9375	9.5	-2.6551602	0.042179905	-0.5025169
1277307534314	8.689782	9.888372	0.92618364	3.3899422	0.0	-20.4375	-50.9375	10.0	-2.2108946	0.07024129	-0.72097135
1277307534354	3.5276701	12.9529505	2.5333846	3.8550272	0.0	-20.875	-51.1875	9.5	2.8112407	0.18651687	-0.2658961
1277307534384	-2.2201166	15.213928	3.2961242	5.917757	0.0	-21.875	-50.9375	6.1875	2.0737164	0.2111846	0.14490381
1277307534424	-4.440233	16.589584	-2.6423476	7.568964	0.0	-23.8125	-50.4375	1.875	1.4433163	-0.15266451	0.26152197
1277307534454	0.50395286	15.091345	0.53119355	5.3024473	0.0	-25.5625	-49.4375	-2.75	1.5297625	0.035164446	-0.033381097
1277307534484	4.862464	12.762266	1.334794	3.915619	0.0	-27.25	-48.375	-7.875	1.276625	0.09742617	-0.3640233
1277307534514	6.0201936	9.193735	-0.19068487	1.1844301	0.0	-28.25	-47.375	-10.125	-0.2063189	-0.017349927	-0.5797525
1277307534554	0.7627395	7.6273947	0.46309182	-2.1272378	0.0	-29.1875	-46.375	-12.6875	1.1925741	0.060339637	-0.09966866
1277307534584	-1.334794	5.706926	-1.2666923	-3.8103857	0.0	-29.9375	-45.3125	-15.75	1.038001	-0.21285048	0.22975999
1277307534624	-1.1168685	4.671779	-1.7570249	-4.6919603	0.0	-29.9375	-44.3125	-19.0625	0.9152106	-0.35066795	0.23466267
1277307534654	-2.1792557	3.568531	-1.4165162	-5.3918924	0.0	-29.9375	-42.5625	-22.625	1.0390835	-0.32663667	0.5482406
1277307534684	-3.173541	1.334794	-0.0	-6.363826	0.0	-28.75	-41.25	-25.6875	1.0893729	-0.0	1.1726577
1277307534724	-2.1792557	0.8036005	2.152015	-6.640249	0.0	-28.0	-41.0	-27.5	1.0381503	0.74727255	1.2175163
1277307534754	5.053149	10.61025	9.997335	5.622493	0.0	-26.75	-41.75	-26.75	2.6472242	0.7048918	-0.44446906
1277307534784	7.8589406	17.924377	16.657684	15.894024	0.0	-25.5625	-43.0625	-25.1875	2.7026372	0.70514196	-0.4132074
1277307534824	0.3405087	7.164303	6.891896	0.14027977	0.0	-25.8125	-44.0625	-23.9375	2.1071293	0.76545703	-0.04749278
1277307534864	0.6537767	1.7978859	4.7535014	-4.682629	0.0	-25.0625	-44.0625	-23.125	2.9201038	1.1881764	-0.348771
1277307534904	-0.9942854	16.970953	0.8036005	7.212387	0.0	-25.5625	-43.8125	-23.375	0.9206412	0.047235306	0.058520585
1277307534944	1.56634	9.656827	-2.4516625	0.278903	0.0	-26.5	-43.5625	-22.875	0.51783943	-0.2455466	-0.16079988
1277307534979	-1.525479	5.2165933	-4.4810944	-2.762494	0.0	-26.5	-44.0625	-21.125	0.7766235	-0.6894897	0.2844958
1277307535014	5.175732	11.495573	-6.1700177	4.2292156	0.0	-26.75	-45.625	-18.3125	0.14211139	-0.45514145	-0.423051
1277307535054	4.399372	12.108489	0.7218784	3.0964928	0.0	-26.3125	-46.625	-14.75	0.64238346	0.05597516	-0.34849998
1277307535084	-3.336985	9.084772	2.7921712	0.26632214	0.0	-26.0625	-48.125	-10.375	1.5723212	0.28087282	0.35201734
1277307535124	0.7218784	7.668256	-0.27240697	-2.0996752	0.0	-25.8125	-49.1875	-6.3125	1.2030492	-0.035352875	-0.09386192
1277307535154	2.982856	6.6331096	-1.525479	-2.375455	0.0	-25.5625	-49.6875	-2.25	0.21171209	-0.20675024	-0.42259774
1277307535194	1.7297841	6.851035	1.3075534	-2.6206546	0.0	-25.0625	-49.6875	1.0625	2.3038144	0.1829779	-0.24731618
1277307535234	2.6423476	7.7772183	0.14982383	-1.5914469	0.0	-23.5625	-50.1875	3.875	2.2403002	0.018238397	-0.32751873
1277307535274	3.3778462	8.962189	2.4108016	0.06971741	0.0	-21.875	-50.1875	6.6875	3.0028565	0.24658945	-0.36043513
1277307535314	4.862464	9.615966	0.38136974	0.9755478	0.0	-20.4375	-50.1875	8.75	-2.7492478	0.035377696	-0.46816987
1277307535354	8.662541	9.534244	-0.14982383	3.076047	0.0	-19.6875	-51.1875	10.0	-2.0132515	-0.011630111	-0.7375306
1277307535384	3.445948	12.871228	1.3756552	3.5887032	0.0	-19.6875	-51.1875	9.75	2.7803857	0.102877825	-0.2615901
1277307535424	0.313268	13.865514	4.2495484	4.698841	0.0	-20.6875	-51.1875	8.5	2.4431622	0.29732263	-0.022589479
1277307535454	-5.175732	15.704261	-0.08172209	6.7287273	0.0	-22.875	-50.9375	5.4375	1.7088501	-0.004942277	0.3183643
1277307535484	-2.1111538	15.472715	-2.9556155	6.086668	0.0	-24.8125	-49.4375	1.875	1.361451	-0.18705483	0.13560626
1277307535524	2.4108016	14.206022	2.1111538	4.756316	0.0	-26.5	-48.6875	-2.25	1.8612815	0.14547993	-0.1681013
1277307535554	4.862464	10.732834	-0.27240697	1.9794216	0.0	-27.75	-47.625	-6.0625	0.6545311	-0.023114674	-0.42538384
1277307535584	2.4516625	8.158588	0.9942854	-1.2298317	0.0	-28.5	-46.625	-9.375	1.3452064	0.11618831	-0.2919162
1277307535617	-0.19068487	6.782933	-0.19068487	-3.0183582	0.0	-29.1875	-45.625	-12.6875	1.1415604	-0.028093953	0.028105047
1277307535654	-0.42223078	4.944186	-1.3075534	-4.675086	0.0	-29.9375	-43.5625	-16.0	0.91349405	-0.2576471	0.08519275
1277307535684	-0.14982383	3.5957718	-1.6889231	-5.831165	0.0	-30.4375	-42.5625	-20.375	0.72984904	-0.43877903	0.04164258
1277307535714	-1.7570249	2.3426998	-1.0760075	-6.686847	0.0	-29.6875	-41.5	-23.125	1.0639275	-0.35212797	0.6435011
1277307535744	-2.6423476	0.7218784	0.9942854	-6.892596	0.0	-29.4375	-41.5	-24.9375	1.0193135	0.3481969	1.3041081
1277307535774	-1.2258313	1.4982382	2.6832085	-6.498027	0.0	-28.75	-42.0	-25.4375	1.5036352	0.94581544	0.6857295
1277307535814	5.7477865	12.340035	11.223166	7.836279	0.0	-27.5	-43.0625	-23.6875	2.6908977	0.68947	-0.4359018
1277307535844	6.782933	15.854085	12.217452	11.326885	0.0	-27.25	-44.0625	-22.625	2.536117	0.6164073	-0.40426952
1277307535884	-4.8216033	4.5219555	6.66035	-0.4228239	0.0	-27.0	-44.0625	-22.625	1.4039737	0.78917044	0.81745714
1277307535924	-0.95342433	9.956474	6.510526	2.1276426	0.0	-26.75	-44.3125	-22.625	1.6905016	0.5770225	0.09546813
1277307535964	3.0237172	13.633968	-1.879608	4.2845135	0.0	-27.0	-43.5625	-23.6875	0.5147389	-0.13378789	-0.2182458
1277307536004	-1.2666923	6.0882955	-2.5606253	-3.0814252	0.0	-27.25	-43.8125	-23.375	0.78218037	-0.39060658	0.20512736
1277307536044	3.636633	10.501288	-5.5571017	2.6184673	0.0	-26.5	-44.3125	-21.125	0.24872184	-0.4636854	-0.33337793
1277307536074	5.706926	13.715691	-2.1111538	5.1982203	0.0	-26.0625	-45.3125	-18.3125	0.25601974	-0.14116628	-0.39429742
1277307536114	-1.6889231	9.234595	1.607201	-0.28229713	0.0	-26.3125	-46.875	-14.25	1.3677956	0.16955777	0.18089166
1277307536154	-1.607201	9.084772	0.14982383	-0.5795908	0.0	-25.8125	-47.625	-9.375	1.3186646	0.016238155	0.1750998
1277307536184	2.5333846	8.158588	-1.0351465	-1.2012959	0.0	-25.8125	-48.9375	-5.3125	0.7091348	-0.12058298	-0.30107772
1277307536224	2.7240696	6.932757	-0.040861044	-2.3578014	0.0	-25.8125	-48.9375	-1.1875	1.3323982	-0.005485579	-0.37439442
1277307536265	3.0237172	6.782933	0.313268	-2.3736706	0.0	-25.3125	-49.1875	2.375	2.5597386	0.04215817	-0.41934165
1277307536304	2.9556155	7.8180795	0.313268	-1.4426699	0.0	-24.8125	-49.6875	5.1875	2.4807832	0.03746318	-0.3614409
1277307536344	3.1054392	9.043911	2.3699405	0.044882774	0.0	-23.5625	-49.6875	8.25	2.8587184	0.24294858	-0.33075932
1277307536374	4.2904096	10.038197	0.23154591	1.1124439	0.0	-21.875	-50.1875	10.25	3.1073961	0.021207185	-0.40390882
1277307536414	6.851035	9.234595	0.8036005	1.7198496	0.0	-19.9375	-50.4375	12.0625	-2.4115038	0.069774255	-0.63828915
1277307536454	5.053149	10.991621	1.879608	2.43602	0.0	-18.9375	-50.4375	12.5625	-2.9568512	0.1541389	-0.43091372
1277307536484	4.9850473	12.680544	2.6423476	4.0724306	0.0	-19.9375	-50.4375	11.5625	3.1369033	0.19155276	-0.37456626
1277307536524	-0.38136974	14.859799	3.0237172	5.362462	0.0	-21.375	-50.1875	9.25	2.2675157	0.20067807	0.025658894
1277307536564	-5.6660647	17.011814	-2.9147544	8.359304	0.0	-23.8125	-49.9375	5.1875	1.5375991	-0.16114806	0.32151034
1277307536604	1.7570249	13.797412	1.879608	4.228614	0.0	-25.5625	-49.1875	0.5625	1.9452842	0.13432395	-0.12666278
1277307536634	7.246025	9.888372	-0.42223078	2.4596891	0.0	-26.75	-48.9375	-3.75	-0.91527694	-0.03442871	-0.63239044
1277307536674	2.6832085	7.6954966	0.7627395	-1.6211729	0.0	-28.25	-48.125	-7.5625	1.3502156	0.09331742	-0.33549175
1277307536704	-0.9942854	5.9793324	-0.9942854	-3.664206	0.0	-29.0	-46.875	-10.875	1.122733	-0.16258667	0.16477928
1277307536734	-0.23154591	5.053149	-2.1111538	-4.3253274	0.0	-30.1875	-45.0625	-14.5	0.8179413	-0.3953748	0.04579007
1277307536764	-0.53119355	4.3312707	-1.9477097	-5.027984	0.0	-29.9375	-43.0625	-18.5625	0.81590676	-0.41980717	0.12203211
1277307536794	-2.5333846	2.6423476	-0.88532263	-6.0405073	0.0	-29.1875	-41.75	-22.125	1.1255727	-0.2372948	0.7643486
1277307536824	-3.1054392	1.0351465	0.7627395	-6.4455414	0.0	-28.5	-41.0	-24.4375	1.0576966	0.22892523	1.2490457
1277307536864	-0.38136974	3.5276701	2.3699405	-5.5397406	0.0	-27.5	-41.75	-24.4375	1.6050751	0.5888718	0.10768987
1277307536904	7.7772183	16.04477	14.982383	13.482651	0.0	-27.25	-43.3125	-23.125	2.782914	0.69882184	-0.45134896
1277307536944	2.4925237	12.217452	9.847511	6.082097	0.0	-27.75	-44.3125	-21.375	2.2081249	0.668461	-0.2012516
1277307536974	-1.607201	6.742072	7.4639506	0.3790846	0.0	-28.0	-44.5625	-19.8125	1.9163496	0.82240546	0.23401627
1277307537004	2.7649305	12.53072	2.152015	3.204689	0.0	-28.0	-43.8125	-19.5625	1.0109823	0.16615887	-0.21717227
1277307537044	-4.099725	6.742072	-3.2961242	-1.2551756	0.0	-28.25	-43.3125	-19.5625	1.051558	-0.39569017	0.5463401
1277307537074	-0.95342433	8.158588	-5.706926	0.19537926	0.0	-27.75	-43.5625	-19.0625	0.7028278	-0.607208	0.116333775
1277307537114	6.5513873	13.293459	-4.5219555	5.6880198	0.0	-27.5	-44.8125	-17.8125	0.14919135	-0.2961494	-0.45789346
1277307537144	4.7126403	10.18802	0.92618364	1.4566774	0.0	-27.25	-46.625	-14.75	0.46504432	0.08232298	-0.43325523
1277307537184	-2.3018389	7.5865335	1.607201	-1.7173328	0.0	-27.0	-47.625	-10.625	1.4974099	0.20001283	0.29458335
1277307537224	0.10896278	8.539958	-0.19068487	-1.2638683	0.0	-27.0	-48.6875	-6.5625	1.288329	-0.022323022	-0.0127584785
1277307537264	3.255263	8.19945	-1.2258313	-0.89988995	0.0	-26.5	-48.9375	-2.0	0.6009731	-0.13806754	-0.37792608
1277307537304	3.0237172	7.9270425	1.0760075	-1.2545357	0.0	-26.3125	-49.1875	1.3125	2.4350035	0.12615205	-0.36440757
1277307537344	2.7240696	8.076866	1.2666923	-1.1891785	0.0	-25.3125	-49.1875	4.625	2.5615454	0.1475257	-0.3252877
1277307537374	2.9556155	8.240311	-0.46309182	-1.0400753	0.0	-24.3125	-49.1875	7.4375	2.1976786	-0.05284931	-0.34438446
1277307537414	3.1463003	9.043911	2.070293	-0.009832382	0.0	-23.5625	-49.1875	9.5	2.8558621	0.21292832	-0.33479527
1277307537444	3.6774938	10.038197	-0.040861044	0.8840475	0.0	-22.375	-49.4375	11.3125	2.7956095	-0.0038221215	-0.35116568
1277307537474	5.284695	9.343558	-1.4573772	1.0263557	0.0	-21.125	-49.9375	12.3125	-2.2451665	-0.13494033	-0.5147395
1277307537504	5.284695	9.847511	1.0760075	1.4209623	0.0	-20.1875	-50.4375	13.0625	-2.819676	0.09598314	-0.49253818
1277307537544	2.6832085	11.372991	2.1792557	2.0800524	0.0	-19.6875	-50.4375	12.8125	2.81563	0.1843785	-0.23169133
1277307537574	3.6774938	11.727119	3.3778462	2.9392958	0.0	-20.1875	-50.4375	12.0625	2.9824567	0.2682178	-0.30387652
1277307537614	0.313268	13.293459	2.7649305	3.7749186	0.0	-21.625	-50.4375	9.0	2.3246405	0.20501272	-0.023561215
1277307537654	-3.0645783	15.023244	-2.4516625	5.72075	0.0	-23.5625	-49.6875	4.625	1.4989477	-0.15855618	0.20122829
1277307537684	2.1111538	13.565866	2.6014864	4.1668043	0.0	-25.8125	-49.1875	0.3125	2.083279	0.18726608	-0.15438412
1277307537714	6.469665	10.760075	0.42223078	2.7557564	0.0	-27.25	-48.125	-4.5	-0.50087863	0.033616994	-0.5413497
1277307537744	4.099725	7.43671	0.8036005	-1.2768097	0.0	-29.1875	-46.875	-7.875	0.8365252	0.09435042	-0.503827
1277307537774	-0.19068487	6.891896	-0.14982383	-2.9104896	0.0	-29.9375	-45.875	-10.625	1.2147622	-0.021727396	0.027660929
1277307537814	-0.9125633	5.597963	-1.2258313	-4.0038385	0.0	-30.4375	-45.3125	-13.4375	1.0473206	-0.2128514	0.16159561
1277307537854	-0.50395286	4.944186	-0.8036005	-4.7722964	0.0	-30.6875	-44.3125	-16.25	0.9981031	-0.1603091	0.101577565
1277307537894	-2.3699405	2.7649305	-0.14982383	-6.1619406	0.0	-30.1875	-43.0625	-18.5625	1.2123878	-0.041118797	0.7086263
1277307537934	-2.2609777	1.9477097	1.3756552	-6.5206156	0.0	-30.4375	-42.5625	-20.0625	1.2686237	0.43194383	0.85969484
1277307537964	2.4516625	8.499097	6.2789803	1.0409718	0.0	-29.4375	-42.8125	-19.8125	2.2167664	0.61729896	-0.2808377
1277307538004	11.34575	18.237646	16.657684	17.374523	0.0	-28.5	-43.8125	-18.5625	3.0808096	0.65964836	-0.5565156
1277307538044	0.10896278	8.853226	8.049625	2.1594667	0.0	-28.25	-44.5625	-18.0625	2.1171541	0.7378539	-0.012307071
1277307538074	-0.50395286	10.501288	5.6660647	2.1363525	0.0	-27.75	-45.0625	-17.8125	1.7380022	0.4943113	0.047952835
1277307538114	-0.10896278	7.43671	-3.9090397	-1.4044409	0.0	-28.0	-44.5625	-18.5625	0.6592727	-0.4839052	0.014650967
1277307538154	-3.9771416	6.3198414	-4.5219555	-1.0770378	0.0	-28.75	-44.5625	-18.8125	1.0480603	-0.54451334	0.5616929
1277307538184	4.440233	14.328606	-3.486809	5.594079	0.0	-28.5	-44.8125	-16.75	0.46365666	-0.2283857	-0.30050159
1277307538224	7.43671	11.372991	-0.040861044	3.781993	0.0	-27.75	-45.875	-13.4375	-0.13744296	-0.003007004	-0.57910657
1277307538264	-0.10896278	7.273266	0.84446156	-2.483715	0.0	-27.0	-47.625	-9.625	1.4233361	0.11557449	0.014980153
1277307538305	-0.23154591	8.62168	0.5720546	-1.1629105	0.0	-26.5	-48.6875	-5.5625	1.4855161	0.06622978	0.026849786
1277307538344	2.7921712	7.7772183	-0.7627395	-1.5082693	0.0	-25.8125	-49.6875	-2.5	0.779784	-0.09204417	-0.3446871
1277307538374	2.8330324	7.5456724	-0.7627395	-1.7106628	0.0	-25.3125	-49.9375	0.8125	0.94573057	-0.09435197	-0.35916626
1277307538414	3.0237172	8.499097	1.920469	-0.58354187	0.0	-24.8125	-49.6875	4.125	2.7326992	0.20975843	-0.34180516
1277307538454	2.152015	8.076866	0.61291564	-1.4255648	0.0	-23.5625	-49.6875	6.9375	2.3992438	0.07319616	-0.26039246
1277307538485	2.7921712	8.894087	0.9942854	-0.43170452	0.0	-22.625	-50.1875	9.75	2.7413733	0.106257565	-0.30419227
1277307538524	4.0588636	10.18802	2.1111538	1.3614779	0.0	-21.125	-50.9375	11.8125	3.1065223	0.19017813	-0.37912264
1277307538564	7.0553403	9.507003	-0.88532263	2.0653648	0.0	-19.6875	-51.4375	13.0625	-2.1193204	-0.07464152	-0.63843906
1277307538594	5.5571017	10.691973	2.4516625	2.4901104	0.0	-19.1875	-51.4375	13.8125	-2.8737338	0.20071973	-0.4793187
1277307538624	3.1463003	11.75436	1.7570249	2.487711	0.0	-19.4375	-51.1875	13.3125	2.8831515	0.14340408	-0.26153973
1277307538654	4.0588636	12.408136	3.486809	3.706087	0.0	-20.6875	-50.4375	11.5625	2.984908	0.26099157	-0.3161419
1277307538684	-2.4516625	15.28203	2.070293	5.8086376	0.0	-22.875	-49.6875	8.0	2.0003974	0.13297267	0.15907235
1277307538724	-5.434519	16.017529	-2.5333846	7.2963676	0.0	-25.3125	-49.4375	3.875	1.5232158	-0.14867209	0.3270981
1277307538754	1.0351465	14.328606	3.445948	4.9668074	0.0	-26.75	-48.9375	-0.1875	2.0370412	0.23542126	-0.072118066
1277307538785	5.938472	10.991621	0.84446156	2.7151031	0.0	-28.0	-48.125	-4.5	1.174166	0.06749079	-0.4953443
1277307538824	4.140586	6.2789803	0.08172209	-2.2849002	0.0	-29.1875	-47.125	-8.125	-0.20658188	0.010864985	-0.5829801
1277307538864	-0.42223078	6.1291566	-0.61291564	-3.6324697	0.0	-29.6875	-45.875	-11.6875	1.1173201	-0.09943454	0.06878022
1277307538904	0.040861044	4.903325	-1.2666923	-4.742188	0.0	-29.6875	-44.0625	-16.0	0.8344829	-0.25279787	-0.00833314
1277307538944	-2.1383946	3.0237172	-0.7627395	-6.025464	0.0	-29.6875	-42.5625	-20.375	1.1219903	-0.20311332	0.61554664
1277307538974	-2.7921712	1.0351465	0.95342433	-6.679868	0.0	-28.5	-41.5	-23.125	1.0850503	0.30985644	1.215773
1277307539004	-0.6946377	2.7240696	2.9147544	-5.757098	0.0	-27.75	-41.0	-24.4375	1.7497212	0.8034739	0.24967897
1277307539044	5.5571017	10.760075	11.182305	6.676811	0.0	-28.0	-41.75	-23.9375	2.8039854	0.74557644	-0.47672534
1277307539074	6.973618	14.818938	12.408136	10.740713	0.0	-27.75	-42.8125	-22.375	2.6449523	0.64835966	-0.43984258
1277307539114	-1.1849703	7.668256	6.851035	0.5443392	0.0	-28.25	-43.5625	-21.375	1.8420902	0.723314	0.15331662
1277307539144	-2.3426998	7.7363577	7.205164	1.0217323	0.0	-28.25	-44.0625	-21.375	1.7364812	0.72802436	0.2940391
1277307539174	-2.8738933	15.826844	3.255263	6.6050835	0.0	-27.25	-44.5625	-21.875	1.1952573	0.1996739	0.17962629
1277307539214	0.8036005	12.176591	-2.4925237	2.6483812	0.0	-27.0	-44.8125	-21.125	0.6745134	-0.20148225	-0.06589996
1277307539254	-0.61291564	5.6660647	-3.8273177	-2.9416437	0.0	-27.0	-45.625	-19.0625	0.6771147	-0.59138477	0.10775408
1277307539294	4.1814466	12.217452	-5.5162406	4.2354126	0.0	-26.3125	-46.875	-16.0	0.26727423	-0.4037145	-0.3297557
1277307539334	5.47538	10.841797	1.0760075	2.386878	0.0	-26.5	-47.875	-11.4375	0.30568725	0.08835908	-0.46765962
1277307539374	-3.8681788	7.014479	2.1792557	-1.5051517	0.0	-26.0625	-49.6875	-6.3125	1.614067	0.2656262	0.5039606
1277307539404	2.7921712	8.008764	-0.9125633	-1.2761583	0.0	-25.3125	-50.1875	-2.0	0.74822766	-0.107181735	-0.33546224
1277307539444	4.6036777	8.008764	-0.61291564	-0.5486908	0.0	-25.5625	-50.6875	2.375	-1.151034	-0.06625264	-0.52170646
1277307539474	3.759216	8.117727	2.2609777	-0.57944965	0.0	-25.0625	-50.4375	6.1875	3.0635648	0.24755473	-0.43368384
1277307539504	3.255263	8.117727	2.2201166	-0.78317165	0.0	-24.5625	-49.4375	9.0	2.946578	0.24859025	-0.3813739
1277307539534	2.5333846	8.308413	0.8036005	-1.0834894	0.0	-23.5625	-49.6875	11.0625	2.6763134	0.09225343	-0.2959626
1277307539564	3.405087	8.281172	0.88532263	-0.809083	0.0	-22.125	-49.6875	12.5625	3.0540361	0.09855525	-0.39011058
1277307539594	3.214402	9.343558	1.4165162	0.17538261	0.0	-21.125	-49.6875	13.5625	2.9625876	0.14238721	-0.3313405
1277307539634	4.440233	10.337844	-1.0760075	1.49576	0.0	-20.4375	-49.9375	14.375	-3.0406466	-0.095346	-0.40568656
1277307539674	5.325556	9.915613	1.8387469	1.5978193	0.0	-20.1875	-49.9375	14.875	-2.895992	0.16193722	-0.49287587
1277307539704	4.6036777	11.264028	2.6423476	2.6454248	0.0	-19.9375	-49.6875	14.625	-3.128239	0.2138271	-0.3879891
1277307539744	7.082581	11.686258	2.3426998	4.057686	0.0	-20.1875	-49.9375	13.5625	-2.7735784	0.16978768	-0.5448639
1277307539774	-1.1849703	14.628253	1.0351465	4.905979	0.0	-21.375	-50.1875	10.5	2.0713818	0.070415854	0.0808291
1277307539804	-4.944186	16.43976	-2.3699405	7.523304	0.0	-23.125	-50.1875	6.4375	1.5903372	-0.13718389	0.29214072
1277307539844	-0.14982383	14.628253	1.5390993	4.9031096	0.0	-25.3125	-50.1875	2.625	1.8653344	0.10482303	0.010241727
1277307539884	6.2789803	10.501288	0.08172209	2.4289265	0.0	-27.0	-49.9375	-1.4375	-1.1634728	0.0066791046	-0.5388922
1277307539924	2.5606253	6.932757	0.46309182	-2.4016266	0.0	-28.5	-48.6875	-5.3125	1.3875499	0.06257836	-0.35380954
1277307539964	-0.08172209	5.243834	-1.4573772	-4.3634505	0.0	-29.4375	-47.125	-9.125	0.9563625	-0.2710495	0.015583154
1277307540004	-0.23154591	4.099725	-0.95342433	-5.591158	0.0	-30.4375	-44.8125	-14.25	0.9485313	-0.22814557	0.056418467
1277307540062	-2.4516625	3.214402	-0.27240697	-5.7548313	0.0	-30.9375	-43.0625	-19.0625	1.1941335	-0.067281544	0.6515872
1277307540094	-1.6480621	1.334794	2.152015	-6.7852345	0.0	-30.4375	-41.75	-21.875	1.315167	0.7927041	0.8900374
1277307540134	2.6014864	5.8976107	6.66035	-0.53789616	0.0	-29.6875	-42.0	-22.125	2.6859066	0.80175966	-0.41543525
1277307540164	10.419566	17.692831	14.628253	15.404249	0.0	-28.25	-43.5625	-20.0625	2.980453	0.6190175	-0.5322286
1277307540194	3.2961242	14.056199	9.384419	7.412773	0.0	-27.5	-44.5625	-17.8125	2.2019098	0.57637763	-0.2303344
1277307540224	-2.5333846	12.762266	5.325556	4.2523336	0.0	-27.5	-45.875	-16.5	1.5637295	0.3885003	0.19595847
1277307540265	0.14982383	10.56939	-0.6946377	0.78660107	0.0	-27.5	-46.375	-15.75	0.9602108	-0.0656207	-0.014174309
1277307540304	-6.851035	2.6014864	-0.3405087	-2.4704142	0.0	-28.25	-46.375	-15.0	1.3051876	-0.046431314	1.2078925
1277307540344	1.879608	11.686258	-10.337844	5.9087114	0.0	-28.5	-47.125	-13.4375	0.4414952	-0.7179176	-0.15947337
1277307540374	11.563675	13.6748295	1.3075534	8.149664	0.0	-27.75	-48.125	-9.875	-1.0350658	0.07288309	-0.7019443
1277307540404	3.759216	8.308413	3.3778462	-0.081873894	0.0	-26.75	-48.9375	-5.8125	2.8476117	0.35473767	-0.424897
1277307540444	-1.9885708	7.5456724	0.6946377	-1.9724874	0.0	-25.5625	-49.9375	-2.5	1.6032037	0.08878436	0.2576791
1277307540474	1.879608	7.9679036	-0.84446156	-1.5766125	0.0	-24.5625	-50.1875	1.3125	1.2376593	-0.10278816	-0.23166226
1277307540504	2.982856	7.8861814	-1.0351465	-1.3118982	0.0	-24.0625	-50.1875	3.875	1.0210319	-0.122160785	-0.36160672
1277307540544	2.3018389	8.117727	1.1168685	-1.2952833	0.0	-23.5625	-50.4375	6.1875	2.552929	0.13160035	-0.2763041
1277307540574	2.152015	8.049625	0.9942854	-1.4152117	0.0	-22.875	-50.4375	9.0	2.609508	0.11876709	-0.26123416
1277307540604	1.9885708	8.390134	1.3756552	-1.0750303	0.0	-22.125	-50.4375	11.0625	2.6711326	0.15820783	-0.23271875
1277307540634	3.1463003	8.853226	1.5390993	-0.28574467	0.0	-21.125	-50.4375	13.0625	3.0036194	0.16236721	-0.34146374
1277307540664	4.0180025	9.275456	1.9885708	0.49543	0.0	-19.9375	-50.4375	14.375	-3.0703256	0.19424535	-0.4087842
1277307540694	4.8216033	9.575105	0.88532263	0.950407	0.0	-18.6875	-49.9375	15.375	-2.8565273	0.082394764	-0.4664885
1277307540724	6.3198414	9.234595	2.5606253	1.672677	0.0	-18.0	-50.1875	15.625	-2.6743257	0.22495662	-0.600156
1277307540754	6.0201936	9.615966	3.5276701	2.074174	0.0	-17.75	-50.1875	14.875	-2.7688363	0.30146697	-0.5593628
