#timestamp	accel_x	accel_y	accel_z	accel_mag	temperature	mag_x	mag_y	mag_z	azimuth	pitch	roll
1277222904271	3.445948	0.6946377	9.384419	0.21454811	0.0	-33.375	-22.8125	-41.1875	-2.483857	1.2123893	-1.371881
1277222904301	3.405087	0.61291564	9.425281	0.23357868	0.0	-33.625	-21.8125	-41.4375	-2.4918575	1.2189894	-1.3927034
1277222904351	3.486809	0.7218784	9.384419	0.23059464	0.0	-33.625	-20.8125	-41.9375	-2.5422268	1.2081455	-1.3666492
1277222904381	3.2961242	0.8036005	9.697687	0.4673624	0.0	-33.125	-20.5625	-42.1875	-2.6186392	1.2342613	-1.3316598
1277222904421	3.3778462	0.7627395	9.615966	0.41383934	0.0	-32.875	-21.0625	-42.1875	-2.5601301	1.2251357	-1.3487145
1277222904461	3.2961242	0.6537767	9.615966	0.37954903	0.0	-32.875	-21.5625	-42.1875	-2.5173929	1.2346082	-1.3749906
1277222904501	3.3778462	0.6946377	9.575105	0.37053013	0.0	-33.125	-22.0625	-42.1875	-2.5098398	1.2251028	-1.3679787
1277222904541	3.445948	0.7218784	9.507003	0.33133602	0.0	-33.625	-21.8125	-41.6875	-2.5292532	1.2161245	-1.3642963
1277222904571	3.445948	0.7218784	9.384419	0.21647263	0.0	-34.125	-21.5625	-41.9375	-2.5429227	1.2118772	-1.3642963
1277222904611	3.3778462	0.7218784	9.275456	0.09107971	0.0	-34.125	-21.8125	-41.9375	-2.5450623	1.2143124	-1.3602538
1277222904642	3.486809	0.88532263	9.343558	0.20552826	0.0	-34.125	-21.3125	-41.9375	-2.6067634	1.2032708	-1.3221445
1277222904681	3.568531	0.6946377	9.302697	0.18119812	0.0	-34.125	-21.8125	-42.4375	-2.4927232	1.1982443	-1.378544
1277222904711	3.568531	0.50395286	10.079058	0.89735794	0.0	-33.875	-21.8125	-41.9375	-2.4493341	1.2273961	-1.4305027
1277222904741	3.405087	0.3405087	10.310603	1.0570097	0.0	-34.125	-21.5625	-42.1875	-2.4307158	1.2503378	-1.4711276
1277222904781	3.2961242	0.6537767	9.915613	0.6628885	0.0	-34.625	-22.5625	-42.1875	-2.5473561	1.2440501	-1.3749906
1277222904821	4.630918	1.4982382	8.390134	-0.1069355	0.0	-34.875	-22.3125	-41.1875	-2.497515	1.0451258	-1.2578951
1277222904863	4.399372	1.1168685	8.62168	-0.06317806	0.0	-34.875	-22.3125	-40.9375	-2.4482565	1.0862092	-1.3221787
1277222904902	3.5276701	1.3075534	9.656827	0.5571556	0.0	-34.625	-22.5625	-40.9375	-2.7594535	1.1992962	-1.2158393
1277222904951	3.214402	1.2258313	9.00305	-0.1687069	0.0	-33.875	-22.5625	-41.1875	-2.7587335	1.2058016	-1.206465
1277222904991	2.5333846	1.3756552	9.847511	0.4541464	0.0	-32.375	-23.3125	-41.4375	-2.9526153	1.2860105	-1.0733349
1277222905021	3.445948	1.3075534	9.575105	0.45331478	0.0	-31.625	-24.5625	-41.4375	-2.6283898	1.2033542	-1.208133
1277222905051	3.1463003	1.920469	9.384419	0.2757473	0.0	-31.375	-25.5625	-40.9375	-2.9015186	1.1965206	-1.0227724
1277222905091	3.1054392	2.2201166	9.302697	0.24883842	0.0	-31.375	-26.8125	-39.6875	-2.9876385	1.1813943	-0.9501321
1277222905131	3.718355	2.3426998	9.575105	0.72886276	0.0	-32.125	-27.8125	-39.1875	-2.8561141	1.1404967	-1.0085834
1277222905171	4.440233	1.7570249	8.580819	0.013394356	0.0	-32.625	-28.5625	-38.1875	-2.437061	1.0629761	-1.1939975
1277222905211	4.4810944	2.2609777	9.084772	0.5724306	0.0	-33.125	-29.0625	-37.375	-2.6219323	1.0660484	-1.103508
1277222905253	3.759216	2.4925237	9.915613	1.0866394	0.0	-33.625	-29.0625	-36.875	-2.9184775	1.1438866	-0.98530626
1277222905291	4.0588636	2.070293	9.043911	0.32018566	0.0	-33.875	-29.0625	-36.125	-2.7048714	1.1041094	-1.0991275
1277222905332	4.1814466	1.7978859	8.008764	-0.5948534	0.0	-34.125	-29.5625	-35.875	-2.53423	1.0539929	-1.1647258
1277222905371	3.7864566	2.3699405	8.894087	0.14617157	0.0	-33.875	-29.8125	-35.375	-2.8454158	1.1053574	-1.0115505
1277222905401	3.5276701	2.4516625	8.962189	0.13195801	0.0	-33.625	-30.0625	-35.875	-2.9240131	1.1238124	-0.963447
1277222905441	3.336985	2.152015	8.580819	-0.35164642	0.0	-32.875	-30.3125	-36.375	-2.8410592	1.1373951	-0.9980161
1277222905481	4.3312707	2.152015	8.689782	0.1383686	0.0	-31.875	-30.3125	-36.875	-2.5378034	1.0629263	-1.1096677
1277222905521	3.5276701	2.2609777	9.915613	0.95791435	0.0	-30.875	-30.5625	-37.375	-2.7881632	1.1709853	-1.000826
1277222905551	2.8330324	2.3426998	9.80665	0.66639614	0.0	-30.125	-30.3125	-37.9375	-2.9858434	1.2121428	-0.87985307
1277222905591	3.0645783	2.0294318	9.084772	-0.0064811707	0.0	-29.125	-30.3125	-39.1875	-2.7662222	1.1863375	-0.985877
1277222905637	2.982856	1.8387469	9.724928	0.5303049	0.0	-28.375	-30.0625	-39.9375	-2.7225907	1.2249601	-1.0183774
1277222905689	2.9556155	1.0351465	9.507003	0.20285988	0.0	-27.625	-30.0625	-40.6875	-2.4109192	1.2525865	-1.2339163
1277222905721	3.336985	1.0760075	9.234595	0.07115364	0.0	-26.375	-30.0625	-41.1875	-2.2762268	1.2079307	-1.2588735
1277222905761	2.7240696	1.2666923	10.337844	0.9588537	0.0	-26.125	-30.3125	-41.1875	-2.5308306	1.2879858	-1.1355387
1277222905801	2.7921712	0.9942854	9.466142	0.11265755	0.0	-25.875	-30.5625	-41.4375	-2.3697596	1.2673581	-1.2286997
1277222905841	2.9147544	1.56634	9.425281	0.18260002	0.0	-25.625	-31.8125	-40.4375	-2.5183933	1.2331661	-1.0776913
1277222905885	1.9477097	2.5333846	11.34575	1.9805317	0.0	-24.5625	-33.5625	-39.6875	-3.1079855	1.2962556	-0.6554358
1277222905941	0.27240697	3.405087	9.043911	-0.13911915	0.0	-22.0625	-35.8125	-38.9375	2.4092586	1.2096528	-0.07982999
1277222905984	1.2666923	4.3312707	7.7363577	-0.8503313	0.0	-18.3125	-38.875	-37.375	2.7840548	1.0427393	-0.28451845
1277222906021	2.1111538	4.3312707	6.932757	-1.3639021	0.0	-13.75	-40.875	-37.375	-2.7589555	0.9634219	-0.45353413
1277222906051	0.84446156	4.862464	8.117727	-0.30643082	0.0	-9.25	-43.375	-36.375	3.0526583	1.024545	-0.17195438
1277222906081	-1.3075534	6.973618	8.076866	0.9440155	0.0	-5.5	-44.375	-35.125	2.1469183	0.8500143	0.18534796
1277222906122	0.42223078	7.5865335	7.3549876	0.76830196	0.0	-2.1875	-44.375	-34.875	-3.0933976	0.7691298	-0.055597942
1277222906164	1.2258313	6.973618	5.9793324	-0.5391569	0.0	1.3125	-43.625	-34.875	-1.6755307	0.7012774	-0.1740036
1277222906202	-3.445948	5.5162406	8.689782	1.0476475	0.0	4.5625	-42.125	-35.375	2.0394542	0.92827	0.5583774
1277222906231	-3.486809	3.5957718	8.812365	0.3296795	0.0	8.125	-40.375	-36.625	2.0656168	1.0539547	0.77001476
1277222906268	-3.5957718	2.1792557	8.62168	-0.21435642	0.0	11.125	-38.875	-37.6875	1.9243572	1.1170543	1.0259324
1277222906301	-4.9850473	1.9477097	8.962189	0.6319847	0.0	14.375	-36.5625	-38.1875	1.68616	1.0324533	1.1983238
1277222906411	-2.9147544	5.09401	5.243834	-1.9362926	0.0	17.6875	-34.8125	-38.1875	0.66084087	0.72920424	0.51972187
1277222906461	4.2495484	2.4108016	8.921328	0.36491394	0.0	20.9375	-32.5625	-38.9375	-1.0814853	1.0697597	-1.0547622
1277222906519	-0.61291564	3.2961242	7.6954966	-1.4125586	0.0	23.6875	-29.5625	-40.1875	-2.2542539	1.1599306	0.18385057
1277222906553	-2.6832085	2.9556155	9.193735	0.21632576	0.0	25.25	-27.0625	-41.9375	-3.1123302	1.1611607	0.7371265
1277222906581	-1.879608	2.5606253	11.032481	1.6740017	0.0	26.75	-24.3125	-43.6875	-2.8256636	1.2904619	0.6332099
1277222906621	-1.4982382	2.1792557	10.147159	0.6794691	0.0	27.0	-22.5625	-43.9375	-2.7304313	1.3158438	0.60228735
1277222906651	-0.84446156	2.8330324	9.997335	0.61860275	0.0	27.25	-21.5625	-43.1875	-2.216469	1.2832892	0.28969157
1277222906691	-0.9942854	3.405087	10.18802	0.9812584	0.0	27.5	-21.8125	-42.4375	-2.1442049	1.2357422	0.28410128
1277222906721	-1.9477097	3.8681788	10.56939	1.6156263	0.0	27.0	-22.5625	-41.6875	-2.3600667	1.1819084	0.46646053
1277222906754	-2.6832085	3.759216	10.528529	1.6903601	0.0	26.75	-24.0625	-41.4375	-2.6762445	1.1574016	0.6199066
1277222906791	-2.070293	3.5957718	9.656827	0.7038212	0.0	26.75	-25.3125	-41.1875	-2.5630865	1.1649829	0.5224034
1277222906821	-1.334794	3.759216	8.853226	-0.09619236	0.0	26.5	-26.5625	-40.6875	-2.2937343	1.1474533	0.34118652
1277222906851	-1.334794	3.9090397	9.00305	0.09876156	0.0	26.25	-27.8125	-40.4375	-2.3207908	1.1406437	0.3290497
1277222906899	-1.3756552	3.990762	9.084772	0.21091843	0.0	26.25	-28.5625	-39.9375	-2.353261	1.1358293	0.33195427
1277222906931	-1.2258313	3.8681788	9.084772	0.14315128	0.0	26.0	-29.3125	-39.6875	-2.3737583	1.150727	0.30688962
1277222906961	-1.4165162	3.9090397	9.384419	0.45758057	0.0	26.0	-29.3125	-39.9375	-2.4402258	1.1537362	0.3476515
1277222907001	-1.7570249	3.8681788	9.656827	0.743433	0.0	26.25	-29.0625	-40.1875	-2.557512	1.1563312	0.42636216
1277222907041	-1.9885708	3.718355	9.302697	0.40710354	0.0	26.0	-28.5625	-39.6875	-2.6514173	1.1452203	0.49109736
1277222907072	-1.7570249	3.759216	8.771504	-0.10313892	0.0	26.25	-28.5625	-39.6875	-2.524355	1.1289216	0.43722203
1277222907112	-1.7297841	3.990762	8.308413	-0.4285879	0.0	27.0	-28.8125	-39.1875	-2.4075978	1.0885197	0.4090036
1277222907151	-1.6889231	4.099725	7.7363577	-0.8897314	0.0	27.75	-28.8125	-38.1875	-2.3066204	1.0503641	0.39077413
1277222907191	-1.879608	4.6036777	8.117727	-0.28697205	0.0	28.5	-29.0625	-37.6875	-2.2504272	1.0211921	0.3876273
1277222907231	-1.7297841	5.5162406	8.471856	0.44973373	0.0	29.25	-29.3125	-36.875	-2.033516	0.9719883	0.3038687
1277222907271	-1.0760075	4.6036777	7.9679036	-0.5417099	0.0	29.5	-29.3125	-36.375	-2.0606647	1.0352813	0.229606
1277222907311	-0.7218784	4.1814466	7.7772183	-0.9471512	0.0	29.5	-28.8125	-36.625	-2.0245876	1.0713326	0.17095336
1277222907341	-1.0351465	4.0180025	8.076866	-0.7263622	0.0	29.5	-28.0625	-37.125	-2.1385322	1.0962377	0.25214416
1277222907381	-1.6889231	4.0588636	8.689782	-0.068110466	0.0	29.5	-25.8125	-38.6875	-2.2475624	1.1024336	0.39431447
1277222907421	-2.7240696	4.2086873	9.507003	0.94121933	0.0	29.25	-23.3125	-39.6875	-2.395349	1.0855234	0.57443905
1277222907461	-3.0645783	3.9499009	9.997335	1.3710089	0.0	27.75	-20.3125	-41.1875	-2.4371703	1.1070954	0.65984845
1277222907501	-3.1054392	3.2961242	10.269742	1.417243	0.0	26.5	-17.0625	-43.1875	-2.518783	1.1554813	0.75561965
1277222907541	-3.718355	2.7240696	10.95076	2.0746737	0.0	24.9375	-15.3125	-44.4375	-2.8990905	1.1723849	0.93852407
1277222907581	-4.1814466	2.3699405	10.61025	1.8414621	0.0	22.4375	-13.3125	-45.9375	3.0341923	1.1454568	1.0551652
1277222907621	-3.718355	2.7240696	9.656827	0.8938656	0.0	21.4375	-12.25	-47.1875	-2.1475635	1.125455	0.93852407
1277222907661	-3.5276701	2.982856	9.466142	0.7266178	0.0	19.9375	-12.0	-47.6875	-1.4982135	1.1167731	0.8688857
1277222907701	-3.214402	2.8738933	8.853226	0.040747643	0.0	17.6875	-12.0	-48.6875	-0.8963717	1.117577	0.8412684
1277222907741	-2.7240696	3.0237172	8.349273	-0.5182829	0.0	16.4375	-12.25	-49.6875	-0.82592475	1.1172425	0.7333126
1277222907782	-2.6832085	3.445948	8.539958	-0.21472359	0.0	14.625	-12.8125	-50.1875	-0.5599268	1.0980643	0.6615902
1277222907821	-2.9556155	3.7864566	9.193735	0.56628036	0.0	13.375	-12.8125	-50.9375	-0.34754458	1.0893366	0.6627841
1277222907861	-2.9556155	3.636633	9.507003	0.79258823	0.0	12.125	-12.5625	-51.1875	-0.2083846	1.1128256	0.68245757
1277222907901	-2.9147544	3.336985	8.894087	0.12995148	0.0	11.125	-13.3125	-51.1875	0.0518596	1.1086181	0.71796244
1277222907931	-2.4925237	3.2961242	8.689782	-0.18430996	0.0	10.375	-13.8125	-51.9375	0.008326216	1.1268975	0.6474562
1277222907971	-3.255263	3.718355	8.158588	-0.26802063	0.0	9.375	-14.0625	-52.4375	0.17043626	1.0261699	0.71908927
1277222908011	-4.099725	3.8273177	8.499097	0.37621498	0.0	9.125	-13.8125	-52.4375	0.24545252	0.98749137	0.81974894
1277222908051	-3.0237172	2.982856	8.689782	-0.13438988	0.0	8.125	-11.75	-52.9375	0.24495625	1.1161654	0.7922008
1277222908091	-2.6423476	1.6480621	7.8589406	-1.3531857	0.0	7.125	-8.25	-53.1875	0.31488654	1.1935188	1.0131242
1277222908131	-3.0237172	1.9885708	8.539958	-0.5315132	0.0	5.375	-5.25	-53.6875	0.10087614	1.169964	0.98905665
1277222908171	-3.718355	2.1111538	9.888372	0.96660614	0.0	4.0625	-2.75	-54.1875	0.022656325	1.1626621	1.054416
1277222908211	-5.09401	1.9885708	9.343558	1.019495	0.0	4.3125	-1.25	-54.6875	-0.01699107	1.041287	1.1986153
1277222908251	-4.7943625	2.070293	8.812365	0.4368744	0.0	4.0625	-1.25	-54.6875	-0.019091727	1.0358311	1.1631649
1277222908282	-4.7126403	1.8387469	8.471856	0.06058407	0.0	4.8125	-0.0	-54.4375	-0.07257919	1.0325027	1.1987897
1277222908321	-5.09401	1.879608	8.158588	-0.00642395	0.0	5.375	1.5	-54.6875	-0.12254556	0.9835865	1.2173104
1277222908351	-5.8567495	1.6889231	9.425281	1.4178715	0.0	4.0625	3.25	-54.9375	-0.15431435	0.9967387	1.2900412
1277222908391	-5.938472	0.6946377	10.419566	2.206481	0.0	3.3125	5.25	-54.4375	-0.22232322	1.049849	1.454353
1277222908431	-5.8567495	0.23154591	10.419566	2.1483688	0.0	2.3125	6.0	-54.9375	-0.2376537	1.0583837	1.5312821
1277222908471	-4.903325	0.38136974	10.038197	1.3716068	0.0	0.5625	6.25	-55.1875	-0.25357544	1.1152273	1.4931748
1277222908511	-3.7864566	0.84446156	9.302697	0.27256298	0.0	0.0625	6.0	-55.4375	-0.25533098	1.1756979	1.3513658
1277222908551	-3.255263	1.2258313	8.812365	-0.33262444	0.0	-0.9375	5.25	-56.4375	-0.1945479	1.1948498	1.2106508
1277222908591	-3.214402	1.3075534	9.00305	-0.15797234	0.0	-1.1875	4.5	-56.1875	-0.16165571	1.2029011	1.1844591
1277222908631	-3.255263	1.334794	9.193735	0.037290573	0.0	-0.9375	4.0	-55.4375	-0.15062435	1.2053062	1.1816633
1277222908671	-3.2961242	1.8387469	9.084772	0.030956268	0.0	-0.6875	3.25	-54.4375	-0.10887217	1.1770384	1.0619453
1277222908711	-3.568531	1.7297841	8.853226	-0.10581589	0.0	0.8125	3.25	-53.9375	-0.14360392	1.1496605	1.1194369
1277222908751	-3.9499009	1.7297841	8.771504	-0.032543182	0.0	2.0625	3.0	-54.1875	-0.15232433	1.1138921	1.1580242
1277222908791	-4.099725	1.7978859	8.853226	0.114022255	0.0	3.5625	3.25	-54.6875	-0.18987933	1.1026402	1.1575148
1277222908831	-4.2904096	1.879608	9.043911	0.3782835	0.0	4.8125	3.75	-55.4375	-0.2299969	1.0929112	1.1578864
1277222908871	-4.099725	2.070293	8.962189	0.2638359	0.0	5.375	3.5	-54.9375	-0.24497055	1.0972267	1.1031699
1277222908921	-4.2086873	2.2201166	9.084772	0.44883823	0.0	5.375	3.75	-54.4375	-0.25227532	1.0883118	1.0853852
1277222908961	-3.9771416	2.4516625	8.921328	0.26401997	0.0	5.875	4.0	-54.4375	-0.2785736	1.0883709	1.0183774
1277222908991	-3.9090397	2.3699405	8.894087	0.19344902	0.0	6.625	4.25	-53.9375	-0.31658497	1.0960307	1.0257779
1277222909021	-3.5957718	2.7649305	9.384419	0.61648464	0.0	7.625	4.75	-54.4375	-0.3834627	1.1205621	0.91528386
1277222909051	-4.1814466	2.7240696	9.724928	1.1240072	0.0	9.125	4.75	-54.1875	-0.4167121	1.0966719	0.99339134
1277222909082	-4.7126403	2.3426998	10.038197	1.5274849	0.0	9.875	4.5	-53.6875	-0.4199074	1.0879147	1.1094636
1277222909121	-5.5571017	1.4573772	10.310603	1.99648	0.0	10.625	4.75	-53.6875	-0.38085422	1.062445	1.3143173
1277222909161	-5.325556	1.6480621	9.915613	1.5686312	0.0	10.875	5.5	-53.1875	-0.43080595	1.0586215	1.2706807
1277222909201	-3.8273177	1.6889231	9.466142	0.5426817	0.0	10.625	6.0	-53.1875	-0.58313954	1.1546713	1.1552166
1277222909241	-3.5276701	1.4165162	7.8861814	-1.0520611	0.0	10.375	6.5	-53.1875	-0.53755015	1.1216208	1.1889594
1277222909282	-3.486809	2.3018389	8.158588	-0.64046955	0.0	10.375	6.0	-53.1875	-0.50322485	1.0975097	0.98731446
1277222909321	-3.568531	2.2609777	7.6273947	-1.0874996	0.0	10.375	4.75	-53.6875	-0.4352753	1.0649948	1.0060453
1277222909361	-3.7864566	1.879608	8.430995	-0.37522125	0.0	11.125	3.75	-53.6875	-0.4627979	1.1060283	1.1100305
1277222909401	-4.2086873	2.3426998	7.6273947	-0.78565025	0.0	11.875	2.25	-53.6875	-0.35600787	1.0075297	1.0628738
1277222909441	-3.759216	2.6832085	10.18802	1.3793707	0.0	12.375	0.75	-52.9375	-0.5376939	1.1451727	0.95088965
1277222909481	-5.134871	3.1054392	11.073342	2.7881727	0.0	13.625	-0.75	-51.9375	-0.42518038	1.0741761	1.0268736
1277222909521	-2.2201166	4.140586	8.117727	-0.42737103	0.0	14.625	-1.25	-51.6875	-0.5755176	1.0461395	0.4921742
1277222909561	-2.1383946	3.0645783	8.390134	-0.62195015	0.0	16.9375	-1.0	-50.4375	-0.8840986	1.1517816	0.60923296
1277222909601	-2.982856	3.173541	8.580819	-0.18379974	0.0	19.1875	-0.5	-49.6875	-0.917205	1.1011156	0.7544346
1277222909641	-3.5957718	2.7240696	9.00305	0.2633562	0.0	21.9375	1.25	-48.6875	-1.1224049	1.1062973	0.9224643
1277222909681	-5.366417	3.336985	9.00305	1.1928415	0.0	24.1875	2.0	-47.6875	-0.90144503	0.95878977	1.0144817
1277222909721	-5.706926	3.568531	9.765789	2.053959	0.0	25.5	2.75	-46.9375	-1.0064267	0.96734166	1.0119826
1277222909761	-5.47538	2.070293	8.62168	0.6144476	0.0	27.25	4.25	-45.9375	-1.1581297	0.97433645	1.2093023
1277222909801	-5.012288	-1.7570249	7.668256	-0.478611	0.0	28.0	4.5	-44.9375	1.0860837	0.9650285	1.9079552
1277222909841	-4.903325	-3.486809	9.112013	1.1125631	0.0	29.0	5.25	-44.1875	1.4057231	0.98721296	2.1889405
1277222909881	-3.486809	-1.607201	9.275456	0.2320261	0.0	29.25	6.25	-44.4375	2.558876	1.178339	2.0027084
1277222909921	-2.0294318	1.4165162	8.921328	-0.5483999	0.0	29.25	6.0	-45.1875	-1.9133104	1.3001877	0.9614229
1277222909951	-4.2495484	4.0180025	8.430995	0.45418262	0.0	29.25	5.75	-45.6875	-1.1175562	0.9643308	0.8133974
1277222909991	-4.099725	2.4925237	8.771504	0.19133472	0.0	28.25	5.5	-45.4375	-1.4104245	1.070264	1.0245346
1277222910031	-6.3607025	1.3075534	8.894087	1.2057524	0.0	28.5	5.25	-45.4375	-1.1324518	0.9401435	1.3680532
1277222910071	-6.932757	0.10896278	9.275456	1.7738972	0.0	27.75	6.25	-45.6875	-0.90884423	0.9288827	1.5550805
1277222910111	-0.040861044	0.0	10.651112	0.84453964	0.0	26.0	8.0	-46.1875	-2.841164	1.5669671	1.5707964
1277222910151	-2.2201166	-0.08172209	10.147159	0.580863	0.0	25.5	9.5	-46.9375	-2.628806	1.3552573	1.6075895
1277222910191	-3.405087	0.08172209	7.9679036	-1.1412716	0.0	24.4375	9.75	-47.1875	-1.9147298	1.1668326	1.546801
1277222910231	-2.3018389	1.0760075	8.853226	-0.5960121	0.0	24.1875	9.0	-46.9375	-1.8081137	1.2913043	1.1335216
1277222910271	-3.0237172	1.5390993	9.997335	0.75073624	0.0	25.5	6.5	-46.6875	-1.7820795	1.2436143	1.0999675
1277222910301	-4.0588636	2.070293	10.337844	1.4907608	0.0	26.75	3.25	-45.9375	-1.6981363	1.1556643	1.0991275
1277222910331	-6.2108784	2.6832085	10.56939	2.7427177	0.0	28.5	0.5	-44.1875	-1.4061176	1.0013969	1.1629968
1277222910371	-5.706926	3.405087	8.853226	1.2632742	0.0	30.5	-1.75	-42.6875	-1.2973199	0.92688674	1.0328373
1277222910411	-4.399372	3.759216	8.117727	0.16248608	0.0	32.0	-3.0	-41.4375	-1.4282581	0.951498	0.86370176
1277222910441	-4.5628166	2.5333846	8.19945	-0.08716965	0.0	33.5	-3.75	-40.4375	-1.9065353	1.0039709	1.0639514
1277222910481	-4.903325	0.88532263	7.668256	-0.6617861	0.0	34.25	-4.25	-41.1875	-2.8548586	0.9945822	1.3921653
1277222910521	-3.9090397	0.08172209	7.164303	-1.6448793	0.0	34.0	-4.0	-41.4375	2.8256855	1.0712246	1.5498935
1277222910561	-2.1111538	2.3426998	6.851035	-2.2646413	0.0	33.5	-3.5	-41.9375	-1.7974102	1.1394013	0.73345715
1277222910601	-4.944186	4.903325	7.504812	0.43101406	0.0	32.75	-3.75	-42.4375	-1.1196551	0.82280856	0.7895475
1277222910641	-4.7535014	3.718355	8.158588	0.3414774	0.0	32.75	-4.75	-41.6875	-1.4677172	0.933908	0.906982
1277222910681	-6.2108784	6.701211	8.921328	2.9632883	0.0	33.5	-6.25	-40.9375	-1.1064268	0.7734661	0.7474417
1277222910721	-4.3312707	7.8589406	6.742072	1.4173594	0.0	34.25	-8.0	-39.9375	-0.97312224	0.6443552	0.5037077
1277222910761	-5.09401	4.5219555	7.7363577	0.501029	0.0	35.5625	-8.5	-39.1875	-1.4725913	0.84888357	0.8448182
1277222910801	-4.7943625	4.2086873	7.1234417	-0.24409866	0.0	35.8125	-8.0	-38.6875	-1.4672925	0.84043145	0.8503596
1277222910841	-4.140586	4.5628166	7.3141265	-0.24316788	0.0	34.75	-7.75	-39.1875	-1.4257526	0.87072676	0.7369229
1277222910881	-4.4810944	3.173541	8.117727	-0.006187439	0.0	33.25	-7.25	-40.4375	-1.8132677	0.9760674	0.9545837
1277222910921	-4.2904096	4.5219555	7.3549876	-0.16551208	0.0	30.5	-7.75	-42.6875	-1.160928	0.8677489	0.7591291
1277222910961	-3.636633	5.5571017	6.742072	-0.3429289	0.0	26.25	-9.25	-45.6875	-0.80322945	0.7929299	0.5794704
1277222911001	-0.3405087	6.6331096	9.697687	1.947465	0.0	21.9375	-12.0	-47.9375	-0.91827106	0.9702838	0.05128968
1277222911041	-0.6537767	6.238119	7.7363577	0.15290737	0.0	18.4375	-15.5625	-48.6875	-0.7726502	0.88953215	0.1044223
1277222911081	-1.1168685	6.973618	4.944186	-1.1855297	0.0	14.625	-19.3125	-48.1875	-0.3962983	0.6107682	0.1588076
1277222911121	-0.95342433	9.275456	7.3141265	2.0440693	0.0	11.125	-24.3125	-46.6875	-0.3861489	0.6651643	0.10243028
1277222911161	0.313268	10.18802	7.246025	2.6992989	0.0	7.375	-28.3125	-44.6875	-0.38813835	0.61800003	-0.03073898
1277222911201	2.1111538	8.580819	10.841797	4.1802006	0.0	2.3125	-30.8125	-45.1875	-1.028805	0.88693994	-0.24124037
1277222911241	1.1168685	6.510526	11.686258	3.61732	0.0	-3.4375	-30.3125	-46.4375	-2.6988418	1.0563221	-0.16989441
1277222911284	-0.0	2.4925237	8.158588	-1.2758093	0.0	-8.0	-24.8125	-49.1875	2.434285	1.2742928	0.0
1277222911321	-0.5720546	-4.2086873	3.0237172	-4.592903	0.0	-11.25	-18.0625	-51.9375	-0.16126841	0.6186684	3.006498
1277222911351	1.7570249	-3.6774938	4.9850473	-3.367567	0.0	-13.0	-13.8125	-52.9375	-0.42748865	0.8854279	-2.6958804
1277222911391	4.2495484	0.6537767	7.3549876	-1.2871475	0.0	-12.5	-14.3125	-52.4375	-0.72152126	1.0417956	-1.418147
1277222911431	3.8681788	3.173541	8.730643	0.25606823	0.0	-12.25	-19.5625	-49.4375	-0.9200609	1.0504011	-0.88372606
1277222911471	3.7864566	3.0645783	9.043911	0.46570206	0.0	-12.5	-27.5625	-45.6875	-1.7284273	1.0767322	-0.8903786
1277222911511	4.372132	4.0180025	9.343558	1.2641201	0.0	-13.5	-34.8125	-40.1875	-1.9573504	1.004669	-0.8275809
1277222911551	5.243834	5.6660647	7.7363577	1.1228199	0.0	-14.75	-40.375	-34.625	-1.7848672	0.78644097	-0.74671584
1277222911581	5.243834	5.47538	6.1700177	-0.031850815	0.0	-15.5625	-44.625	-29.875	-1.7702144	0.6831211	-0.7638005
1277222911621	5.9793324	6.3607025	6.3198414	0.9707031	0.0	-15.8125	-47.125	-25.875	-1.8310055	0.62660754	-0.7545029
1277222911661	6.932757	7.504812	7.082581	2.6250944	0.0	-16.3125	-49.125	-23.125	-1.9234866	0.60616195	-0.7457962
1277222911701	7.273266	6.891896	7.205164	2.5348654	0.0	-16.8125	-49.875	-21.125	-1.9563919	0.62342	-0.81231475
1277222911741	6.0201936	6.0474343	7.014479	1.2394857	0.0	-17.8125	-50.125	-19.875	-2.159558	0.68802994	-0.78314084
1277222911785	6.4015636	6.0201936	6.510526	1.1299715	0.0	-19.0625	-50.375	-19.125	-2.0879107	0.63763386	-0.8160902
1277222911822	5.407278	6.1700177	6.238119	0.4997511	0.0	-20.0625	-50.125	-19.375	-2.2798297	0.6501005	-0.7196108
1277222911861	3.9499009	5.938472	6.4424243	-0.19561481	0.0	-21.3125	-49.875	-20.625	-2.691558	0.7346336	-0.58694327
1277222911901	3.8681788	4.944186	6.932757	-0.45406246	0.0	-22.3125	-49.125	-21.625	-2.6610496	0.83495474	-0.6638976
1277222911941	3.8681788	5.175732	7.205164	-0.12856197	0.0	-23.0625	-47.625	-24.375	-2.7204115	0.8397589	-0.64181477
1277222911971	2.5606253	5.134871	4.903325	-2.259048	0.0	-23.0625	-45.625	-26.625	3.1201718	0.7071284	-0.46258605
1277222912012	2.6832085	4.3312707	4.440233	-3.0483084	0.0	-22.5625	-44.125	-28.375	-2.7899673	0.71683294	-0.55463225
1277222912051	3.173541	6.2108784	8.117727	0.8958664	0.0	-21.3125	-43.125	-29.875	-3.1037767	0.8609894	-0.47238106
1277222912081	1.5390993	6.932757	11.304889	3.5437222	0.0	-19.8125	-43.125	-30.375	2.733666	1.0099111	-0.21846093
1277222912121	2.070293	5.2165933	8.281172	0.19718742	0.0	-17.8125	-43.375	-30.625	3.1158857	0.97517395	-0.37780246
1277222912161	2.070293	4.372132	6.3607025	-1.8153934	0.0	-16.3125	-43.125	-30.875	-2.9369586	0.9205881	-0.44224033
1277222912201	1.4573772	4.2086873	8.117727	-0.54735756	0.0	-14.75	-43.375	-31.625	-3.131375	1.0689821	-0.33335546
1277222912241	1.920469	5.2165933	8.499097	0.34892464	0.0	-13.5	-43.375	-31.625	-3.029928	0.99157625	-0.3527484
1277222912281	2.5606253	5.6252036	8.049625	0.3420534	0.0	-12.5	-43.875	-31.625	-2.751092	0.9159933	-0.42717466
1277222912321	1.334794	4.1814466	9.152874	0.34427452	0.0	-11.75	-45.125	-31.375	-3.0528286	1.1236365	-0.30899364
1277222912351	1.1849703	3.759216	10.18802	1.1172504	0.0	-11.25	-45.375	-31.125	-3.0516455	1.20165	-0.3053586
1277222912391	2.0294318	4.671779	9.847511	1.2801704	0.0	-10.5	-45.625	-31.375	-2.829245	1.0934513	-0.4098075
1277222912431	1.3075534	4.2495484	9.575105	0.7503853	0.0	-10.0	-44.625	-32.875	-3.0126762	1.1360763	-0.29849893
1277222912471	0.6946377	3.8681788	9.466142	0.44289494	0.0	-8.5	-42.375	-35.125	3.1084576	1.1772815	-0.17768362
1277222912511	-0.27240697	4.1814466	8.662541	-0.18384743	0.0	-4.9375	-40.375	-37.375	2.775615	1.120251	0.065054655
1277222912551	-0.95342433	4.372132	7.5865335	-0.9986963	0.0	-0.9375	-38.375	-38.9375	2.5065985	1.037877	0.21470726
1277222912581	-1.334794	5.175732	8.853226	0.5349884	0.0	4.0625	-37.625	-38.6875	2.716391	1.0276285	0.2523951
1277222912621	-2.1383946	6.238119	8.499097	0.9507427	0.0	9.875	-37.875	-36.625	2.8043253	0.9109238	0.33024153
1277222912661	-2.9556155	5.5571017	7.9270425	0.31535816	0.0	14.125	-38.125	-34.875	2.6384506	0.8997141	0.48881173
1277222912701	-2.7513103	5.6252036	8.076866	0.41334915	0.0	19.6875	-36.8125	-32.625	-3.0256884	0.9112986	0.454893
1277222912741	-4.862464	4.9850473	7.6954966	0.57192993	0.0	25.5	-34.5625	-30.625	2.6507275	0.83527154	0.77295065
1277222912781	-5.5571017	2.6832085	5.5571017	-1.5022917	0.0	31.5	-29.5625	-28.125	2.0480666	0.7331033	1.1209682
1277222912811	-6.0201936	2.6014864	5.407278	-1.3067026	0.0	37.3125	-22.8125	-25.625	2.4731257	0.68950367	1.1629049
1277222912851	-6.782933	1.8387469	5.5571017	-0.8472662	0.0	41.3125	-16.0625	-23.125	2.6697721	0.66906756	1.3060741
1277222912901	-5.325556	-0.19068487	6.932757	-1.0624504	0.0	44.3125	-7.5	-21.375	2.7480516	0.9154562	1.6065867
1277222912941	-8.349273	1.6889231	7.246025	1.3767176	0.0	45.625	-3.0	-21.125	-2.710352	0.704862	1.3712057
1277222912981	-10.56939	1.9885708	8.430995	3.8589306	0.0	46.375	-1.0	-19.375	-2.612475	0.66486275	1.384826
1277222913021	-9.152874	0.7627395	6.238119	1.2960978	0.0	47.875	-0.0	-17.375	-2.8320813	0.59662485	1.487655
1277222913061	-9.615966	0.313268	4.7126403	0.9066086	0.0	48.625	-2.25	-12.3125	3.0773969	0.45547462	1.53823
1277222913101	-10.56939	0.95342433	3.0237172	1.2280178	0.0	49.125	-2.5	-5.8125	-2.902118	0.27757028	1.4808336
1277222913141	-10.419566	1.1441092	1.3075534	0.7567787	0.0	49.625	-2.25	0.9375	-2.7187476	0.12409944	1.4614305
1277222913181	-8.689782	0.84446156	-0.19068487	-1.0738506	0.0	48.375	-2.0	8.1875	-2.7810268	-0.021837216	1.4739219
1277222913221	-8.812365	0.61291564	-0.9942854	-0.9172163	0.0	51.5	0.0625	15.3125	-2.7750504	-0.11208479	1.5013564
1277222913261	-9.697687	1.4982382	-2.6014864	0.34507847	0.0	50.0	1.0625	20.5625	-2.2667446	-0.2591515	1.4175138
1277222913301	-8.921328	0.92618364	-1.4982382	-0.7131014	0.0	47.875	2.5625	25.0625	-2.7246835	-0.16551301	1.4673501
1277222913341	-7.1234417	0.92618364	-1.7570249	-2.4114914	0.0	45.375	3.3125	29.8125	-2.680106	-0.23988532	1.4415026
1277222913371	-7.504812	1.3756552	-6.1291566	-0.019864082	0.0	41.0625	3.8125	35.3125	-1.8053927	-0.67675763	1.3895059
1277222913411	-7.04172	1.4165162	-6.742072	0.04463768	0.0	36.625	3.75	39.9375	-2.0048423	-0.7537596	1.3722851
1277222913451	-6.510526	1.5390993	-5.8976107	-0.8882656	0.0	32.3125	3.25	44.4375	-2.4589674	-0.722533	1.3386564
1277222913491	-6.3607025	1.9477097	-7.9679036	0.5731182	0.0	27.875	2.3125	47.125	-2.3507922	-0.8751473	1.2736522
1277222913531	-5.7477865	2.3426998	-8.390134	0.6298075	0.0	24.8125	1.0625	48.625	-2.376084	-0.9338665	1.1837701
1277222913571	-5.434519	1.9477097	-6.932757	-0.78497124	0.0	22.5625	0.3125	50.125	-2.6784947	-0.87642366	1.2266614
1277222913611	-4.903325	1.7978859	-6.2789803	-1.6396074	0.0	19.8125	-0.4375	50.625	-2.7987204	-0.87699276	1.2193515
1277222913651	-4.0588636	1.4165162	-5.5162406	-2.8130956	0.0	18.3125	-0.6875	51.625	-2.8496435	-0.9087901	1.2350186
1277222913691	-4.9850473	2.3699405	-7.04172	-0.8594084	0.0	16.0	-0.9375	52.0625	-2.8548853	-0.90597475	1.1270136
1277222913731	-4.7943625	3.0237172	-8.662541	0.5455675	0.0	13.6875	-2.1875	52.5625	-2.849295	-0.9913779	1.0081217
1277222913771	-5.202973	2.982856	-6.851035	-0.70142937	0.0	12.4375	-3.6875	53.5625	-3.0262535	-0.8517425	1.0502418
1277222913811	-4.099725	2.7649305	-7.3141265	-0.9777756	0.0	10.6875	-5.4375	53.8125	-3.0693467	-0.9763031	0.9774462
1277222913851	-3.6774938	2.7921712	-7.3549876	-1.1224098	0.0	10.1875	-6.9375	54.0625	-3.106938	-1.0101942	0.9213956
1277222913891	-4.1814466	2.8330324	-7.082581	-1.1075974	0.0	9.9375	-8.4375	54.3125	3.0744398	-0.9513127	0.9753144
1277222913931	-4.5900574	3.718355	-8.267551	0.35441303	0.0	9.6875	-9.9375	53.8125	3.0608604	-0.9504037	0.88993376
1277222913971	-5.053149	4.3312707	-8.812365	1.2365379	0.0	10.1875	-11.4375	53.8125	3.040844	-0.9239543	0.8621701
1277222914001	-5.284695	3.9090397	-8.240311	0.73428535	0.0	10.9375	-12.4375	53.5625	2.9746923	-0.89745724	0.93392587
1277222914031	-5.053149	3.486809	-8.076866	0.3386898	0.0	11.1875	-13.0	52.8125	2.913831	-0.9208493	0.9667951
1277222914071	-4.903325	3.336985	-7.8180795	0.0066280365	0.0	11.6875	-13.25	52.8125	2.9065447	-0.9217884	0.97323984
1277222914101	-4.399372	2.9147544	-7.014479	-1.028655	0.0	11.6875	-13.25	53.0625	2.895399	-0.9257936	0.985657
1277222914141	-4.4810944	2.8330324	-6.2108784	-1.640789	0.0	11.9375	-13.5	52.8125	2.9077768	-0.8642225	1.0070227
1277222914191	-4.0180025	3.486809	-6.5513873	-1.3672867	0.0	12.1875	-14.0	52.5625	3.0053747	-0.88875777	0.8560607
1277222914231	-3.568531	4.0180025	-7.205164	-0.81814957	0.0	12.625	-14.375	51.875	3.1348233	-0.92996335	0.7262214
1277222914271	-3.6774938	3.9499009	-6.6331096	-1.2554035	0.0	13.875	-14.875	50.625	-3.140422	-0.88780636	0.74969906
1277222914311	-3.9090397	4.440233	-6.5922484	-0.9492235	0.0	15.375	-15.6875	49.5625	-3.071727	-0.8394296	0.7218623
1277222914351	-6.510526	5.09401	-7.164303	1.1324139	0.0	18.875	-16.4375	47.8125	3.0751674	-0.7140878	0.90686303
1277222914381	-6.469665	3.990762	-4.8216033	-0.80494976	0.0	24.375	-16.9375	44.5625	3.0673232	-0.5652566	1.0180849
1277222914421	-8.19945	2.8330324	-2.7921712	-0.6932936	0.0	30.25	-16.9375	40.25	2.92501	-0.31139022	1.2381227
1277222914461	-7.3549876	4.7126403	-4.2495484	-0.092562675	0.0	36.6875	-15.5625	34.875	-2.7006571	-0.45277482	1.0009578
1277222914491	-10.269742	3.990762	4.0180025	1.9210148	0.0	42.6875	-14.8125	28.125	-3.1021068	0.3496925	1.2001611
1277222914521	-9.384419	3.0645783	1.334794	0.15530968	0.0	46.25	-14.3125	21.375	-3.1144261	0.13439329	1.2551539
1277222914561	-7.164303	4.3312707	-0.6946377	-1.4060745	0.0	49.25	-14.3125	14.125	-2.2169642	-0.082783826	1.0270286
1277222914591	-8.430995	4.8216033	2.6832085	0.26951694	0.0	50.5	-15.3125	7.0625	-2.6202226	0.26954466	1.0513023
1277222914631	-7.8589406	3.3778462	5.47538	0.3497553	0.0	50.25	-16.0625	1.0625	-2.9691753	0.5693754	1.1648592
1277222914671	-6.782933	3.759216	4.3312707	-0.9240942	0.0	49.75	-17.0625	-4.6875	-2.7317443	0.5093563	1.0647213
1277222914711	-5.012288	5.7886477	7.246025	0.7354727	0.0	47.25	-18.8125	-10.6875	-2.3533235	0.75782084	0.71364266
1277222914751	-4.099725	5.09401	7.43671	0.0959425	0.0	43.4375	-21.0625	-18.75	-2.3503582	0.8495543	0.67766875
1277222914791	-2.3699405	2.070293	9.302697	0.013884544	0.0	37.4375	-21.0625	-27.25	-2.866833	1.2446058	0.85278064
1277222914831	0.27240697	3.5957718	7.7363577	-1.2711353	0.0	29.5	-17.125	-36.6875	-1.5043921	1.1346177	-0.07561315
1277222914871	2.4925237	3.9090397	13.211738	4.1948957	0.0	21.6875	-14.625	-44.25	-1.078704	1.2333142	-0.5676305
1277222914911	3.486809	5.243834	13.865514	5.42188	0.0	14.375	-11.0625	-48.5	-0.7632551	1.1444817	-0.58680284
1277222914951	2.1111538	3.718355	8.539958	-0.25604725	0.0	9.3125	-8.75	-51.375	-0.5488268	1.1065962	-0.5163804
1277222914991	2.0294318	3.255263	9.575105	0.5082884	0.0	5.8125	-9.25	-51.875	-0.58424103	1.1897486	-0.55747026
1277222915031	2.4925237	4.6036777	8.281172	-0.009490967	0.0	3.25	-7.25	-52.375	-0.25806242	1.0070564	-0.49623206
1277222915071	1.7978859	2.982856	7.668256	-1.3845387	0.0	1.0	-5.25	-53.125	-0.19202495	1.1444695	-0.5424316
1277222915111	4.140586	2.070293	8.076866	-0.49717522	0.0	-1.0	-3.75	-52.875	-0.120225094	1.050348	-1.1071488
1277222915151	3.759216	1.334794	9.043911	0.07796955	0.0	-2.25	-2.0	-53.375	-0.059537213	1.1553785	-1.2296097
1277222915191	2.8330324	0.38136974	9.466142	0.0816946	0.0	-1.25	-0.75	-53.125	-0.040935528	1.2775236	-1.4369854
1277222915231	2.9556155	0.95342433	9.575105	0.2594967	0.0	0.75	1.25	-52.625	0.055463716	1.2571614	-1.2587543
1277222915271	1.879608	0.10896278	9.765789	0.13897419	0.0	3.5	2.25	-52.625	0.15001203	1.380341	-1.5128901
1277222915311	1.4982382	-0.10896278	10.419566	0.72064495	0.0	6.8125	3.25	-52.125	0.2620097	1.4276127	-1.6433958
1277222915351	1.4165162	0.3405087	11.985906	2.2674713	0.0	8.8125	4.5	-52.375	0.14489552	1.4498411	-1.3348877
1277222915391	-0.27240697	-0.3405087	10.882658	1.0847406	0.0	11.75	4.5625	-51.875	2.5193152	1.5307472	2.4668517
1277222915431	0.14982383	-0.9125633	8.499097	-1.2573891	0.0	15.6875	5.9375	-50.8125	1.4378816	1.4624135	-2.9788654
1277222915471	-1.1849703	-0.3405087	10.269742	0.5368357	0.0	19.1875	6.9375	-49.5625	-3.0462146	1.4513137	1.8506135
1277222915511	-2.1792557	-0.7627395	10.378705	0.8257742	0.0	22.4375	7.1875	-48.3125	3.09137	1.3518977	1.9074712
1277222915551	-1.7570249	-0.88532263	9.507003	-0.09819794	0.0	24.1875	7.1875	-47.8125	2.8453617	1.3667276	2.03754
1277222915591	-1.6480621	-0.27240697	10.61025	0.9342871	0.0	23.9375	6.1875	-47.8125	-3.012013	1.4146432	1.7346045
1277222915631	-0.9125633	-0.10896278	10.18802	0.42273808	0.0	23.1875	5.9375	-48.3125	-2.9799128	1.4808314	1.6896367
1277222915671	-0.8036005	-0.29964766	9.575105	-0.19321156	0.0	22.4375	5.6875	-48.0625	3.007667	1.4814632	1.9277083
1277222915711	-0.53119355	0.10896278	9.343558	-0.44737053	0.0	21.9375	5.6875	-47.8125	-2.624373	1.5128275	1.3684747
1277222915751	-0.46309182	0.61291564	9.656827	-0.119317055	0.0	21.9375	5.6875	-47.8125	-2.624373	1.5128275	1.3684747
1277222915781	-0.88532263	1.0760075	10.310603	0.597682	0.0	22.1875	4.9375	-47.8125	-1.7555554	1.4364668	0.68848056
1277222915811	-1.0760075	1.0760075	10.460427	0.7638807	0.0	22.125	4.625	-48.5625	-1.8417608	1.4263371	0.7853982
1277222915851	-1.0351465	0.7218784	9.724928	-1.7929077E-4	0.0	22.125	4.375	-48.8125	-2.0876694	1.4417474	0.9618387
1277222915891	-0.9125633	0.27240697	9.507003	-0.25206566	0.0	22.125	3.625	-49.0625	-2.5680194	1.4709554	1.2807094
1277222915931	-0.9942854	0.3405087	10.337844	0.58447933	0.0	22.125	2.875	-49.0625	-2.5567756	1.4694815	1.2408493
1277222915961	-0.7627395	0.19068487	10.528529	0.751194	0.0	22.375	1.625	-48.8125	-2.7632542	1.496259	1.3258177
1277222915991	-1.2666923	0.10896278	10.732834	1.0012226	0.0	22.9375	-0.1875	-48.75	-3.0371745	1.4528893	1.4849861
1277222916021	-1.7297841	0.6537767	11.536434	1.8770514	0.0	23.6875	-1.1875	-48.25	-2.6814663	1.4118555	1.2094395
1277222916061	-1.4573772	1.2258313	11.645397	1.9934301	0.0	24.4375	-2.1875	-47.0	-2.288081	1.4087012	0.87147933
1277222916091	-1.607201	1.0351465	10.038197	0.4119606	0.0	24.9375	-2.9375	-46.5	-2.4548824	1.3826069	0.9986026
1277222916131	-1.9477097	1.1168685	9.534244	-0.0116119385	0.0	24.6875	-3.6875	-46.0	-2.4972363	1.3395207	1.0501454
1277222916171	-1.879608	1.5390993	9.847511	0.33609295	0.0	24.6875	-3.6875	-46.25	-2.221506	1.3289288	0.88467234
1277222916211	-1.9885708	1.334794	9.997335	0.47356415	0.0	24.4375	-3.9375	-46.5	-2.3881059	1.3356625	0.9796392
1277222916251	-1.6480621	1.1168685	9.343558	-0.25334835	0.0	25.125	-4.5625	-46.25	-2.4783921	1.3608636	0.97520375
1277222916281	-1.4165162	0.84446156	9.425281	-0.23818398	0.0	26.125	-4.3125	-46.25	-2.606213	1.3975807	1.0332097
1277222916311	-1.334794	0.61291564	9.697687	0.0016355515	0.0	26.375	-5.0625	-45.25	-2.8166072	1.4204816	1.1403315
1277222916351	-1.1849703	0.5720546	9.888372	0.16888523	0.0	26.875	-5.0625	-45.5	-2.802048	1.4385054	1.1210366
1277222916381	-1.3756552	0.6537767	10.460427	0.7640829	0.0	26.875	-5.3125	-44.75	-2.8140404	1.426206	1.127146
1277222916421	-1.4982382	0.8036005	10.760075	1.0869122	0.0	26.375	-5.5625	-45.0	-2.7540388	1.4140868	1.0784827
1277222916461	-1.4165162	0.88532263	10.038197	0.36958218	0.0	25.875	-5.3125	-46.0	-2.641952	1.4059006	1.012197
1277222916492	-0.9125633	1.0760075	9.534244	-0.16858196	0.0	25.375	-5.0625	-45.75	-2.2640612	1.4238827	0.7033907
1277222916531	-0.50395286	1.2258313	9.724928	0.008177757	0.0	24.3125	-4.5625	-47.0	-1.895878	1.4353446	0.3900481
1277222916571	-0.50395286	1.3075534	10.147159	0.4368105	0.0	23.5625	-4.3125	-47.5	-1.8510692	1.433566	0.36787167
1277222916611	-0.61291564	1.3075534	10.310603	0.60458946	0.0	22.25	-3.875	-48.0	-1.8926474	1.4316435	0.43833652
1277222916651	-0.7627395	1.3075534	11.073342	1.3696814	0.0	21.0	-4.125	-49.0	-2.0013855	1.4349352	0.52807444
1277222916691	-0.9125633	1.1849703	10.95076	1.2457733	0.0	20.5	-4.125	-49.5	-2.1477592	1.435058	0.6562509
1277222916741	-0.95342433	0.84446156	10.460427	0.73102856	0.0	19.5	-3.875	-49.75	-2.4036255	1.4496359	0.84593016
1277222916771	-0.38136974	0.8036005	10.378705	0.61010265	0.0	19.5	-3.875	-49.5	-2.0148714	1.4853002	0.44310257
1277222916811	-0.27240697	0.5720546	9.997335	0.21074295	0.0	19.75	-3.375	-49.75	-2.0431142	1.5075048	0.4444192
1277222916851	-0.23154591	0.53119355	9.847511	0.05789566	0.0	19.5	-3.125	-49.75	-2.0052757	1.5120205	0.41106454
1277222916891	-0.19068487	0.6946377	10.18802	0.40680313	0.0	20.25	-2.875	-49.75	-1.8113718	1.5002095	0.26791045
1277222916931	-0.23154591	0.7218784	10.038197	0.2601328	0.0	20.5	-2.625	-49.75	-1.831287	1.4954169	0.3103874
1277222916961	-0.27240697	0.7218784	10.228881	0.45128918	0.0	20.5	-2.125	-50.0	-1.8577666	1.4955088	0.3608368
1277222916991	-0.42223078	0.92618364	10.61025	0.852314	0.0	20.5	-1.875	-50.0	-1.8635687	1.4751546	0.4277349
1277222917031	-0.8036005	1.1168685	10.691973	0.97349167	0.0	20.5	-1.625	-49.75	-1.9815192	1.4428115	0.6237017
1277222917071	-0.95342433	1.1441092	10.732834	1.0290194	0.0	20.75	-1.625	-49.5	-2.041967	1.432916	0.69473827
1277222917101	-0.84446156	0.84446156	10.18802	0.4511261	0.0	20.75	-1.375	-49.0	-2.193349	1.4541081	0.7853982
1277222917142	-0.7627395	0.6946377	10.147159	0.39281654	0.0	21.25	-1.375	-48.75	-2.2892177	1.4694761	0.8320932
1277222917181	-0.6946377	0.53119355	9.997335	0.22885704	0.0	21.25	-1.375	-48.75	-2.2892177	1.4694761	0.8320932
1277222917221	-0.53119355	0.3405087	9.847511	0.06105423	0.0	21.0	-1.125	-48.75	-2.540085	1.5068113	1.0007558
1277222917261	-0.46309182	0.38136974	9.888372	0.09990311	0.0	21.5	-1.375	-48.75	-2.4254773	1.5102028	0.88187194
1277222917292	-0.8036005	0.50395286	10.501288	0.7373905	0.0	21.5	-1.375	-48.75	-2.4254773	1.5102028	0.88187194
1277222917331	-0.5720546	0.61291564	10.528529	0.755208	0.0	21.75	-1.125	-48.75	-2.2307549	1.4913325	0.7509291
1277222917361	-0.29964766	0.61291564	10.269742	0.48572826	0.0	22.0	-1.375	-49.0	-1.9495782	1.5044614	0.4547193
1277222917391	-0.46309182	0.5720546	10.310603	0.53018856	0.0	21.25	-1.625	-49.25	-2.1920068	1.4995348	0.6805212
1277222917431	-0.5720546	0.61291564	10.269742	0.49725723	0.0	21.0	-1.375	-49.25	-2.2346365	1.4893398	0.7509291
1277222917461	-0.7218784	0.6537767	10.228881	0.46849155	0.0	20.75	-1.625	-49.25	-2.3154829	1.4758688	0.83486265
1277222917491	-0.9125633	0.61291564	10.269742	0.52175903	0.0	20.25	-1.875	-49.25	-2.4804456	1.4641612	0.97935736
1277222917531	-1.4573772	0.50395286	10.501288	0.8072548	0.0	20.5	-1.625	-48.75	-2.7529678	1.4249945	1.2378731
1277222917561	-1.7570249	0.5720546	10.310603	0.6682205	0.0	20.75	-1.625	-48.75	-2.7345574	1.3934647	1.2560387
1277222917591	-1.9477097	0.50395286	9.888372	0.28430843	0.0	20.75	-1.375	-48.5	-2.7841675	1.37008	1.3176076
1277222917631	-1.879608	0.38136974	9.425281	-0.18821526	0.0	21.5	-0.875	-48.75	-2.8428369	1.3700514	1.3706152
1277222917671	-1.0351465	0.53119355	9.112013	-0.62065697	0.0	21.5625	-0.25	-48.6875	-2.5035412	1.4437969	1.0966779
1277222917711	-0.9942854	0.38136974	9.084772	-0.65967655	0.0	21.5625	-0.0	-48.6875	-2.6472511	1.4541091	1.2045407
1277222917751	-1.0351465	0.42223078	9.656827	-0.08532715	0.0	22.0625	0.25	-48.1875	-2.6128116	1.4555416	1.1835028
1277222917781	-1.2666923	0.46309182	10.337844	0.61879826	0.0	22.8125	0.25	-47.4375	-2.6487794	1.4410673	1.2202997
1277222917811	-1.6889231	0.5720546	10.691973	1.032999	0.0	24.0	-0.1875	-46.9375	-2.6702812	1.4055403	1.2442149
1277222917851	-2.1111538	0.38136974	11.563675	1.9543447	0.0	25.0625	-0.9375	-46.1875	-2.9241292	1.3873593	1.3920785
1277222917891	-2.5333846	0.88532263	10.419566	0.95295906	0.0	26.3125	-1.9375	-45.9375	-2.6633139	1.3187189	1.2346005
1277222917931	-2.1111538	0.95342433	10.147159	0.6015587	0.0	26.8125	-3.1875	-45.4375	-2.6445882	1.3463558	1.1466019
1277222917971	-2.7921712	0.53119355	10.378705	0.95420074	0.0	28.0	-4.0625	-45.0	-3.0609906	1.3034956	1.382799
1277222918001	-1.8387469	1.334794	9.112013	-0.41561985	0.0	29.0	-5.0625	-44.25	-2.4281769	1.3264225	0.9428815
1277222918031	-2.1383946	1.1168685	9.343558	-0.15666485	0.0	30.0	-5.8125	-43.5	-2.6780522	1.3181162	1.0894738
1277222918071	-3.0237172	1.2258313	9.915613	0.6319761	0.0	30.75	-6.0625	-42.75	-2.783761	1.252904	1.1856389
1277222918101	-2.4108016	1.4165162	9.534244	0.12915802	0.0	31.25	-6.3125	-42.25	-2.5939178	1.2855204	1.0395662
1277222918141	-2.9147544	1.3756552	9.888372	0.59374046	0.0	31.5	-6.3125	-41.75	-2.707961	1.2557089	1.1298292
1277222918181	-2.5606253	1.4165162	9.507003	0.14053154	0.0	31.25	-6.5625	-41.25	-2.6380794	1.2721933	1.0655062
1277222918221	-2.6014864	1.5390993	9.466142	0.1303711	0.0	30.75	-7.0625	-41.5	-2.6025014	1.2617155	1.0365591
1277222918261	-2.7240696	1.9477097	10.038197	0.7753868	0.0	30.25	-7.5625	-41.5	-2.469542	1.2488053	0.950074
1277222918294	-2.9556155	2.1111538	10.079058	0.9068947	0.0	30.25	-7.5625	-41.75	-2.4256883	1.2249151	0.95054686
1277222918331	-3.2961242	1.920469	8.921328	-0.103933334	0.0	30.625	-7.5625	-42.3125	-2.470824	1.1667227	1.0432359
1277222918371	-3.214402	1.920469	8.730643	-0.30692863	0.0	31.375	-6.8125	-42.0625	-2.4089277	1.1656431	1.0322483
1277222918401	-2.4516625	1.6889231	9.084772	-0.24651432	0.0	32.125	-6.3125	-42.3125	-2.4384267	1.2541226	0.9675665
1277222918441	-2.4108016	1.4982382	9.656827	0.25868607	0.0	32.375	-6.3125	-41.8125	-2.558695	1.2849177	1.0147403
1277222918473	-2.3018389	1.3756552	9.343558	-0.08590126	0.0	32.625	-6.0625	-41.3125	-2.5844223	1.2913102	1.032119
1277222918511	-2.4108016	1.607201	9.724928	0.3407278	0.0	32.875	-6.5625	-41.5625	-2.5200298	1.2812326	0.98279375
1277222918541	-2.3426998	2.0294318	9.997335	0.66013336	0.0	32.875	-6.5625	-41.0625	-2.3286881	1.2701619	0.85692704
1277222918571	-2.2609777	2.152015	9.997335	0.66664505	0.0	32.625	-6.8125	-42.0625	-2.2612562	1.2681628	0.81008446
1277222918601	-2.1111538	2.0294318	9.956474	0.5715456	0.0	32.875	-7.0625	-42.5625	-2.2877991	1.2847419	0.80513245
1277222918641	-2.1111538	2.0294318	10.501288	1.0953045	0.0	33.125	-7.0625	-42.3125	-2.3120084	1.2988435	0.80513245
1277222918681	-2.8330324	1.7570249	10.651112	1.3539677	0.0	33.375	-7.0	-42.125	-2.5676622	1.2674686	1.0156617
1277222918721	-3.568531	1.7297841	10.56939	1.4822197	0.0	33.875	-7.0	-41.125	-2.6778948	1.2118472	1.1194369
1277222918761	-4.0180025	1.7570249	10.18802	1.2851143	0.0	34.125	-6.75	-40.875	-2.6797104	1.1643236	1.1585637
1277222918801	-3.9499009	1.9477097	9.724928	0.86900043	0.0	34.125	-6.0	-40.375	-2.5229747	1.1455685	1.1126812
1277222918841	-3.5957718	1.9477097	9.152874	0.2182312	0.0	34.375	-5.75	-40.125	-2.4522293	1.1506166	1.0743736
1277222918881	-3.445948	2.070293	8.962189	0.015849113	0.0	35.375	-4.75	-39.6875	-2.3385813	1.1491448	1.0297958
1277222918921	-3.486809	2.152015	8.349273	-0.5061474	0.0	36.125	-3.75	-38.9375	-2.2293105	1.1145731	1.0178347
1277222918961	-3.0645783	1.879608	8.19945	-0.8536873	0.0	37.125	-2.75	-38.6875	-2.2840376	1.1575859	1.0206306
1277222918991	-2.3699405	1.56634	8.349273	-0.98733044	0.0	37.375	-2.25	-38.4375	-2.344892	1.2428398	0.9867831
1277222919031	-2.4925237	1.5390993	9.00305	-0.3389988	0.0	37.125	-1.75	-37.9375	-2.3873146	1.2562196	1.0176184
1277222919071	-3.3642259	1.7978859	10.119919	1.0083008	0.0	36.375	-1.75	-38.1875	-2.408424	1.2103348	1.0799989
1277222919101	-4.140586	1.920469	10.147159	1.3197813	0.0	35.875	-1.75	-37.9375	-2.4014695	1.1481016	1.1365128
1277222919141	-4.0588636	1.7570249	9.765789	0.913991	0.0	35.875	-2.0	-38.1875	-2.4488337	1.1455407	1.1622653
1277222919181	-4.2086873	1.1168685	9.112013	0.2923212	0.0	35.875	-2.5	-38.6875	-2.7213354	1.1250088	1.3114029
1277222919221	-4.671779	0.313268	8.853226	0.20850182	0.0	36.375	-2.5	-38.4375	3.1373346	1.0843146	1.5038412
1277222919261	-4.8216033	0.040861044	9.343558	0.70770264	0.0	36.125	-3.25	-38.1875	2.94281	1.0943885	1.5623219
1277222919291	-5.5571017	-0.040861044	9.697687	1.3704777	0.0	36.125	-3.0	-37.6875	2.8877175	1.0504292	1.5781491
1277222919321	-5.7886477	0.08172209	9.534244	1.3475828	0.0	36.125	-2.75	-36.875	2.953542	1.0250971	1.5566796
1277222919361	-5.134871	0.38136974	9.275456	0.80214024	0.0	35.875	-3.0	-36.375	3.1173837	1.0640289	1.4966619
1277222919391	-4.862464	0.7218784	9.234595	0.65482235	0.0	36.125	-3.0	-36.375	-2.985357	1.0816287	1.4234134
1277222919431	-4.7535014	0.84446156	9.112013	0.5053654	0.0	36.375	-2.75	-36.375	-2.9032283	1.0835611	1.3949802
1277222919461	-4.140586	0.88532263	9.00305	0.14237785	0.0	36.125	-2.0	-37.375	-2.8134136	1.1311859	1.3601524
1277222919491	-3.9771416	0.9942854	9.043911	0.123031616	0.0	35.875	-1.0	-37.6875	-2.7001626	1.1452073	1.3258177
1277222919521	-4.099725	1.1168685	9.152874	0.28444672	0.0	35.625	-0.5	-37.375	-2.6228735	1.1361635	1.3048254
1277222919561	-4.3312707	1.1849703	8.812365	0.083841324	0.0	35.125	-0.25	-37.375	-2.5444307	1.0995289	1.3037462
1277222919591	-4.2904096	1.1849703	8.539958	-0.17635155	0.0	35.375	-0.0	-37.6875	-2.5079765	1.0903316	1.3013237
1277222919631	-4.2086873	1.1441092	8.471856	-0.27804184	0.0	35.625	0.5	-38.1875	-2.4931262	1.0953684	1.3053659
1277222919671	-4.440233	1.1849703	8.539958	-0.10867596	0.0	35.625	1.75	-38.6875	-2.387501	1.07711	1.310003
1277222919711	-4.5900574	1.2666923	8.430995	-0.12394333	0.0	35.875	3.0	-39.1875	-2.2551446	1.056679	1.3015338
1277222919751	-5.284695	1.334794	8.499097	0.2900982	0.0	35.875	3.5	-38.6875	-2.1329591	1.0005459	1.3233935
1277222919781	-5.134871	1.1441092	8.008764	-0.22457314	0.0	35.125	4.5	-38.6875	-2.0723329	0.9896004	1.3515657
1277222919811	-4.7943625	0.88532263	7.6273947	-0.7542	0.0	35.375	4.5	-38.9375	-2.18505	1.0020521	1.3881942
1277222919851	-5.012288	0.92618364	8.471856	0.08037186	0.0	35.125	4.75	-38.6875	-2.2493448	1.0291601	1.3880748
1277222919891	-4.630918	1.3075534	9.847511	1.1536684	0.0	34.8125	5.0	-38.6875	-2.2656307	1.1162708	1.2956071
1277222919931	-3.5276701	1.1168685	9.384419	0.28092575	0.0	35.375	4.75	-38.4375	-2.3797956	1.1952157	1.2641785
1277222919961	-3.9090397	1.1168685	8.962189	0.034528732	0.0	35.125	5.0	-38.4375	-2.3266504	1.144933	1.2924967
1277222920001	-3.718355	1.6889231	9.084772	0.15385723	0.0	34.8125	5.25	-38.1875	-2.1021807	1.148327	1.1444448
1277222920041	-3.9771416	1.6480621	8.158588	-0.58188343	0.0	34.8125	5.75	-37.9375	-2.0115435	1.0852544	1.1779522
1277222920071	-3.568531	2.0294318	8.471856	-0.39254665	0.0	34.8125	5.75	-37.9375	-2.0115435	1.0852544	1.1779522
1277222920101	-3.8681788	2.4516625	9.507003	0.7459116	0.0	35.375	6.0	-37.125	-1.88922	1.1218823	1.0058919
1277222920141	-4.4810944	2.4108016	9.507003	0.9764509	0.0	35.875	5.5	-37.125	-1.9234428	1.0793633	1.0772176
1277222920181	-4.2495484	2.1111538	9.234595	0.57570934	0.0	36.625	5.25	-36.625	-2.0290773	1.0961415	1.1097162
1277222920221	-3.9771416	1.4982382	8.812365	-0.022983551	0.0	37.8125	5.625	-35.9375	-2.2322733	1.121429	1.2105253
1277222920261	-3.568531	1.3075534	7.6954966	-1.2238312	0.0	37.8125	5.375	-35.9375	-2.239338	1.1120683	1.2195759
1277222920294	-4.1814466	1.3075534	6.6331096	-1.8572898	0.0	38.3125	6.125	-35.4375	-2.0714886	0.9870806	1.267726
1277222920331	-4.2904096	1.2666923	7.205164	-1.3256998	0.0	39.3125	6.375	-35.6875	-2.1658678	1.0151703	1.2837139
1277222920371	-4.1814466	1.8387469	8.730643	0.04675579	0.0	39.5625	5.875	-35.4375	-2.137812	1.0887612	1.1565078
1277222920401	-5.366417	1.8387469	10.269742	1.9256563	0.0	40.0625	5.625	-35.1875	-2.242855	1.0661358	1.2406937
1277222920441	-5.366417	1.7978859	12.067628	3.5222082	0.0	40.5625	4.125	-35.1875	-2.4096143	1.1322643	1.2475237
1277222920471	-5.8158884	1.7297841	11.304889	3.023674	0.0	39.8125	2.875	-34.9375	-2.4306262	1.078198	1.2817047
1277222920511	-5.8567495	1.6889231	9.997335	1.9023504	0.0	40.375	2.6875	-34.75	-2.3784833	1.0232728	1.2900412
1277222920541	-5.8158884	1.56634	7.6273947	-0.087846756	0.0	40.375	1.9375	-34.0	-2.206594	0.90238625	1.3077176
1277222920571	-6.3607025	1.9885708	6.8237944	-0.2684574	0.0	40.625	2.4375	-33.0	-1.8512894	0.79722214	1.2677896
1277222920601	-6.1700177	2.6423476	7.205164	0.04045677	0.0	41.625	2.6875	-32.25	-1.8418988	0.820818	1.166171
1277222920641	-6.5513873	2.7921712	6.891896	0.1037035	0.0	42.375	2.9375	-32.25	-1.7316102	0.7690095	1.1679136
1277222920681	-6.891896	2.2609777	7.246025	0.44591713	0.0	42.625	4.4375	-32.5	-1.8306869	0.78489697	1.2537963
1277222920721	-6.5922484	1.7297841	8.689782	1.2369995	0.0	42.125	5.3125	-33.6875	-2.1436472	0.90570074	1.3141847
1277222920761	-4.7126403	1.5390993	9.112013	0.5667095	0.0	40.875	6.3125	-34.6875	-2.273572	1.0725148	1.2551273
1277222920801	-3.7864566	1.3756552	8.158588	-0.7076254	0.0	38.625	7.3125	-36.6875	-2.1823642	1.1121311	1.2223141
1277222920831	-3.9499009	1.607201	10.18802	1.2378311	0.0	35.875	7.8125	-39.0	-2.1260965	1.1743873	1.1843588
1277222920871	-3.3642259	2.070293	9.724928	0.6899376	0.0	33.3125	8.5625	-41.25	-1.8315282	1.1849618	1.0191413
1277222920911	-1.334794	0.7218784	10.038197	0.34559917	0.0	29.8125	9.3125	-43.5	-2.162835	1.4207609	1.0750313
1277222920951	-0.50395286	0.53119355	9.234595	-0.54307175	0.0	25.3125	10.3125	-45.25	-1.8145639	1.4916719	0.75908846
1277222920981	0.27240697	1.1168685	8.430995	-1.2976389	0.0	20.25	11.5625	-47.0	-0.6508747	1.4352776	-0.2392316
1277222921011	1.0351465	0.8036005	6.0882955	-3.5789185	0.0	15.25	12.875	-48.25	0.027600244	1.3587888	-0.9106648
1277222921051	2.3018389	1.3075534	7.0553403	-2.2710023	0.0	9.6875	13.875	-49.5	0.22577833	1.2118342	-1.0542029
1277222921081	5.6660647	1.5390993	5.175732	-1.9796891	0.0	2.375	13.625	-49.75	0.29516712	0.72251016	-1.3055615
1277222921121	4.9850473	-0.19068487	10.528529	1.8439713	0.0	-5.6875	11.8125	-49.0	0.64385116	1.1283063	-1.609029
1277222921161	5.938472	1.334794	6.973618	-0.55038357	0.0	-13.1875	10.3125	-48.25	0.49952477	0.8532087	-1.3497002
1277222921201	8.281172	0.50395286	8.62168	2.158514	0.0	-19.75	8.8125	-46.75	0.49320325	0.8046171	-1.5100161
1277222921241	7.246025	-0.29964766	8.580819	1.4283457	0.0	-24.0	7.5625	-44.25	0.5804178	0.86911523	-1.6121261
1277222921271	9.152874	0.61291564	8.349273	2.5974264	0.0	-26.8125	7.0625	-41.75	0.5904839	0.73840225	-1.5039319
1277222921301	10.61025	1.3756552	7.273266	3.130515	0.0	-30.3125	6.3125	-39.25	0.56520146	0.59704286	-1.4418622
1277222921341	10.460427	1.4982382	6.2108784	2.4506035	0.0	-34.3125	5.3125	-36.1875	0.6137877	0.5313648	-1.4285347
1277222921381	9.00305	0.95342433	3.2961242	-0.17190266	0.0	-37.875	4.3125	-33.1875	0.42160964	0.34915936	-1.4652895
1277222921411	9.425281	1.1849703	1.4982382	-0.18974876	0.0	-41.375	3.8125	-28.9375	0.38200727	0.15642938	-1.44573
1277222921451	9.997335	1.1168685	0.9942854	0.3018961	0.0	-44.625	2.8125	-23.1875	0.39205262	0.098520175	-1.4595411
1277222921481	8.853226	0.7218784	0.08172209	-0.92366695	0.0	-47.4375	2.3125	-16.6875	0.36226976	0.009199977	-1.4894378
1277222921511	9.575105	1.3756552	-1.3756552	-0.03590393	0.0	-49.6875	2.0625	-10.125	0.49410614	-0.14126262	-1.4281027
1277222921551	10.18802	1.920469	-1.920469	0.7371702	0.0	-50.9375	1.3125	-5.875	0.6255147	-0.18316412	-1.3844799
1277222921581	8.349273	1.7978859	-1.920469	-1.0527391	0.0	-51.6875	0.8125	-3.375	0.6832931	-0.22118317	-1.3587005
1277222921621	6.891896	2.152015	-4.7535014	-1.1622782	0.0	-52.1875	0.0625	-2.625	0.4857641	-0.58223915	-1.2681365
1277222921661	8.158588	2.9556155	-5.134871	0.27626228	0.0	-51.9375	-1.6875	-4.375	0.5079863	-0.5343301	-1.2232323
1277222921701	9.302697	3.7864566	-2.9556155	0.6629772	0.0	-51.1875	-3.1875	-7.125	0.67171526	-0.2861947	-1.1842462
1277222921741	9.656827	3.9090397	-0.95342433	0.6548948	0.0	-50.1875	-5.1875	-9.875	0.77732885	-0.09126273	-1.1861628
1277222921771	8.117727	3.990762	-0.0	-0.76100636	0.0	-48.9375	-8.1875	-13.4375	0.8144779	-0.0	-1.1138827
1277222921811	7.8861814	4.2495484	1.6480621	-0.6980486	0.0	-47.6875	-9.9375	-15.9375	1.0906173	0.18193677	-1.0765461
1277222921851	9.80665	5.366417	11.413852	6.169734	0.0	-45.1875	-13.0	-19.4375	2.6492062	0.79579514	-1.0700883
1277222921891	8.158588	4.630918	-0.8036005	-0.3910389	0.0	-43.375	-15.75	-21.6875	0.2938562	-0.08545163	-1.0545316
1277222921931	9.765789	3.7864566	3.255263	1.1616964	0.0	-41.125	-17.5	-23.1875	-0.16172114	0.3013263	-1.200915
1277222921961	8.771504	3.5957718	1.7297841	-0.17020798	0.0	-39.875	-19.75	-24.1875	-0.19642113	0.18048269	-1.1817523
1277222922001	7.3141265	4.2086873	1.3075534	-1.2673769	0.0	-39.875	-20.75	-22.9375	0.11990003	0.15372708	-1.0486473
1277222922041	8.812365	5.053149	0.6946377	0.37542248	0.0	-39.375	-21.25	-22.1875	0.06030374	0.06827468	-1.0501534
1277222922071	9.193735	3.8681788	1.56634	0.2899332	0.0	-39.625	-22.0	-21.4375	-0.33323526	0.15576476	-1.1725389
1277222922101	9.697687	4.2904096	0.84446156	0.83129406	0.0	-39.375	-21.75	-21.1875	-0.22173946	0.079465635	-1.1542673
1277222922141	8.853226	4.099725	0.7218784	-0.023580551	0.0	-39.875	-21.5	-20.4375	-0.16017844	0.07385566	-1.137121
1277222922181	7.9679036	4.140586	0.38136974	-0.819026	0.0	-40.625	-21.25	-20.1875	-0.006762482	0.042445507	-1.0915462
1277222922221	10.419566	3.9090397	0.040861044	1.3221245	0.0	-41.375	-20.25	-19.1875	-0.2286631	0.0036716652	-1.2118825
1277222922261	8.853226	4.2086873	-0.040861044	-0.0038785934	0.0	-42.625	-20.25	-17.6875	6.701058E-4	-0.0041683274	-1.1270342
1277222922295	8.580819	3.9499009	0.14982383	-0.35918427	0.0	-43.375	-20.0	-16.4375	-0.0019542973	0.015859291	-1.1393956
1277222922331	9.112013	3.9090397	-0.5720546	0.124946594	0.0	-44.375	-19.5	-14.6875	-0.024382314	-0.057631355	-1.1655438
1277222922371	7.9679036	3.214402	-1.3756552	-1.1053686	0.0	-45.6875	-19.5	-13.6875	-0.0463548	-0.15876412	-1.1873462
1277222922401	9.302697	2.5606253	-0.6946377	-0.13300037	0.0	-46.4375	-18.5	-11.875	-0.3435143	-0.07186906	-1.3021919
1277222922441	9.302697	2.4925237	-1.3075534	-0.087465286	0.0	-47.4375	-18.0	-10.125	-0.29485214	-0.13494241	-1.3090096
1277222922471	9.112013	2.070293	-1.3756552	-0.36168766	0.0	-47.9375	-17.25	-9.125	-0.3616026	-0.14616956	-1.3473843
1277222922501	9.084772	2.5333846	-1.4573772	-0.26332474	0.0	-47.9375	-16.0	-8.375	-0.15730333	-0.15331155	-1.2988446
1277222922531	8.812365	3.173541	-1.56634	-0.3102007	0.0	-48.4375	-15.25	-8.375	0.123472124	-0.16569671	-1.2251313
1277222922571	8.539958	2.9556155	-1.920469	-0.56788635	0.0	-48.9375	-14.25	-7.625	0.13982813	-0.20939769	-1.2376068
1277222922601	8.662541	3.0645783	-1.7297841	-0.45660114	0.0	-49.1875	-13.75	-6.375	0.21593675	-0.1860746	-1.2307637
1277222922641	10.310603	2.5606253	-2.7921712	1.1779556	0.0	-49.1875	-14.75	-4.875	-0.1376716	-0.25700954	-1.3273724
1277222922681	7.5865335	3.6774938	-3.1463003	-0.8078356	0.0	-48.9375	-15.25	-3.375	0.3500034	-0.35718146	-1.1194314
1277222922731	9.997335	1.6480621	-2.4925237	0.6276922	0.0	-48.4375	-16.0	-3.125	-0.48319516	-0.24120913	-1.4074156
1277222922771	8.62168	3.486809	-3.445948	0.11130142	0.0	-48.1875	-16.5	-1.875	0.14162654	-0.35484552	-1.1864825
1277222922801	9.997335	2.6832085	-3.0645783	0.9886246	0.0	-48.4375	-15.75	-0.875	-0.17210348	-0.28783968	-1.3085835
1277222922841	10.310603	2.0294318	-2.6832085	1.0389357	0.0	-48.4375	-15.0	0.375	-0.41687173	-0.24999692	-1.3764511
1277222922881	8.19945	2.4516625	-2.9147544	-0.7657757	0.0	-49.1875	-14.0	1.625	0.04529817	-0.32826105	-1.2802541
1277222922921	8.390134	2.152015	-2.9556155	-0.6545372	0.0	-49.9375	-12.75	0.875	0.003591649	-0.328838	-1.3197155
1277222922961	8.539958	2.7649305	-2.0294318	-0.60369873	0.0	-50.4375	-11.6875	0.875	0.39741394	-0.22234723	-1.2576828
1277222923001	8.049625	2.4108016	-2.1111538	-1.142621	0.0	-50.9375	-10.9375	0.125	0.31877065	-0.2461469	-1.2798053
1277222923041	9.765789	1.7297841	-2.2609777	0.36560726	0.0	-50.6875	-10.4375	-0.625	-0.1181343	-0.2241411	-1.3954877
1277222923071	9.956474	2.2609777	-3.3642259	0.9432993	0.0	-50.6875	-10.4375	-0.125	0.06405858	-0.31830034	-1.3474971
1277222923101	9.112013	2.0294318	-3.568531	0.18743706	0.0	-50.4375	-10.4375	-0.125	0.041958567	-0.36512303	-1.3516526
1277222923141	7.3958488	2.4108016	-2.4925237	-1.6382217	0.0	-50.4375	-10.9375	0.125	0.32462975	-0.31008664	-1.2556902
1277222923181	8.771504	3.3778462	-3.759216	0.31663227	0.0	-50.1875	-12.1875	1.875	0.36804688	-0.38045564	-1.2032064
1277222923221	8.240311	2.8330324	-3.445948	-0.436306	0.0	-49.1875	-13.5	2.625	0.19560118	-0.37658873	-1.2396541
1277222923261	6.4015636	5.175732	-3.486809	-0.86651325	0.0	-48.1875	-15.75	3.625	0.87285584	-0.4006505	-0.8908875
1277222923291	7.8589406	5.9793324	-1.920469	0.25334835	0.0	-46.4375	-18.5	3.375	1.1571106	-0.19208047	-0.92039883
1277222923331	8.662541	7.164303	-3.173541	1.8740273	0.0	-44.625	-21.5	1.875	0.8118133	-0.27515024	-0.8797813
1277222923371	4.0180025	7.7363577	-2.8330324	-0.6403179	0.0	-42.875	-25.25	1.125	1.1454797	-0.3142143	-0.47902024
1277222923411	5.6252036	6.0201936	-1.1168685	-1.4920216	0.0	-41.25	-29.6875	-0.25	0.95773894	-0.13473299	-0.7514931
1277222923451	4.2086873	9.275456	-3.3642259	0.9201927	0.0	-39.75	-32.9375	-0.75	0.97633874	-0.31901017	-0.4259635
1277222923491	2.070293	6.3198414	-1.56634	-2.9743786	0.0	-38.5	-36.0625	-2.1875	1.1054622	-0.23131336	-0.31656927
1277222923521	3.9499009	9.847511	-1.3075534	0.88376045	0.0	-37.0	-37.875	-2.9375	1.1565429	-0.1226179	-0.3814599
1277222923561	6.469665	12.367276	-1.1168685	4.19526	0.0	-35.5	-39.125	-4.1875	1.0161498	-0.079850264	-0.48197812
1277222923601	5.6252036	11.645397	-2.0294318	3.2844458	0.0	-34.4375	-39.625	-4.1875	0.8545289	-0.15565157	-0.4499885
1277222923641	3.568531	6.851035	-0.27240697	-2.0771413	0.0	-34.6875	-39.875	-2.9375	1.2036749	-0.035249766	-0.4802076
1277222923681	4.671779	7.6954966	-0.95342433	-0.7537384	0.0	-34.6875	-40.125	-2.1875	0.8546571	-0.10551254	-0.5456089
1277222923721	3.5276701	9.043911	-1.0760075	-0.03963566	0.0	-35.5625	-41.375	-2.3125	1.1559875	-0.110391565	-0.37190837
1277222923761	3.8681788	8.853226	-0.95342433	-0.098332405	0.0	-34.75	-41.625	-2.3125	1.116426	-0.0983655	-0.41192612
1277222923791	3.1054392	9.234595	-1.1168685	-7.6293945E-5	0.0	-33.75	-42.375	-3.0625	1.1245825	-0.11413743	-0.32440308
1277222923821	3.0237172	2.152015	0.27240697	-6.085328	0.0	-33.5	-42.625	-4.3125	-1.5385411	0.0732672	-0.9522533
1277222923861	3.173541	6.6331096	0.27240697	-2.448409	0.0	-33.0	-42.25	-5.125	1.3015057	0.037029125	-0.44625083
1277222923901	2.0294318	10.56939	-0.14982383	0.9568558	0.0	-32.25	-43.25	-6.875	1.2601258	-0.013920062	-0.18970148
1277222923941	2.9147544	6.742072	0.7218784	-2.426106	0.0	-30.5	-43.5	-8.625	1.2560552	0.09796491	-0.4080571
1277222923971	2.982856	7.5865335	0.3405087	-1.6476755	0.0	-29.0	-44.25	-9.375	0.9823382	0.041746378	-0.37461132
1277222924021	1.3756552	9.275456	2.2609777	-0.1610012	0.0	-28.75	-45.0	-10.375	1.6319356	0.23660535	-0.14723802
1277222924061	2.1111538	9.00305	1.6480621	-0.41367435	0.0	-28.75	-44.75	-10.125	1.504956	0.17636982	-0.23033161
1277222924091	1.4982382	8.580819	1.9477097	-0.8809147	0.0	-28.75	-44.75	-11.625	1.5394706	0.21998276	-0.1728606
1277222924131	0.9942854	9.193735	0.23154591	-0.5564079	0.0	-27.0	-44.5	-14.1875	1.0381569	0.02503395	-0.10772944
1277222924171	0.7218784	8.812365	2.9147544	-0.496727	0.0	-23.6875	-45.5	-16.4375	1.5301999	0.31843477	-0.08173405
1277222924221	1.3756552	9.112013	1.7570249	-0.42537403	0.0	-20.1875	-46.5	-17.9375	0.99542683	0.18840322	-0.14984004
1277222924261	1.4165162	10.18802	0.040861044	0.47945404	0.0	-17.4375	-47.75	-17.1875	0.5618458	0.003972461	-0.13815175
1277222924291	-0.42223078	14.818938	0.92618364	5.047206	0.0	-16.4375	-49.5	-15.4375	0.96524364	0.062393557	0.02848494
1277222924321	0.42223078	12.14935	0.7218784	2.3714485	0.0	-16.4375	-50.0	-13.4375	0.9539611	0.059311543	-0.034739383
1277222924361	0.10896278	9.112013	-0.29964766	-0.6890602	0.0	-17.4375	-50.75	-11.875	0.89317554	-0.032870706	-0.0119575765
1277222924401	1.1168685	10.419566	-0.38136974	0.67954063	0.0	-18.4375	-50.75	-10.875	0.79120106	-0.036376778	-0.10678182
1277222924431	2.1111538	10.18802	-0.23154591	0.6003828	0.0	-19.6875	-50.25	-10.375	0.6660779	-0.02225082	-0.2043274
1277222924461	1.7570249	10.269742	-0.61291564	0.63032246	0.0	-21.1875	-49.75	-10.125	0.7580517	-0.058759227	-0.16944696
1277222924501	2.152015	10.56939	-0.7218784	1.0037289	0.0	-22.4375	-49.0	-9.625	0.74992424	-0.06682615	-0.2008626
1277222924541	1.4165162	9.425281	-0.38136974	-0.2678938	0.0	-23.6875	-48.75	-9.125	0.96588314	-0.039991733	-0.14917259
1277222924571	0.92618364	8.390134	0.50395286	-1.3505201	0.0	-23.9375	-48.5	-7.625	1.3276474	0.059631493	-0.10994447
1277222924601	2.070293	7.7363577	0.7218784	-1.7656021	0.0	-24.1875	-48.75	-6.375	1.4268396	0.089895196	-0.2614788
1277222924641	1.7978859	8.771504	0.23154591	-0.8497925	0.0	-24.1875	-49.25	-5.125	1.3055366	0.025854122	-0.20216878
1277222924681	0.38136974	8.812365	0.5720546	-0.9675064	0.0	-23.9375	-49.5	-3.625	1.5547308	0.06476359	-0.043249674
1277222924721	1.607201	9.275456	-0.84446156	-0.3551798	0.0	-24.1875	-49.75	-2.375	1.1365144	-0.089466415	-0.17157105
1277222924761	3.486809	9.656827	0.46309182	0.47082996	0.0	-23.9375	-50.0	-1.125	1.8120198	0.04507415	-0.34650418
1277222924791	1.6480621	9.275456	-0.88532263	-0.344409	0.0	-22.6875	-50.25	0.875	1.2749306	-0.09370079	-0.17584473
1277222924821	0.6537767	10.038197	-0.7218784	0.27868176	0.0	-21.9375	-50.75	2.125	1.4845603	-0.071638316	-0.06503704
1277222924861	0.50395286	10.419566	0.95342433	0.6685753	0.0	-21.4375	-50.75	3.125	1.9619733	0.091143206	-0.04832835
1277222924901	0.27240697	10.228881	0.38136974	0.43296146	0.0	-21.1875	-50.5	4.875	1.8998315	0.037253167	-0.026624868
1277222924941	1.8387469	10.18802	2.070293	0.75094604	0.0	-21.6875	-50.0	5.875	2.4848344	0.19737412	-0.17855908
1277222924971	4.3312707	11.114203	1.7570249	2.2504044	0.0	-21.9375	-50.0	6.625	2.985346	0.14624666	-0.37160078
1277222925011	4.399372	11.264028	1.6889231	2.4033966	0.0	-21.6875	-50.5	7.125	3.017411	0.13876735	-0.37234926
1277222925051	2.6832085	11.75436	-0.5720546	2.2636366	0.0	-21.4375	-50.75	5.875	1.9014715	-0.047411382	-0.22442797
1277222925081	-3.5957718	11.141444	0.6537767	1.918911	0.0	-21.9375	-51.0	2.875	1.7121787	0.05578547	0.312185
1277222925111	-4.2904096	13.593107	-0.38136974	4.4525795	0.0	-22.9375	-50.75	-0.375	1.5308545	-0.026748654	0.305735
1277222925151	0.7218784	11.413852	-0.0	1.6300068	0.0	-23.9375	-49.75	-4.125	1.3745555	-0.0	-0.06316169
1277222925191	4.3312707	10.528529	1.9477097	1.7433891	0.0	-25.25	-49.25	-7.625	1.9398712	0.16944194	-0.39028168
1277222925231	0.53119355	8.390134	1.607201	-1.247468	0.0	-26.25	-48.25	-10.375	1.5346564	0.18889642	-0.0632273
1277222925271	0.46309182	6.510526	1.0351465	-3.1981	0.0	-26.5	-46.75	-13.1875	1.3402494	0.15728514	-0.07101011
1277222925302	0.7627395	6.2789803	1.334794	-3.342206	0.0	-26.75	-46.0	-16.1875	1.3039087	0.20797853	-0.12088279
1277222925341	0.14982383	5.7886477	1.6889231	-3.7747889	0.0	-27.0	-44.75	-18.9375	1.362558	0.28379446	-0.025876578
1277222925381	-0.6946377	4.8216033	1.5390993	-4.697912	0.0	-26.5	-44.25	-20.9375	1.3323792	0.30602217	0.14308327
1277222925411	-0.040861044	5.012288	2.6832085	-4.121203	0.0	-26.5	-44.25	-21.6875	1.6325393	0.49149364	0.008151993
1277222925451	1.920469	7.8861814	4.7126403	-0.4210739	0.0	-26.0	-45.0	-21.4375	1.9894825	0.52604294	-0.23887374
1277222925481	4.7535014	13.633968	11.182305	8.456011	0.0	-25.25	-46.0	-20.9375	2.6198807	0.6589718	-0.33547285
1277222925521	3.8273177	13.293459	10.038197	7.2851543	0.0	-24.9375	-46.5	-20.6875	2.455397	0.6277318	-0.28032833
1277222925551	-0.27240697	4.7126403	5.325556	-2.6901393	0.0	-24.6875	-46.75	-21.1875	2.1976688	0.8455529	0.05773922
1277222925581	-0.10896278	8.390134	4.1814466	-0.4316454	0.0	-24.4375	-46.0	-21.6875	1.6092421	0.46231437	0.012986284
1277222925611	-0.5720546	15.785983	-0.38136974	5.994298	0.0	-24.4375	-45.25	-21.6875	0.8530844	-0.02413822	0.036222287
1277222925651	-3.636633	9.956474	3.1054392	1.2387209	0.0	-24.6875	-45.0	-21.4375	1.2916926	0.28499535	0.35019815
1277222925691	-1.2258313	5.284695	-1.525479	-4.1712484	0.0	-24.4375	-45.0	-20.6875	0.84271145	-0.27411562	0.22792792
1277222925741	7.9679036	12.598822	-4.2904096	5.705455	0.0	-23.9375	-45.25	-19.1875	-0.12090544	-0.28023827	-0.56392616
1277222925781	-1.525479	9.425281	3.6774938	0.4250145	0.0	-23.9375	-46.0	-16.9375	1.5430689	0.36764932	0.16045828
1277222925821	-0.7218784	8.539958	0.38136974	-1.2277555	0.0	-23.6875	-46.5	-14.1875	1.1534437	0.04446907	0.08432903
1277222925861	1.9477097	8.117727	-1.2666923	-1.3629789	0.0	-23.6875	-46.75	-10.625	0.5889209	-0.15058523	-0.23548152
1277222925901	2.070293	8.430995	2.3426998	-0.81465244	0.0	-24.6875	-47.5	-7.375	2.041242	0.2635728	-0.24079302
1277222925941	1.4165162	8.390134	0.84446156	-1.2559795	0.0	-24.4375	-47.75	-5.125	1.5678114	0.09892094	-0.16725396
1277222925981	1.7570249	9.275456	0.38136974	-0.35854626	0.0	-23.9375	-48.25	-2.375	1.5515633	0.040375654	-0.18720917
1277222926021	1.920469	9.302697	2.7649305	0.08643913	0.0	-22.4375	-49.0	-0.625	2.432998	0.28325352	-0.20358221
1277222926061	2.3699405	10.760075	-0.53119355	1.224124	0.0	-21.1875	-50.0	0.625	1.3773448	-0.048174232	-0.21679178
1277222926091	4.1814466	11.032481	1.879608	2.1404438	0.0	-20.4375	-50.25	1.625	3.0138729	0.157984	-0.36228368
1277222926131	1.334794	11.75436	2.7921712	2.3483028	0.0	-20.4375	-50.0	1.375	2.3066733	0.23178452	-0.11307298
1277222926171	4.1814466	11.495573	1.56634	2.525669	0.0	-21.6875	-49.25	0.625	2.6968498	0.12735496	-0.3488661
1277222926211	-4.1814466	14.1787815	1.7297841	5.0767126	0.0	-22.4375	-47.5	-2.125	1.6406786	0.11648592	0.2867794
1277222926251	-3.5957718	14.410328	-1.0351465	5.0815554	0.0	-24.1875	-46.25	-5.875	1.3283354	-0.069584094	0.24453382
1277222926281	2.6423476	12.4489975	2.7240696	3.207961	0.0	-25.75	-45.0	-9.625	1.6288468	0.21086782	-0.20914987
1277222926321	6.4015636	10.337844	2.3699405	2.5815563	0.0	-27.5	-44.0	-13.6875	0.061381802	0.19249274	-0.5544436
1277222926361	0.92618364	7.273266	0.95342433	-2.412921	0.0	-29.25	-42.75	-15.4375	1.1933054	0.12931047	-0.12665914
1277222926401	-0.88532263	5.7886477	-0.040861044	-3.95055	0.0	-30.0	-41.0	-17.1875	1.1181105	-0.006977575	0.15176517
1277222926441	-1.0760075	5.175732	-0.08172209	-4.5196214	0.0	-29.25	-39.5	-19.4375	1.0728174	-0.015457707	0.20497501
1277222926471	-1.4982382	3.173541	0.19068487	-6.2920465	0.0	-28.25	-38.5	-21.6875	1.1180745	0.054281667	0.44108197
1277222926501	-1.3075534	2.3018389	0.46309182	-7.1191583	0.0	-26.5	-38.25	-23.9375	1.1237531	0.17317809	0.51659346
1277222926541	0.10896278	3.9090397	2.9556155	-4.9048004	0.0	-24.9375	-39.25	-24.4375	1.7606585	0.6472053	-0.027867347
1277222926581	6.1700177	15.595298	11.264028	10.396339	0.0	-24.4375	-40.75	-22.9375	2.3134122	0.5914227	-0.37673625
1277222926611	7.205164	13.633968	13.021052	10.376196	0.0	-24.4375	-41.75	-20.9375	3.0042353	0.70122534	-0.4861645
1277222926651	-0.84446156	4.944186	7.0553403	-1.1500969	0.0	-25.5	-42.0	-19.9375	2.096639	0.9527789	0.16916652
1277222926691	2.5333846	16.970953	0.42223078	7.357544	0.0	-26.5	-41.5	-19.1875	0.83793855	0.024601992	-0.14818347
1277222926731	-5.706926	2.8738933	-0.61291564	-3.3876214	0.0	-27.5	-40.75	-19.4375	1.2036582	-0.09562986	1.1042889
1277222926771	-0.95342433	7.668256	-5.706926	-0.20039368	0.0	-26.75	-40.75	-19.6875	0.69458705	-0.63612676	0.12369911
1277222926804	9.193735	14.859799	-4.0180025	8.123291	0.0	-25.25	-41.75	-18.4375	-0.017083446	-0.22601388	-0.55405504
1277222926841	-2.070293	9.152874	4.7943625	0.7312393	0.0	-24.1875	-42.75	-16.4375	1.6284186	0.472332	0.22244726
1277222926881	-1.9885708	8.499097	0.313268	-1.0723953	0.0	-23.1875	-43.75	-14.1875	1.1950146	0.035874292	0.22983977
1277222926921	2.1111538	8.430995	-2.1383946	-0.85615444	0.0	-23.6875	-44.75	-10.875	0.49731418	-0.24124683	-0.24535874
1277222926951	1.0351465	8.539958	1.6480621	-1.047739	0.0	-24.6875	-44.5	-7.125	1.668298	0.18928665	-0.12062367
1277222926985	2.070293	8.894087	2.9147544	-0.22089577	0.0	-25.25	-45.25	-4.125	2.2345881	0.30896357	-0.22869937
1277222927022	2.3699405	8.894087	0.27240697	-0.59819794	0.0	-25.5	-45.5	-1.625	1.5607812	0.02958659	-0.26041177
1277222927061	2.7240696	9.084772	2.2609777	-0.056488037	0.0	-24.1875	-45.25	0.375	2.4395583	0.23402153	-0.29131925
1277222927091	2.6014864	10.56939	3.173541	1.5313873	0.0	-22.6875	-45.75	1.625	2.5206783	0.28369218	-0.24133678
1277222927121	3.9499009	10.95076	-0.50395286	1.8455954	0.0	-21.6875	-46.25	2.375	1.6075015	-0.043262914	-0.34617206
1277222927161	4.6036777	10.882658	2.3018389	2.2318115	0.0	-20.9375	-46.5	3.375	3.052512	0.19239174	-0.40019983
1277222927201	4.4810944	12.9529505	1.2258313	3.9542284	0.0	-20.9375	-46.75	3.875	2.649808	0.08919913	-0.3330637
1277222927241	1.6889231	11.304889	0.95342433	1.6633968	0.0	-21.4375	-46.75	2.625	2.010394	0.08321899	-0.14830074
1277222927281	-5.202973	15.213928	1.9885708	6.394861	0.0	-21.9375	-45.75	0.375	1.7053528	0.123050116	0.32951897
1277222927321	-2.2201166	13.947236	-1.0351465	4.354065	0.0	-23.1875	-45.25	-3.125	1.3697408	-0.073165126	0.15785533
1277222927361	3.1463003	11.876944	2.4516625	2.7221823	0.0	-24.9375	-44.0	-6.625	1.8059214	0.19695248	-0.25895998
1277222927401	3.5957718	8.308413	1.1168685	-0.68488026	0.0	-26.5	-43.0	-10.125	1.0737323	0.1227479	-0.40844765
1277222927431	-0.23154591	5.6252036	0.3405087	-4.166395	0.0	-27.75	-41.75	-12.6875	1.2368581	0.060407884	0.041139003
1277222927461	-0.3405087	4.903325	-0.23154591	-4.886065	0.0	-28.25	-40.25	-15.6875	1.0572654	-0.047073964	0.06933314
1277222927491	-0.53119355	4.7535014	0.040861044	-5.0233865	0.0	-27.5	-39.25	-18.9375	1.0393261	0.008542608	0.111286156
1277222927521	-1.334794	3.486809	0.46309182	-6.0444746	0.0	-26.5	-38.5	-20.9375	1.1438928	0.123404466	0.3656023
1277222927551	-1.4165162	2.4516625	0.84446156	-6.851945	0.0	-25.25	-38.75	-22.6875	1.205796	0.28984356	0.5239194
1277222927581	-0.19068487	3.214402	2.6423476	-5.6412277	0.0	-23.4375	-39.0	-22.1875	1.8244531	0.68717104	0.059252594
1277222927611	3.445948	9.534244	8.499097	3.4225225	0.0	-23.1875	-40.25	-20.6875	2.6007354	0.6976925	-0.34681967
1277222927651	8.390134	18.700737	14.437569	15.264355	0.0	-23.1875	-41.25	-19.1875	2.784676	0.61366445	-0.42173284
1277222927691	0.10896278	7.4639506	9.152874	2.0042572	0.0	-23.6875	-41.25	-18.1875	2.3026967	0.88663745	-0.0145975035
1277222927731	-0.08172209	10.528529	1.7978859	0.8745947	0.0	-23.9375	-41.75	-17.6875	1.1644537	0.16912688	0.007761811
1277222927771	-3.1463003	11.686258	-0.040861044	2.2958078	0.0	-24.4375	-41.5	-18.1875	1.0817004	-0.0033762665	0.26299474
1277222927804	-4.4810944	1.920469	-1.1168685	-4.8050704	0.0	-24.6875	-41.5	-17.9375	1.2469506	-0.22520187	1.1659045
1277222927841	0.95342433	9.997335	-5.325556	1.5607281	0.0	-23.4375	-42.5	-16.6875	0.49664044	-0.48758605	-0.095080286
1277222927881	8.049625	12.639683	0.53119355	5.1880226	0.0	-23.1875	-43.75	-14.9375	-0.29070652	0.035432898	-0.56707776
1277222927921	-1.0351465	7.5865335	3.568531	-1.3590803	0.0	-22.4375	-45.25	-11.375	1.8244119	0.43612772	0.13560784
1277222927961	1.334794	8.430995	0.10896278	-1.2699518	0.0	-21.6875	-46.5	-8.625	1.0564896	0.012764389	-0.15701665
1277222927991	2.6014864	8.049625	-0.29964766	-1.3417816	0.0	-22.1875	-47.0	-5.875	0.7132762	-0.035406373	-0.31258583
1277222928031	1.5390993	8.471856	1.607201	-1.047411	0.0	-22.4375	-47.5	-3.375	1.9862726	0.18453185	-0.17971203
1277222928071	1.0760075	8.894087	2.4108016	-0.52901363	0.0	-22.1875	-47.75	-1.625	2.183045	0.26286775	-0.120395
1277222928101	1.1168685	8.962189	-0.0	-0.7751379	0.0	-22.1875	-47.75	0.375	1.5940664	-0.0	-0.12398089
1277222928141	1.7297841	9.697687	1.7570249	0.1995697	0.0	-21.4375	-48.25	2.375	2.3023534	0.17650837	-0.1765144
1277222928181	3.7864566	11.304889	1.7297841	2.2403374	0.0	-20.1875	-48.5	3.875	2.8236105	0.14408447	-0.32319564
1277222928221	5.47538	11.413852	0.313268	2.8564434	0.0	-19.6875	-48.75	5.375	-2.6780648	0.024741186	-0.44728717
1277222928261	0.3405087	13.443283	2.7240696	3.9140778	0.0	-19.1875	-49.25	6.375	2.3029487	0.19986479	-0.025323868
1277222928291	2.7921712	11.536434	1.334794	2.1376877	0.0	-19.9375	-49.25	5.125	2.5237982	0.1119851	-0.2374642
1277222928321	-1.3075534	12.830367	2.7649305	3.3832264	0.0	-21.4375	-49.0	3.375	2.0318742	0.21119162	0.101560205
1277222928361	-4.2904096	14.437569	-0.88532263	5.280921	0.0	-22.4375	-48.25	-1.125	1.4729046	-0.058712665	0.2888583
1277222928401	0.23154591	12.108489	1.3756552	2.3819332	0.0	-23.6875	-47.5	-5.875	1.5520817	0.113105245	-0.01912028
1277222928431	2.7921712	10.378705	1.3075534	1.0203266	0.0	-24.6875	-46.5	-10.125	1.2541369	0.12106362	-0.26280648
1277222928461	1.9477097	7.7772183	0.8036005	-1.7490778	0.0	-25.75	-45.5	-14.1875	0.992418	0.099898405	-0.2453907
1277222928491	0.23154591	5.7886477	-0.040861044	-4.0132294	0.0	-26.25	-44.75	-16.6875	0.9627793	-0.007053067	-0.039978687
1277222928531	-0.38136974	5.09401	0.19068487	-4.6948266	0.0	-26.5	-44.0	-19.6875	1.0233712	0.037311368	0.07472691
1277222928561	-0.50395286	4.862464	1.0351465	-4.809746	0.0	-26.75	-43.0	-21.9375	1.1694596	0.20866859	0.10327274
1277222928591	-1.0760075	3.718355	1.3075534	-5.720864	0.0	-26.0	-42.0	-24.1875	1.246584	0.32575577	0.2816829
1277222928631	-1.4573772	2.8738933	1.5390993	-6.235651	0.0	-25.75	-41.5	-25.1875	1.2953665	0.44560027	0.46931863
1277222928671	0.61291564	5.938472	4.7126403	-2.2007256	0.0	-25.75	-41.5	-24.4375	1.9306623	0.6682346	-0.102846846
1277222928711	7.3141265	16.930092	13.565866	13.08783	0.0	-24.4375	-42.75	-22.9375	2.661389	0.63420683	-0.407801
1277222928751	2.4516625	11.413852	10.337844	5.7868643	0.0	-24.6875	-43.75	-21.6875	2.3761575	0.72476286	-0.21158224
1277222928781	-1.7570249	5.6660647	4.399372	-2.4211307	0.0	-24.6875	-44.0	-21.4375	1.6649942	0.63810617	0.3006934
1277222928811	0.53119355	13.184497	0.5720546	3.400937	0.0	-24.1875	-44.0	-22.4375	0.8303105	0.043326132	-0.040267475
1277222928851	-4.3312707	7.9270425	0.42223078	-0.7636318	0.0	-24.6875	-43.25	-22.6875	1.1025896	0.046708338	0.5000687
1277222928891	-3.5276701	4.944186	-1.0351465	-3.6454034	0.0	-24.1875	-43.25	-22.4375	1.0505093	-0.16880988	0.6197281
1277222928931	7.164303	13.865514	-3.173541	6.1197767	0.0	-23.4375	-44.5	-20.4375	0.013137415	-0.20060538	-0.4769177
1277222928971	5.5571017	9.343558	1.4165162	1.1564684	0.0	-23.1875	-46.0	-17.6875	-0.31776693	0.12956965	-0.53655183
1277222929011	-1.7570249	7.246025	2.982856	-1.7761183	0.0	-22.6875	-47.5	-15.1875	1.6026638	0.38055885	0.23788972
1277222929051	1.6889231	8.689782	0.040861044	-0.95416737	0.0	-22.4375	-49.0	-12.9375	0.78465694	0.004615789	-0.19196412
1277222929091	0.313268	8.281172	0.92618364	-1.4679594	0.0	-22.6875	-49.25	-10.875	1.3238399	0.11130028	-0.037810918
1277222929131	1.1849703	8.281172	1.4165162	-1.3220482	0.0	-22.9375	-49.5	-8.375	1.6004633	0.16773686	-0.1421273
1277222929171	1.4573772	8.894087	0.5720546	-0.775815	0.0	-22.6875	-50.0	-6.125	1.3805361	0.06338704	-0.16241576
1277222929211	1.879608	9.997335	1.2666923	0.44440556	0.0	-22.1875	-50.0	-2.875	1.8590049	0.12388364	-0.18584146
1277222929251	1.6889231	11.686258	2.5333846	2.2697372	0.0	-21.1875	-50.75	-0.625	2.2271764	0.21134995	-0.14352837
1277222929291	6.238119	11.727119	-0.19068487	3.4777699	0.0	-20.1875	-51.25	0.375	-1.5051504	-0.014354516	-0.4888716
1277222929321	2.4108016	13.143636	2.1792557	3.7327843	0.0	-19.6875	-51.25	0.375	2.3008115	0.1616594	-0.18140332
1277222929361	2.2609777	11.795221	0.95342433	2.2410994	0.0	-20.6875	-51.25	-0.625	1.9019625	0.07921997	-0.18938862
1277222929401	-3.3642259	13.797412	1.7570249	4.5032673	0.0	-22.1875	-50.5	-3.375	1.6312637	0.123094335	0.23916343
1277222929431	-3.0237172	13.756551	-1.6889231	4.3791885	0.0	-23.4375	-49.5	-6.875	1.2274438	-0.11934005	0.21636143
1277222929461	0.6537767	12.489859	2.2609777	2.9030313	0.0	-24.9375	-48.5	-10.875	1.4881185	0.17884603	-0.052296877
1277222929491	2.6014864	11.114203	1.3756552	1.6905527	0.0	-25.5	-47.0	-15.4375	0.9954462	0.11993864	-0.22992916
1277222929521	1.9885708	7.504812	0.42223078	-2.0313754	0.0	-25.75	-45.75	-18.4375	0.69964826	0.054331016	-0.2590203
1277222929561	0.7218784	5.243834	-0.23154591	-4.5083	0.0	-26.0	-44.5	-21.1875	0.70266575	-0.043715432	-0.13680248
1277222929591	-0.040861044	4.5628166	0.313268	-5.2329097	0.0	-26.0	-43.0	-23.9375	0.8996491	0.06854641	0.008954984
1277222929631	-0.38136974	4.5219555	1.0351465	-5.1520767	0.0	-26.0	-42.0	-25.6875	1.0671204	0.22426867	0.08413824
1277222929671	-1.3756552	3.255263	1.3075534	-6.038512	0.0	-25.75	-41.25	-27.1875	1.1928706	0.3543732	0.39983112
1277222929711	-0.5720546	4.2904096	2.3426998	-4.884953	0.0	-25.25	-40.5	-28.1875	1.3359432	0.49609432	0.13255154
1277222929751	2.7240696	11.413852	10.651112	6.0408335	0.0	-24.1875	-41.5	-26.9375	2.2386398	0.7370428	-0.23428087
1277222929781	8.117727	17.692831	12.4489975	13.299871	0.0	-22.9375	-42.5	-26.1875	2.4665189	0.5689711	-0.43015984
1277222929811	2.5606253	7.3549876	7.5456724	1.0372334	0.0	-22.1875	-42.75	-26.1875	2.6938326	0.7695971	-0.33502412
1277222929851	0.7627395	4.2086873	5.6660647	-2.707417	0.0	-21.9375	-43.25	-25.9375	2.567714	0.92417425	-0.17928387
1277222929891	-0.38136974	17.965239	-1.7297841	8.245701	0.0	-22.4375	-42.5	-26.1875	0.65956956	-0.09596767	0.021225015
1277222929931	-6.932757	7.3141265	3.214402	0.7712488	0.0	-22.9375	-42.0	-26.4375	1.1438224	0.30876163	0.75863594
1277222929971	-0.19068487	5.8567495	-4.0180025	-2.7015662	0.0	-23.1875	-42.75	-26.1875	0.49660063	-0.6010525	0.032546643
1277222930011	7.0553403	14.1787815	-4.140586	6.5628376	0.0	-22.9375	-44.0	-24.1875	0.025972925	-0.25572342	-0.46172455
1277222930051	1.5390993	9.043911	1.7570249	-0.465971	0.0	-22.9375	-45.5	-21.9375	0.8799257	0.18923196	-0.1685658
1277222930091	-3.9090397	7.43671	2.4108016	-1.0661001	0.0	-23.1875	-47.25	-18.9375	1.3477309	0.2794407	0.48394936
1277222930131	1.879608	8.539958	-1.2666923	-0.9710226	0.0	-23.4375	-48.5	-15.1875	0.5050767	-0.14385755	-0.21664159
1277222930171	2.2201166	8.430995	1.7570249	-0.91296005	0.0	-23.6875	-49.5	-12.125	1.451233	0.1988668	-0.25748274
1277222930211	1.6480621	8.894087	1.879608	-0.5679369	0.0	-23.6875	-50.25	-9.375	1.6940622	0.20487943	-0.18322049
1277222930251	1.56634	9.384419	0.50395286	-0.27907372	0.0	-22.6875	-50.75	-6.625	1.308133	0.052918825	-0.16538402
1277222930281	2.4108016	10.18802	2.8330324	1.0392609	0.0	-21.6875	-51.5	-4.125	2.4155214	0.2642728	-0.23235707
1277222930311	2.6014864	11.727119	1.3075534	2.2765102	0.0	-20.6875	-52.0	-2.375	1.955478	0.108425185	-0.21829997
1277222930351	5.706926	11.727119	0.50395286	3.2451048	0.0	-19.6875	-52.5	-1.125	-1.7640203	0.03862148	-0.4529054
1277222930391	2.0294318	12.571581	3.214402	3.3271084	0.0	-20.1875	-52.5	-1.375	2.3805044	0.24725513	-0.16004936
1277222930431	1.607201	12.067628	1.9885708	2.5288734	0.0	-20.9375	-52.25	-3.125	1.961727	0.16191337	-0.13240366
1277222930471	-4.1814466	15.28203	0.10896278	6.037492	0.0	-22.4375	-51.0	-6.875	1.3855673	0.006877219	0.2670814
1277222930511	-1.7570249	13.565866	0.50395286	3.8818064	0.0	-23.9375	-49.25	-11.625	1.2517292	0.036824223	0.12880105
1277222930551	3.5276701	11.304889	1.6889231	2.1556835	0.0	-24.9375	-47.25	-16.4375	0.8324225	0.14166008	-0.30247322
1277222930591	1.7570249	7.4639506	0.84446156	-2.0923252	0.0	-26.5	-45.0	-20.6875	0.79782665	0.109686494	-0.23119238
1277222930631	-0.61291564	5.175732	-0.53119355	-4.567754	0.0	-26.75	-43.0	-24.1875	0.844757	-0.101568714	0.1178721
1277222930671	-0.5720546	4.630918	0.08172209	-5.1398177	0.0	-27.0	-41.5	-27.4375	0.87236893	0.01751215	0.122906774
1277222930711	-1.1441092	3.3778462	0.7218784	-6.1679773	0.0	-26.0	-39.5	-30.1875	1.0024439	0.1997156	0.32658145
1277222930751	-1.56634	2.1792557	1.3075534	-6.821307	0.0	-24.4375	-38.75	-32.1875	1.1039249	0.4533627	0.6231993
1277222930801	2.152015	8.853226	8.430995	2.6067476	0.0	-23.4375	-39.25	-31.9375	2.0026035	0.74665177	-0.23845229
1277222930831	7.668256	18.659876	14.9006605	15.273678	0.0	-22.6875	-40.5	-30.6875	2.0199795	0.63616806	-0.38990936
1277222930871	1.0351465	7.4639506	9.384419	2.2286901	0.0	-23.1875	-42.25	-29.6875	2.3373227	0.8942482	-0.1378071
1277222930911	-0.50395286	3.1463003	3.990762	-4.6998553	0.0	-23.1875	-42.5	-28.6875	1.9565786	0.8970043	0.1588241
1277222930951	-1.525479	18.700737	-1.1441092	8.991053	0.0	-23.6875	-42.25	-28.1875	0.72409743	-0.060901955	0.08139299
1277222930981	-3.5276701	8.471856	3.568531	0.039731026	0.0	-23.4375	-41.5	-28.4375	1.1709769	0.3708637	0.3945628
1277222931021	-1.3075534	3.8273177	-1.0760075	-5.621456	0.0	-23.1875	-41.5	-27.1875	0.7985198	-0.26001865	0.32920516
1277222931061	5.829509	13.633968	-5.9793324	6.181491	0.0	-22.1875	-42.75	-25.6875	0.085798904	-0.38330263	-0.4040475
1277222931091	2.5606253	11.264028	0.53119355	1.7569685	0.0	-21.4375	-43.5	-23.6875	0.48257867	0.045952793	-0.22352886
1277222931131	-4.5628166	8.499097	3.9090397	0.601738	0.0	-21.4375	-45.0	-20.9375	1.3665143	0.3850077	0.4926982
1277222931161	0.7218784	8.730643	-0.27240697	-1.0419798	0.0	-21.1875	-46.0	-18.1875	0.72240216	-0.031085122	-0.08249565
1277222931201	2.1792557	8.240311	-0.3405087	-1.2762451	0.0	-22.4375	-46.75	-15.4375	0.50884736	-0.03992767	-0.25854373
1277222931241	1.4573772	7.3141265	1.0760075	-2.2715201	0.0	-23.1875	-47.5	-13.1875	1.1668286	0.14328861	-0.19667923
1277222931281	1.4165162	7.9270425	1.334794	-1.6441631	0.0	-23.1875	-47.75	-10.875	1.4076368	0.1642656	-0.17682779
1277222931311	2.8738933	8.812365	1.7297841	-0.37748337	0.0	-22.4375	-49.0	-8.375	1.8241272	0.18449526	-0.31524506
1277222931351	2.6014864	10.119919	3.3778462	1.1747131	0.0	-21.4375	-49.75	-6.125	2.4744506	0.3126677	-0.25161782
1277222931391	7.1234417	10.61025	0.46309182	2.9814415	0.0	-19.9375	-50.5	-4.375	-1.3624619	0.03622066	-0.5912542
1277222931431	2.6832085	13.633968	3.2961242	4.4744253	0.0	-19.1875	-51.0	-2.875	2.39002	0.23290356	-0.19431983
1277222931461	2.7649305	12.980191	-0.23154591	3.466775	0.0	-19.1875	-50.25	-3.875	1.0462115	-0.017445207	-0.20987478
1277222931492	-2.4925237	13.443283	2.3699405	4.0696306	0.0	-19.9375	-49.25	-5.625	1.6443942	0.17163217	0.1833285
1277222931531	-7.3141265	15.894946	1.4165162	7.747616	0.0	-21.6875	-48.0	-8.875	1.4195964	0.080781385	0.431266
1277222931571	-0.14982383	13.593107	0.14982383	3.7881088	0.0	-23.1875	-46.0	-13.1875	1.0793194	0.011020929	0.011021598
1277222931611	4.0180025	11.686258	2.070293	2.723278	0.0	-24.9375	-44.5	-16.6875	0.8402328	0.16598903	-0.33116123
1277222931651	2.7240696	8.499097	0.95342433	-0.83089256	0.0	-26.0	-42.75	-20.1875	0.66594267	0.10642292	-0.3101681
1277222931691	-1.0351465	5.325556	-0.6537767	-4.3421745	0.0	-26.25	-41.0	-22.9375	0.89395016	-0.11992853	0.19197959
1277222931731	-1.3075534	4.3312707	-0.46309182	-5.2586775	0.0	-25.25	-39.25	-25.9375	0.8879886	-0.10200057	0.2931869
1277222931771	-1.7570249	3.568531	0.040861044	-5.828809	0.0	-23.4375	-37.1875	-28.6875	0.92118233	0.010272346	0.45752212
1277222931801	-1.7978859	2.5606253	1.1849703	-6.4610033	0.0	-21.4375	-36.1875	-30.6875	1.0386997	0.36204	0.61215246
1277222931831	-0.19068487	2.982856	2.8738933	-5.660199	0.0	-19.4375	-36.1875	-31.6875	1.6319522	0.76577675	0.06384008
1277222931871	2.6423476	10.079058	9.466142	4.270894	0.0	-18.9375	-37.4375	-31.1875	2.0420575	0.73748493	-0.25639224
1277222931911	6.3198414	18.087822	14.056199	13.956482	0.0	-18.6875	-39.5	-29.4375	1.9740325	0.63293386	-0.33613804
1277222931951	-1.3756552	4.5628166	7.6954966	-0.75499916	0.0	-18.6875	-40.25	-28.9375	1.9840714	1.0163195	0.29282555
1277222931981	0.84446156	11.495573	4.2904096	2.4924927	0.0	-18.4375	-40.5	-28.9375	0.8873428	0.35633102	-0.07332801
1277222932021	-2.1383946	15.431854	-2.982856	6.055641	0.0	-17.6875	-40.0	-28.9375	0.576185	-0.18917328	0.13769332
1277222932061	-6.510526	4.8216033	0.5720546	-1.684947	0.0	-17.4375	-39.25	-29.6875	0.9663164	0.070493676	0.9333476
1277222932091	1.7978859	9.956474	-6.701211	2.3288345	0.0	-17.9375	-39.5	-28.9375	0.22089218	-0.5850004	-0.17864941
1277222932131	4.671779	13.865514	-2.9556155	5.1202936	0.0	-18.6875	-40.75	-26.6875	0.13347724	-0.19932263	-0.3249887
1277222932161	2.152015	9.152874	2.4516625	-0.08981323	0.0	-19.4375	-42.25	-23.4375	0.69130456	0.25506753	-0.23092477
1277222932201	-0.9125633	8.008764	2.6832085	-1.3111992	0.0	-19.9375	-43.75	-19.6875	1.3459512	0.32134247	0.11345626
1277222932241	1.607201	8.008764	-0.7218784	-1.6063757	0.0	-20.1875	-45.25	-15.9375	0.49586216	-0.08814511	-0.19804958
1277222932281	1.5390993	7.3958488	0.38136974	-2.2427325	0.0	-20.6875	-46.25	-12.6875	0.81656104	0.05044099	-0.20517476
1277222932312	1.607201	8.158588	2.9556155	-0.98161125	0.0	-20.6875	-47.5	-10.125	2.1585608	0.34151235	-0.19450447
1277222932351	1.607201	8.308413	1.7297841	-1.1692333	0.0	-20.4375	-48.25	-7.625	1.8216664	0.2016298	-0.19108249
1277222932391	3.173541	9.507003	1.1849703	0.2858534	0.0	-19.4375	-48.75	-4.625	2.0498307	0.11768238	-0.32218027
1277222932431	3.405087	11.795221	2.4516625	2.712635	0.0	-18.4375	-49.25	-2.375	2.6694236	0.19710465	-0.28104272
1277222932461	5.47538	11.223166	-0.19068487	2.6823692	0.0	-17.9375	-49.75	-1.125	-1.2442851	-0.015268795	-0.45389184
1277222932491	2.152015	12.721405	4.440233	3.8381653	0.0	-17.4375	-50.5	-0.125	2.6660717	0.33145103	-0.16757838
1277222932531	3.636633	12.340035	1.56634	3.1530943	0.0	-17.6875	-50.75	-0.875	2.7053108	0.12115815	-0.28658915
1277222932571	-1.6889231	14.410328	3.214402	5.0541162	0.0	-18.4375	-50.5	-3.375	1.8558859	0.21802442	0.116670005
1277222932601	-3.636633	16.821129	-3.2961242	7.715904	0.0	-19.6875	-49.25	-7.625	1.0822043	-0.18923491	0.21291745
1277222932641	-2.4516625	16.317177	3.5276701	7.0665646	0.0	-20.9375	-48.0	-12.375	1.4695526	0.21062307	0.14913484
1277222932681	1.7570249	12.598822	1.1168685	2.9630337	0.0	-22.1875	-46.5	-17.6875	0.86241984	0.08757439	-0.13856575
1277222932711	3.0237172	7.7772183	0.27240697	-1.4578657	0.0	-22.9375	-44.25	-21.9375	0.25729325	0.03263413	-0.37080678
1277222932751	0.95342433	5.012288	-0.42223078	-4.687048	0.0	-23.4375	-42.0	-24.9375	0.48761615	-0.08256713	-0.18797176
1277222932791	-0.9125633	2.8738933	0.10896278	-6.789382	0.0	-23.4375	-39.25	-28.9375	0.8880859	0.036120914	0.30746582
1277222932831	-1.607201	1.9477097	0.7627395	-7.168765	0.0	-22.4375	-36.6875	-31.9375	0.99280286	0.29333678	0.6899041
1277222932871	0.08172209	3.1054392	5.243834	-3.7117157	0.0	-20.6875	-35.1875	-34.6875	2.1546543	1.0359743	-0.026309717
1277222932911	4.5628166	11.495573	11.413852	7.0231895	0.0	-18.9375	-34.4375	-35.9375	1.5781388	0.74529874	-0.3778479
1277222932951	1.3075534	8.812365	7.5456724	1.8683071	0.0	-17.9375	-34.4375	-36.1875	1.2729069	0.7027423	-0.14730242
1277222932991	-1.2666923	6.0474343	8.390134	0.6130581	0.0	-16.9375	-34.6875	-36.1875	1.7002254	0.9360426	0.20647442
1277222933031	-0.95342433	9.956474	10.147159	4.4413395	0.0	-16.1875	-34.4375	-36.1875	1.4635457	0.79260135	0.09546813
1277222933071	0.6537767	14.369467	2.152015	4.737771	0.0	-14.625	-34.1875	-37.4375	0.38876837	0.1485068	-0.045466274
1277222933101	-7.205164	5.243834	-0.7218784	-0.86610794	0.0	-13.875	-34.1875	-37.4375	0.7552443	-0.08083012	0.9416629
1277222933131	-4.399372	9.384419	-1.9477097	0.73921967	0.0	-13.875	-35.1875	-36.6875	0.59245825	-0.18575574	0.4383737
1277222933161	1.56634	14.601013	-1.6480621	4.9703293	0.0	-15.1875	-36.4375	-34.4375	0.28382903	-0.11176154	-0.10686742
1277222933201	4.9850473	11.34575	0.19068487	2.5874252	0.0	-17.1875	-38.75	-31.1875	0.004848445	0.015385769	-0.41398376
1277222933241	4.099725	8.390134	1.1441092	-0.39861774	0.0	-18.9375	-40.75	-27.9375	-0.03929888	0.121911585	-0.4545155
1277222933281	1.56634	7.6273947	2.5606253	-1.6098595	0.0	-19.9375	-42.75	-23.6875	0.92908424	0.31771174	-0.2025413
1277222933313	1.4573772	6.973618	1.9885708	-2.410049	0.0	-20.4375	-45.25	-20.1875	1.0329237	0.27219814	-0.20601928
1277222933371	0.7218784	7.6273947	2.3426998	-1.795002	0.0	-20.4375	-46.5	-16.6875	1.4549156	0.2967478	-0.09436178
1277222933411	-0.08172209	8.19945	2.4925237	-1.2363338	0.0	-20.1875	-48.0	-13.1875	1.6328162	0.2950965	0.009966447
1277222933441	1.334794	8.894087	2.152015	-0.5590763	0.0	-19.9375	-48.5	-10.125	1.7294592	0.2348646	-0.14896484
1277222933471	3.336985	8.962189	2.5333846	0.0864954	0.0	-18.9375	-49.0	-7.875	3.030846	0.25895932	-0.35643697
1277222933501	4.0180025	10.079058	1.5390993	1.1523905	0.0	-17.9375	-49.75	-5.875	-2.310425	0.14090687	-0.37934086
1277222933531	3.486809	10.841797	0.19068487	1.583642	0.0	-16.6875	-50.25	-4.125	0.15362701	0.01674178	-0.31116092
1277222933571	1.5390993	10.882658	1.1441092	1.2436914	0.0	-15.9375	-51.0	-3.375	1.8095367	0.10372198	-0.14049503
1277222933601	2.152015	12.067628	2.5333846	2.710412	0.0	-15.9375	-51.0	-2.875	2.4363136	0.2038024	-0.17647447
1277222933641	4.2086873	11.686258	2.7240696	2.9095697	0.0	-16.1875	-51.0	-3.125	-2.9021862	0.2158933	-0.34567937
1277222933681	-0.23154591	13.375181	3.5276701	4.027856	0.0	-16.6875	-50.5	-5.375	1.979473	0.25783807	0.01730988
1277222933721	-2.4108016	13.797412	-2.2609777	4.38111	0.0	-17.4375	-49.75	-9.125	1.0051793	-0.16004351	0.17298226
1277222933761	-2.4516625	13.633968	2.8738933	4.3409643	0.0	-17.4375	-49.0	-13.6875	1.4084074	0.20455988	0.17791875
1277222933791	-1.4573772	11.264028	1.3756552	1.6342716	0.0	-17.9375	-47.5	-18.9375	1.0591116	0.12053152	0.12866852
1277222933831	0.08172209	7.9270425	-0.61291564	-1.8555279	0.0	-17.4375	-45.5	-23.9375	0.5546628	-0.07716197	-0.010308914
1277222933871	1.0760075	4.8216033	0.08172209	-4.865767	0.0	-17.1875	-43.25	-27.9375	0.26432508	0.01654073	-0.21956608
1277222933911	-0.53119355	4.0180025	0.5720546	-5.713515	0.0	-17.6875	-41.0	-31.1875	0.7314345	0.14021856	0.13144116
1277222933951	-1.4573772	3.405087	0.27240697	-6.092788	0.0	-17.1875	-39.75	-32.6875	0.8019938	0.07341463	0.40440893
1277222933991	-1.4573772	2.3426998	1.2666923	-6.770748	0.0	-17.4375	-39.25	-33.1875	1.0561079	0.43040356	0.55650616
1277222934031	0.84446156	6.973618	6.2108784	-0.43011189	0.0	-16.9375	-39.75	-32.4375	1.8296099	0.72399783	-0.12050701
1277222934071	3.5276701	17.733692	14.601013	13.433786	0.0	-16.4375	-41.25	-30.6875	1.9858284	0.6793134	-0.19636145
1277222934101	0.08172209	9.697687	9.534244	3.7931147	0.0	-16.4375	-42.25	-29.6875	2.0592563	0.77688205	-0.008426768
1277222934141	-1.1441092	5.434519	6.742072	-1.0717478	0.0	-16.4375	-43.0	-28.9375	2.00166	0.88175255	0.20749623
1277222934171	-1.879608	16.358038	2.070293	6.788664	0.0	-16.4375	-43.5	-28.9375	0.735082	0.12507753	0.114402525
1277222934201	-4.4810944	10.95076	-1.1168685	2.0780764	0.0	-16.4375	-43.5	-29.4375	0.7726543	-0.094113976	0.38841558
1277222934233	-1.920469	5.7477865	-1.0351465	-3.6587415	0.0	-16.4375	-43.5	-29.4375	0.7726543	-0.094113976	0.38841558
1277222934285	7.1234417	12.721405	-4.5900574	5.47884	0.0	-16.4375	-44.0	-28.6875	-0.1715327	-0.30499512	-0.51045567
1277222934321	-0.46309182	9.084772	2.4925237	-0.3747778	0.0	-17.1875	-44.5	-26.1875	0.955192	0.26744285	0.05093043
1277222934351	-1.0760075	8.281172	1.879608	-1.2469463	0.0	-17.4375	-45.5	-23.4375	1.0445327	0.22139212	0.12921031
1277222934391	1.1849703	8.430995	2.2609777	-0.9976864	0.0	-17.9375	-46.5	-19.9375	1.0280799	0.25957295	-0.13963461
1277222934431	1.1441092	7.43671	1.4165162	-2.15027	0.0	-19.1875	-47.5	-15.4375	1.1020837	0.18608327	-0.15264934
1277222934461	2.9556155	7.273266	1.4982382	-1.814105	0.0	-19.9375	-48.75	-12.375	0.05154405	0.18857001	-0.3859831
1277222934491	2.152015	7.7772183	2.070293	-1.4758396	0.0	-20.9375	-49.25	-9.125	2.1234202	0.25114208	-0.269953
1277222934531	3.486809	8.894087	1.8387469	-0.07815552	0.0	-21.1875	-50.0	-6.375	2.7880242	0.19015013	-0.37362272
1277222934571	1.920469	9.915613	2.4925237	0.5962467	0.0	-19.9375	-50.5	-5.125	2.2353396	0.2419528	-0.1913126
1277222934601	3.990762	11.304889	-0.27240697	2.185051	0.0	-19.4375	-51.0	-3.625	0.2711637	-0.022718243	-0.33935565
1277222934641	2.8738933	11.985906	4.7126403	3.3891897	0.0	-18.9375	-51.0	-2.375	2.7765276	0.36519423	-0.23533008
1277222934681	5.366417	11.917805	2.4925237	3.4991827	0.0	-18.4375	-51.75	-2.375	-2.6312826	0.18843888	-0.42309147
1277222934721	-3.173541	14.560152	2.9556155	5.385619	0.0	-18.9375	-51.75	-4.875	1.7144434	0.19579595	0.21460432
1277222934761	-2.2201166	15.745122	-1.6480621	6.1794033	0.0	-18.9375	-50.25	-9.125	1.0750992	-0.10327724	0.14007996
1277222934801	-0.29964766	13.0619135	3.9499009	3.8427114	0.0	-19.1875	-48.75	-14.6875	1.5667237	0.29358277	0.02293654
1277222934831	1.3756552	10.800936	1.0760075	1.1345758	0.0	-20.4375	-45.75	-20.4375	0.74796575	0.098503545	-0.12668239
1277222934871	0.7627395	7.5865335	0.313268	-2.175438	0.0	-20.9375	-43.5	-23.6875	0.6472297	0.041062422	-0.1002019
1277222934911	0.8036005	4.8216033	-0.08172209	-4.9178557	0.0	-21.1875	-41.75	-26.6875	0.4729472	-0.016716983	-0.16514868
1277222934951	-0.3405087	3.5957718	0.313268	-6.181232	0.0	-21.1875	-40.25	-29.1875	0.7676254	0.08651668	0.09441542
1277222934981	-1.334794	2.7649305	-0.040861044	-6.7361155	0.0	-19.6875	-39.5	-31.4375	0.8319639	-0.01330786	0.4497596
1277222935021	-1.525479	1.4982382	0.23154591	-7.6559715	0.0	-18.4375	-39.0	-33.4375	0.9093312	0.107870884	0.79440695
1277222935061	0.10896278	4.862464	4.862464	-2.929224	0.0	-16.9375	-39.75	-33.4375	1.8568419	0.78527266	-0.022405213
1277222935091	3.255263	15.976667	14.2877445	11.87261	0.0	-15.9375	-41.0	-32.1875	2.102	0.7195566	-0.20099974
1277222935121	1.0351465	16.167353	11.917805	10.30526	0.0	-15.6875	-41.75	-30.4375	1.6296704	0.6342512	-0.06393968
1277222935151	-1.56634	5.6660647	7.7772183	-0.057658195	0.0	-15.9375	-42.25	-29.4375	1.9737815	0.9235477	0.2697066
1277222935181	0.9942854	0.50395286	4.944186	-4.7383614	0.0	-16.1875	-42.0	-29.4375	-2.2850504	1.3490455	-1.1016843
1277222935221	-6.428804	10.119919	0.23154591	2.184843	0.0	-15.9375	-41.0	-30.1875	0.87360597	0.01931038	0.56594497
1277222935261	4.2086873	15.363752	-2.3426998	6.2944736	0.0	-16.1875	-41.5	-30.4375	0.12645437	-0.14601746	-0.2673769
1277222935331	5.597963	10.079058	-6.701211	3.5286722	0.0	-16.4375	-41.5	-29.9375	-0.119534664	-0.5265063	-0.5069837
1277222935361	1.7570249	15.595298	1.3075534	5.9416885	0.0	-17.4375	-42.0	-27.6875	0.48489675	0.08312371	-0.11219067
1277222935391	-1.0351465	10.18802	1.7570249	0.5834608	0.0	-18.9375	-43.5	-24.6875	0.92980576	0.16992202	0.1012568
1277222935421	-0.61291564	8.158588	3.1463003	-1.0409536	0.0	-20.1875	-44.5	-21.1875	1.3858097	0.36712477	0.07498436
1277222935461	2.152015	6.5513873	2.5606253	-2.4507923	0.0	-21.6875	-46.25	-17.1875	1.8152726	0.35555103	-0.31737834
1277222935491	2.1792557	5.407278	0.08172209	-3.9761705	0.0	-23.1875	-47.0	-13.4375	0.30057183	0.014016816	-0.38310942
1277222935521	1.7297841	6.8237944	2.2201166	-2.4252381	0.0	-23.4375	-47.75	-9.875	2.08708	0.30550122	-0.24826348
1277222935571	1.9885708	7.8180795	3.214402	-1.1228056	0.0	-23.6875	-47.75	-6.625	2.436228	0.37918	-0.24907365
1277222935611	3.5276701	9.847511	0.6537767	0.6740637	0.0	-22.6875	-48.5	-3.375	1.5621994	0.06241955	-0.34398744
1277222935651	2.982856	11.563675	3.636633	2.6769838	0.0	-21.4375	-49.5	-1.875	2.5928206	0.2955981	-0.2524474
1277222935691	5.8976107	12.762266	3.0237172	4.5738964	0.0	-20.4375	-50.0	-0.375	-2.9244735	0.21184541	-0.4328814
1277222935731	5.09401	13.525005	0.95342433	4.6772623	0.0	-20.1875	-50.75	-0.875	2.7880719	0.06587406	-0.3602046
1277222935771	-5.284695	16.208214	1.3075534	7.291416	0.0	-21.1875	-50.25	-3.625	1.5578313	0.076548494	0.31518167
1277222935801	-2.4925237	15.745122	0.14982383	6.1352434	0.0	-21.9375	-49.5	-7.375	1.3388022	0.009398259	0.15700164
1277222935831	-1.3756552	13.988097	4.944186	5.093158	0.0	-22.6875	-48.5	-12.6875	1.6913775	0.3382416	0.09802947
1277222935871	1.3756552	12.762266	2.0294318	3.188982	0.0	-22.9375	-46.75	-17.1875	1.0877142	0.1568044	-0.10737624
1277222935911	1.3756552	8.117727	-0.23154591	-1.569931	0.0	-22.6875	-44.75	-21.1875	0.58413213	-0.028115127	-0.16786829
1277222935951	1.0351465	4.0588636	-0.5720546	-5.5789857	0.0	-21.9375	-42.75	-25.1875	0.32923853	-0.13572857	-0.24971049
1277222935992	-0.0	3.636633	0.27240697	-6.159829	0.0	-21.1875	-40.25	-28.6875	0.6913516	0.07476675	0.0
1277222936031	-1.7978859	1.8387469	-0.53119355	-7.1807117	0.0	-19.9375	-38.5	-31.9375	0.8801346	-0.2036928	0.7741627
1277222936071	-0.8036005	0.38136974	1.9477097	-7.665438	0.0	-18.4375	-37.4375	-33.6875	1.2353799	1.1423913	1.1276938
1277222936101	2.4925237	6.3607025	9.956474	2.2682238	0.0	-17.1875	-37.75	-33.1875	2.9975874	0.96942645	-0.37347206
1277222936141	2.5333846	16.589584	14.519291	12.384388	0.0	-16.9375	-38.75	-31.9375	1.8036345	0.71323836	-0.15153861
1277222936171	-1.6889231	10.991621	8.894087	4.4331875	0.0	-17.4375	-40.25	-30.6875	1.5377718	0.6746088	0.1524631
1277222936201	-1.3075534	6.742072	6.510526	-0.34344864	0.0	-17.6875	-41.0	-29.9375	1.7147324	0.7587068	0.19156133
1277222936241	-0.38136974	16.43976	6.1291566	7.7426434	0.0	-18.1875	-41.25	-30.4375	0.93028414	0.35677457	0.023193851
1277222936281	-2.1383946	6.4015636	-1.6480621	-2.8590708	0.0	-17.9375	-41.0	-31.1875	0.6661272	-0.23949684	0.3223887
1277222936311	0.50395286	7.014479	-0.53119355	-2.7540584	0.0	-17.1875	-40.75	-31.4375	0.3910117	-0.07539032	-0.07172143
1277222936351	5.706926	13.102775	-2.4108016	4.686923	0.0	-17.1875	-40.75	-31.1875	-0.013500378	-0.16711263	-0.41077334
1277222936381	1.56634	11.536434	0.61291564	1.8517542	0.0	-17.1875	-41.75	-29.6875	0.39536542	0.052597106	-0.13494813
1277222936421	-2.4516625	8.158588	1.9885708	-1.0586433	0.0	-18.1875	-43.25	-27.6875	1.0104799	0.22932169	0.29191622
1277222936451	-0.61291564	8.812365	2.4108016	-0.6499367	0.0	-18.6875	-44.25	-24.1875	1.0640243	0.2664231	0.069439955
1277222936481	0.53119355	7.8861814	1.7978859	-1.7007008	0.0	-19.1875	-46.0	-21.1875	1.005009	0.22365834	-0.06725592
1277222936521	0.7627395	7.205164	1.6480621	-2.3761544	0.0	-20.4375	-47.0	-18.4375	1.136361	0.22365706	-0.10546732
1277222936561	1.0351465	6.932757	1.2666923	-2.683508	0.0	-20.4375	-48.0	-14.4375	1.1917005	0.17877856	-0.1482174
1277222936591	1.56634	7.5865335	1.607201	-1.8951387	0.0	-21.1875	-49.25	-11.125	1.5500067	0.20457104	-0.20360237
1277222936621	3.255263	8.921328	3.173541	0.20625114	0.0	-20.6875	-50.0	-7.875	2.9084523	0.32250687	-0.34987378
1277222936661	2.3426998	9.997335	3.0237172	0.8974533	0.0	-19.6875	-50.25	-5.125	2.4934566	0.28638056	-0.23017922
1277222936701	4.3312707	10.760075	0.9942854	1.8349867	0.0	-18.9375	-51.0	-3.875	-2.058842	0.08551187	-0.3826869
1277222936741	3.1054392	12.830367	2.982856	3.7269936	0.0	-17.9375	-50.75	-3.625	2.5548558	0.22222765	-0.23747131
1277222936801	0.50395286	12.217452	2.4516625	2.664547	0.0	-18.1875	-51.0	-3.375	1.9740242	0.19787474	-0.041225236
1277222936831	-3.8273177	13.252599	1.7978859	4.1042137	0.0	-18.6875	-50.75	-6.125	1.556994	0.12960584	0.2811479
1277222936871	-1.9885708	15.023244	0.10896278	5.3480234	0.0	-19.1875	-49.0	-10.125	1.2034665	0.007190107	0.13160124
1277222936911	-0.5720546	12.408136	3.0237172	2.9774008	0.0	-20.1875	-47.5	-14.9375	1.415018	0.23878536	0.046070565
1277222936951	2.6832085	10.378705	1.4573772	1.0119019	0.0	-21.1875	-45.25	-20.6875	0.5845886	0.13512172	-0.2529908
1277222936981	1.4573772	6.973618	0.7627395	-2.6416612	0.0	-21.6875	-43.0	-24.1875	0.5770922	0.106655784	-0.20601927
1277222937011	0.7627395	5.012288	0.6946377	-4.689295	0.0	-22.1875	-41.5	-27.4375	0.6380554	0.1361619	-0.15101534
1277222937041	0.50395286	4.903325	0.46309182	-4.8557897	0.0	-21.9375	-40.25	-30.4375	0.5917073	0.09367458	-0.10241816
1277222937081	-1.3756552	4.3312707	0.38136974	-5.246192	0.0	-20.6875	-39.0	-32.4375	0.81450045	0.08372309	0.3075335
1277222937111	-2.1792557	2.9556155	0.08172209	-6.1335726	0.0	-18.9375	-38.0	-33.9375	0.84556687	0.022250779	0.63534105
1277222937151	-1.920469	2.6832085	1.5390993	-6.1656837	0.0	-17.4375	-37.4375	-34.4375	1.0092045	0.43644157	0.62120914
1277222937191	-0.46309182	6.6331096	5.434519	-1.2190666	0.0	-16.4375	-38.75	-32.9375	1.4786446	0.68520856	0.0697021
1277222937221	3.336985	17.24336	13.633968	12.4274235	0.0	-15.9375	-40.75	-31.1875	1.7891247	0.66010725	-0.19115989
1277222937261	0.27240697	12.4489975	10.882658	6.7307014	0.0	-16.9375	-42.5	-28.9375	1.9520911	0.71824646	-0.021878349
1277222937301	-2.6423476	13.143636	6.973618	5.305216	0.0	-17.6875	-43.5	-27.6875	1.3253336	0.47964737	0.19839178
1277222937331	-1.4573772	13.211738	2.9147544	3.8010588	0.0	-18.1875	-43.0	-27.9375	0.88736403	0.21587148	0.10986509
1277222937361	-1.3075534	4.0180025	-5.243834	-3.0722728	0.0	-18.9375	-42.5	-28.1875	0.6099039	-0.8925377	0.31461513
1277222937394	-2.0294318	7.8861814	-3.9499009	-0.7561159	0.0	-18.4375	-42.25	-28.1875	0.60313004	-0.4516241	0.2518751
1277222937431	5.706926	14.859799	-2.7240696	6.3427525	0.0	-18.4375	-43.0	-27.4375	0.051355176	-0.16948959	-0.36668238
1277222937461	3.7864566	9.084772	2.6423476	0.3841467	0.0	-18.6875	-44.25	-25.1875	0.019005926	0.26228452	-0.39489755
1277222937491	-2.2609777	6.851035	3.759216	-1.6715155	0.0	-19.1875	-45.0	-22.4375	1.4803926	0.48035762	0.31876546
1277222937521	0.23154591	7.668256	1.4165162	-2.0052223	0.0	-19.6875	-46.5	-19.9375	1.0266061	0.18258418	-0.03018621
1277222937561	0.7218784	8.049625	0.61291564	-1.7015133	0.0	-20.1875	-48.0	-16.1875	0.90639454	0.07569289	-0.08943926
1277222937591	1.879608	8.580819	2.152015	-0.76261616	0.0	-20.9375	-48.75	-13.1875	1.5297703	0.24025321	-0.2156417
1277222937621	3.1054392	8.730643	3.5957718	0.13304043	0.0	-21.1875	-49.5	-10.375	2.8090448	0.3701539	-0.34173855
1277222937661	0.53119355	7.246025	2.7240696	-2.0472946	0.0	-21.6875	-49.75	-7.875	2.1032734	0.35871258	-0.073177375
1277222937701	2.3426998	8.049625	0.7218784	-1.3920307	0.0	-21.1875	-49.75	-6.375	1.3061533	0.085894175	-0.28320923
1277222937741	0.92618364	8.349273	2.982856	-0.89230156	0.0	-20.1875	-50.25	-4.625	2.3046143	0.34119442	-0.110478185
1277222937781	2.2201166	10.310603	-0.14982383	0.7413311	0.0	-18.9375	-51.0	-2.375	1.1871392	-0.014204506	-0.21208547
1277222937811	6.701211	12.340035	1.1168685	4.279872	0.0	-17.6875	-52.0	-1.125	-1.9003167	0.07936963	-0.49748883
1277222937851	3.445948	13.33432	1.7297841	4.073941	0.0	-17.4375	-52.5	0.125	2.6502445	0.12494373	-0.25289407
1277222937881	-1.9885708	15.4046135	5.012288	6.514488	0.0	-17.6875	-52.25	-0.875	2.1065655	0.31214857	0.12837933
1277222937911	-5.6252036	14.9006605	-0.95342433	6.148963	0.0	-18.6875	-51.5	-4.375	1.3810295	-0.059790406	0.36097264
1277222937951	-2.7513103	13.797412	-1.334794	4.3255806	0.0	-20.1875	-50.0	-8.375	1.1681701	-0.094591334	0.196826
1277222937981	2.4516625	13.33432	2.4516625	3.9710636	0.0	-21.4375	-48.75	-12.9375	1.2921854	0.17889678	-0.18183032
1277222938011	2.4108016	10.337844	0.38136974	0.81542206	0.0	-22.4375	-47.75	-16.4375	0.6468314	0.035911236	-0.22910699
1277222938051	0.040861044	7.3141265	0.9942854	-2.4251385	0.0	-23.1875	-46.5	-18.6875	1.0805541	0.13511012	-0.0055865343
1277222938091	0.08172209	5.434519	-0.61291564	-4.337067	0.0	-23.1875	-45.5	-21.4375	0.7050876	-0.11229479	-0.015036461
1277222938121	-0.3405087	4.099725	-0.29964766	-5.6819105	0.0	-22.6875	-44.25	-23.9375	0.77282465	-0.07271049	0.082866274
1277222938161	-1.4165162	2.8738933	0.27240697	-6.5910654	0.0	-21.9375	-43.25	-26.4375	1.0191059	0.08481625	0.45794427
1277222938191	-1.920469	0.7218784	0.84446156	-7.5879965	0.0	-21.1875	-42.5	-27.9375	1.0405654	0.39046544	1.2112486
1277222938221	-0.6946377	0.9942854	2.7240696	-6.8247585	0.0	-20.1875	-42.75	-26.9375	1.8212205	1.1518974	0.609806
1277222938261	4.2086873	9.575105	8.117727	3.4331827	0.0	-19.6875	-44.0	-25.1875	3.1086586	0.6600156	-0.41412544
1277222938301	4.862464	16.589584	15.745122	13.576393	0.0	-19.1875	-45.0	-22.9375	2.7913032	0.7387393	-0.28511772
1277222938341	-2.3426998	2.7921712	5.8567495	-2.9083915	0.0	-19.4375	-45.75	-22.1875	1.736894	1.0141249	0.6980875
1277222938371	-3.214402	17.352324	4.0588636	8.301632	0.0	-19.6875	-45.75	-22.9375	1.1296709	0.22606464	0.18316701
1277222938401	1.9477097	13.143636	-0.14982383	3.4813585	0.0	-19.4375	-44.75	-24.4375	0.46953318	-0.011275354	-0.1471159
1277222938441	1.607201	7.6954966	-7.5865335	1.118516	0.0	-19.4375	-44.5	-25.9375	0.18984853	-0.7675983	-0.20589007
1277222938471	-0.040861044	11.032481	-2.1383946	1.4312344	0.0	-18.6875	-45.0	-25.9375	0.5061507	-0.19145188	0.003703687
1277222938501	0.5720546	16.507862	-0.10896278	6.711481	0.0	-18.1875	-46.0	-23.9375	0.59991586	-0.0065966044	-0.034639604
1277222938541	-0.23154591	11.985906	0.6946377	2.201601	0.0	-18.1875	-47.25	-21.1875	0.8029029	0.05787901	0.01931578
1277222938581	-0.29964766	7.7772183	1.4573772	-1.8883886	0.0	-18.6875	-48.25	-16.9375	1.2031999	0.18510799	0.038509853
1277222938611	1.1168685	7.3141265	2.0294318	-2.1344643	0.0	-18.4375	-49.25	-13.1875	1.6536921	0.26770416	-0.15152968
1277222938651	1.56634	6.1700177	1.2666923	-3.3161144	0.0	-18.6875	-49.75	-10.375	1.5933725	0.19642048	-0.24861123
1277222938691	0.23154591	5.134871	2.1111538	-4.249899	0.0	-18.6875	-50.0	-7.125	2.2294805	0.3897162	-0.04506231
1277222938731	2.1111538	6.3607025	1.4982382	-2.93932	0.0	-17.9375	-50.75	-4.625	2.9990022	0.21993782	-0.32046518
1277222938771	1.920469	9.425281	3.636633	0.4767933	0.0	-16.9375	-51.75	-2.375	2.7867522	0.36145929	-0.20100567
1277222938801	4.0180025	9.956474	1.607201	1.0496302	0.0	-15.6875	-52.25	0.125	-2.5916378	0.1485896	-0.3835688
1277222938831	7.246025	9.152874	2.4108016	2.1135826	0.0	-14.625	-53.25	1.375	-2.064853	0.20364927	-0.66963893
1277222938871	1.3756552	12.571581	5.7477865	4.0848627	0.0	-14.125	-53.5	0.875	2.804211	0.42658302	-0.108992144
1277222938901	0.8036005	15.854085	-2.070293	6.202219	0.0	-14.875	-52.75	-1.125	0.98837256	-0.12968482	-0.050643943
1277222938931	-7.8180795	16.970953	-0.9125633	8.900791	0.0	-16.1875	-52.25	-4.625	1.3921081	-0.048800133	0.43169504
1277222938961	-3.0645783	16.467001	1.334794	6.996189	0.0	-17.6875	-51.5	-8.375	1.4014775	0.07952239	0.18399923
1277222938991	1.4982382	16.3989	3.445948	7.0172367	0.0	-19.1875	-50.25	-11.625	1.5177908	0.20628463	-0.09110919
1277222939031	3.1463003	13.6748295	1.920469	4.3562717	0.0	-21.1875	-49.0	-14.1875	0.9480638	0.1360174	-0.22614406
1277222939071	0.53119355	10.923519	1.3756552	1.2159567	0.0	-22.9375	-47.5	-15.9375	1.12869	0.12512936	-0.04859015
1277222939101	-0.6537767	6.932757	0.040861044	-2.8430152	0.0	-24.4375	-45.75	-18.6875	0.9986758	0.0058678086	0.094024494
1277222939131	-0.38136974	3.636633	-1.2666923	-5.936889	0.0	-25.25	-44.25	-21.6875	0.71792805	-0.33347744	0.104486994
1277222939171	-1.0760075	1.3756552	-2.070293	-7.0980835	0.0	-24.9375	-43.0	-24.4375	0.99572176	-0.87003285	0.66377914
1277222939201	-1.6480621	-0.6537767	0.08172209	-8.031767	0.0	-23.6875	-42.5	-26.9375	0.82117015	0.046059918	1.9484496
1277222939231	0.08172209	-0.19068487	1.0351465	-8.750919	0.0	-22.4375	-42.5	-27.1875	-0.8183756	1.3730022	-2.7367008
1277222939271	1.607201	5.6660647	5.7477865	-1.5771646	0.0	-20.4375	-43.5	-26.6875	2.6345134	0.77321273	-0.27639368
1277222939311	4.944186	18.959524	17.583868	16.52016	0.0	-18.9375	-44.75	-25.9375	2.639506	0.7313933	-0.25509465
1277222939341	-2.5606253	18.959524	11.454713	12.492023	0.0	-17.9375	-44.5	-26.1875	1.5266781	0.53948563	0.13424517
1277222939371	-1.4982382	4.4810944	-3.7864566	-3.75172	0.0	-16.9375	-43.5	-28.9375	0.5855782	-0.6755812	0.32266212
1277222939401	-10.038197	-12.367276	-0.42223078	6.1273756	0.0	-16.6875	-41.5	-31.1875	0.41388044	-0.02650179	2.4597738
1277222939441	4.2904096	8.771504	-7.7772183	2.6766195	0.0	-15.1875	-40.0	-33.4375	-0.07448421	-0.6725866	-0.4549142
1277222939481	3.445948	16.208214	5.6252036	7.6925964	0.0	-14.875	-40.25	-33.4375	0.3304822	0.32726464	-0.20948589
1277222939511	-0.84446156	6.1700177	1.3075534	-3.4433231	0.0	-15.4375	-41.5	-31.1875	0.7490072	0.20695686	0.13602023
1277222939551	0.88532263	11.985906	0.19068487	2.2134209	0.0	-15.1875	-43.75	-28.4375	0.40616375	0.015864536	-0.073729746
1277222939591	1.920469	10.501288	0.92618364	0.9089031	0.0	-16.6875	-45.5	-24.9375	0.37815478	0.08654156	-0.18088053
1277222939621	-0.6946377	7.273266	2.1792557	-2.182211	0.0	-16.9375	-47.25	-21.6875	1.2206105	0.28986728	0.09521681
1277222939661	-0.10896278	6.66035	1.4982382	-2.9789968	0.0	-16.6875	-49.25	-18.1875	1.1901942	0.22123712	0.01635846
1277222939701	0.08172209	6.6331096	2.1792557	-2.8242455	0.0	-17.4375	-50.25	-14.9375	1.66317	0.31740975	-0.012319705
1277222939741	0.23154591	6.0474343	0.88532263	-3.6903715	0.0	-17.1875	-51.25	-11.875	1.2988925	0.14525886	-0.038269594
1277222939781	1.8387469	7.4639506	2.8738933	-1.5998955	0.0	-16.6875	-52.0	-8.875	2.8051927	0.35777	-0.24154077
1277222939811	2.7240696	9.956474	1.7297841	0.65968037	0.0	-15.6875	-52.25	-6.125	2.7173595	0.1660331	-0.26706216
1277222939851	6.8237944	10.337844	0.6537767	2.5974865	0.0	-14.375	-53.0	-3.375	-1.5346735	0.05273078	-0.5834281
1277222939881	4.4810944	10.460427	4.399372	2.3939734	0.0	-13.375	-53.75	-1.375	-2.6930351	0.36889592	-0.4047346
1277222939921	3.5276701	11.563675	3.255263	2.7137241	0.0	-13.375	-54.25	-0.375	-2.9301052	0.26301935	-0.2960969
1277222939961	-1.3075534	11.495573	1.7570249	1.8957014	0.0	-13.875	-54.25	-1.375	1.886169	0.15071279	0.113257326
1277222939991	-6.2789803	17.62473	-0.7218784	8.917072	0.0	-14.625	-54.0	-4.875	1.3654706	-0.038563773	0.34224045
1277222940031	-4.5219555	18.727978	1.1168685	9.491863	0.0	-15.9375	-53.25	-8.375	1.3739619	0.057905644	0.23691987
1277222940089	0.313268	13.565866	2.982856	4.086812	0.0	-17.6875	-51.25	-12.6875	1.4919407	0.21637946	-0.023088267
1277222940121	-0.10896278	9.656827	1.2666923	-0.06649113	0.0	-20.1875	-49.25	-16.1875	1.1343424	0.13041782	0.011283019
1277222940151	-1.3756552	7.273266	0.6537767	-2.3756175	0.0	-22.6875	-46.75	-18.6875	1.1213372	0.08809315	0.18693042
1277222940181	-0.19068487	4.8216033	-1.4165162	-4.777661	0.0	-23.9375	-44.5	-21.9375	0.656756	-0.2855343	0.039527424
1277222940211	-0.23154591	1.9477097	-1.607201	-7.27085	0.0	-23.9375	-43.25	-24.9375	0.57336444	-0.68646175	0.118325785
1277222940241	-0.88532263	-0.29964766	-0.6537767	-8.666033	0.0	-22.6875	-41.75	-27.9375	1.4810745	-0.6103786	1.8971552
1277222940282	-0.53119355	0.0	1.4982382	-8.217032	0.0	-21.1875	-41.25	-29.4375	0.9450751	1.2300779	1.5707964
1277222940321	3.1463003	8.076866	8.62168	2.419075	0.0	-19.9375	-41.75	-29.4375	2.8561683	0.7827166	-0.37146083
1277222940361	5.134871	18.237646	14.709975	14.180054	0.0	-18.9375	-42.5	-28.6875	2.2640746	0.6601754	-0.27444857
1277222940391	-3.5957718	5.706926	8.812365	1.2909327	0.0	-18.4375	-43.75	-27.9375	1.6886282	0.9174919	0.56223804
1277222940421	-2.1383946	0.95342433	4.0180025	-5.156264	0.0	-17.6875	-43.5	-28.9375	1.2961963	1.0431902	1.1513907
1277222940461	-5.175732	11.536434	-1.0760075	2.883319	0.0	-17.1875	-43.0	-29.6875	0.80022085	-0.084893905	0.42172426
1277222940491	-0.7627395	18.155924	-0.14982383	8.365906	0.0	-16.9375	-42.75	-30.6875	0.5427217	-0.008244604	0.041985814
1277222940531	-0.42223078	5.175732	-2.1111538	-4.200988	0.0	-16.6875	-42.25	-30.9375	0.42783257	-0.38613516	0.081398696
1277222940571	0.61291564	7.5865335	-7.7363577	1.0461092	0.0	-17.1875	-43.5	-29.1875	0.25461763	-0.7935494	-0.08061486
1277222940601	2.4925237	18.196785	0.08172209	8.560232	0.0	-17.6875	-44.75	-26.4375	0.41162884	0.004449441	-0.13612889
1277222940641	0.53119355	13.211738	-0.08172209	3.4160147	0.0	-18.4375	-46.0	-23.1875	0.61476356	-0.0061804946	-0.04018454
1277222940681	-0.27240697	6.742072	0.84446156	-3.0064402	0.0	-19.6875	-47.75	-19.1875	1.0217972	0.12450309	0.04038208
1277222940721	1.920469	8.240311	1.0760075	-1.2773647	0.0	-20.6875	-49.0	-15.4375	0.80368525	0.12649152	-0.22897065
1277222940761	1.2258313	6.469665	0.14982383	-3.2201734	0.0	-22.1875	-49.75	-11.375	0.8894897	0.022749148	-0.18725392
1277222940801	1.5390993	5.053149	0.61291564	-4.4888678	0.0	-22.6875	-50.5	-7.375	1.4292446	0.11551448	-0.29565534
1277222940841	3.173541	8.349273	2.5333846	-0.52226734	0.0	-22.1875	-51.0	-3.875	2.9163163	0.27636993	-0.36323258
1277222940881	2.5606253	10.923519	2.7921712	1.7551966	0.0	-21.6875	-51.25	0.375	2.5362177	0.24391001	-0.23025651
1277222940921	5.7886477	11.75436	1.0760075	3.339878	0.0	-20.4375	-51.25	2.625	-2.5974119	0.08193893	-0.45760396
1277222940961	1.7297841	11.958665	4.630918	3.1334896	0.0	-19.4375	-51.5	4.375	2.670976	0.3659883	-0.1436506
1277222941002	2.1792557	12.258313	3.173541	3.0419588	0.0	-19.1875	-51.5	5.875	2.6631913	0.24957785	-0.17593963
1277222941041	0.27240697	11.985906	1.6889231	2.3007278	0.0	-19.4375	-51.5	3.875	2.1161728	0.13995178	-0.022723362
1277222941071	-5.6660647	16.249075	-1.7978859	7.495636	0.0	-20.1875	-51.25	0.625	1.4677528	-0.10409821	0.3355169
1277222941101	-3.7864566	16.698545	0.313268	7.318676	0.0	-21.6875	-50.25	-3.125	1.4991413	0.018293696	0.22298299
1277222941141	0.3405087	15.554437	4.630918	6.4260902	0.0	-22.4375	-49.75	-7.625	1.8886178	0.28930125	-0.021887923
1277222941181	3.1463003	10.419566	0.23154591	1.0800476	0.0	-23.6875	-48.5	-10.875	0.7265913	0.021270305	-0.2932547
1277222941221	-0.14982383	6.469665	-0.19068487	-3.3324418	0.0	-24.9375	-47.0	-13.6875	1.046436	-0.029457262	0.023153758
1277222941251	-0.42223078	3.636633	-0.61291564	-6.094637	0.0	-24.9375	-45.5	-17.6875	0.8876297	-0.1658764	0.11558734
1277222941291	-0.040861044	2.5606253	-0.29964766	-7.228228	0.0	-25.25	-43.75	-21.4375	0.7780469	-0.116476774	0.015956093
1277222941331	-1.1441092	0.88532263	-0.50395286	-8.274739	0.0	-23.6875	-43.0	-24.6875	1.0818217	-0.33521277	0.91223043
1277222941371	-0.7218784	1.2258313	1.4573772	-7.770055	0.0	-22.1875	-42.75	-26.1875	1.5710752	0.79747546	0.53220946
1277222941402	3.214402	10.269742	11.223166	5.7419653	0.0	-21.4375	-44.0	-25.1875	2.7456315	0.806416	-0.30333787
1277222941441	5.012288	18.918663	16.88923	16.044558	0.0	-20.9375	-45.0	-23.6875	2.5844636	0.7119675	-0.25898856
1277222941471	-3.255263	4.7126403	7.205164	-0.6022978	0.0	-21.1875	-45.5	-22.6875	1.7031022	0.8991523	0.6044919
1277222941501	-1.9477097	4.099725	4.7535014	-3.234201	0.0	-21.1875	-46.0	-22.6875	1.7689736	0.80849206	0.44351608
1277222941541	-4.099725	18.34661	0.3405087	8.995523	0.0	-20.9375	-45.0	-23.4375	0.926542	0.018111061	0.21984771
1277222941581	-5.8976107	10.923519	-1.4982382	2.697342	0.0	-20.9375	-44.75	-23.9375	0.9683568	-0.12010937	0.49505603
1277222941611	-1.4982382	4.440233	-5.012288	-2.9449143	0.0	-20.6875	-45.0	-22.9375	0.6805984	-0.8190091	0.325427
1277222941651	2.6832085	10.310603	-7.3141265	3.116376	0.0	-20.1875	-46.25	-20.9375	0.171778	-0.601617	-0.25459078
1277222941691	6.742072	12.789507	3.1054392	4.980871	0.0	-19.6875	-48.5	-17.1875	-0.72537374	0.21157908	-0.48513606
1277222941731	-2.4108016	6.5922484	3.9090397	-1.7723303	0.0	-19.6875	-49.75	-12.375	1.8088169	0.5081281	0.3505946
1277222941771	2.9147544	8.158588	0.50395286	-1.1283827	0.0	-19.9375	-51.0	-8.375	0.30245206	0.058103364	-0.3431297
1277222941801	0.040861044	8.730643	2.0294318	-0.8431473	0.0	-21.1875	-51.25	-3.625	1.9395621	0.22839096	-0.004680153
1277222941831	-0.6946377	8.771504	2.8330324	-0.5628481	0.0	-22.4375	-51.25	-0.125	2.0871637	0.31149194	0.07902761
1277222941871	1.56634	8.049625	1.1168685	-1.5303411	0.0	-22.4375	-51.5	2.125	2.233187	0.13536064	-0.19218388
1277222941903	3.255263	9.275456	2.2201166	0.27103615	0.0	-21.6875	-51.25	5.125	2.941669	0.22212225	-0.3375249
1277222941941	2.3426998	12.762266	3.1463003	3.5448618	0.0	-20.4375	-51.5	6.875	2.6353958	0.23788862	-0.18154347
1277222941981	4.140586	11.795221	0.84446156	2.7227077	0.0	-19.1875	-51.75	7.625	3.0567284	0.06744976	-0.33760038
1277222942021	4.5628166	13.484144	0.313268	4.4320145	0.0	-18.1875	-52.25	8.375	3.0915625	0.022002995	-0.32628912
1277222942061	-0.19068487	13.33432	2.7649305	3.8126488	0.0	-18.9375	-52.5	7.625	2.3133707	0.2044367	0.014299332
1277222942101	-3.5957718	12.367276	-1.879608	3.2091875	0.0	-19.6875	-52.25	4.125	1.5001559	-0.14491598	0.28294808
1277222942141	-5.434519	14.1787815	0.95342433	5.4078445	0.0	-21.1875	-51.5	-0.125	1.6338687	0.06270661	0.36601466
1277222942181	-1.6480621	12.53072	1.5390993	2.9253511	0.0	-21.9375	-50.75	-5.125	1.59368	0.12118069	0.13077116
1277222942221	0.95342433	7.8589406	-0.08172209	-1.8896656	0.0	-22.1875	-50.25	-10.625	0.96070045	-0.01032256	-0.12072718
1277222942251	2.7921712	5.284695	-0.14982383	-3.8277984	0.0	-22.1875	-49.5	-14.6875	-0.21523243	-0.025061585	-0.48606995
1277222942291	1.334794	3.8273177	0.313268	-5.7411647	0.0	-21.4375	-48.75	-17.6875	0.29990995	0.07713196	-0.33556473
1277222942331	-0.23154591	3.405087	0.53119355	-6.3526096	0.0	-21.4375	-47.75	-21.1875	1.0590373	0.15440176	0.06789548
1277222942371	-1.525479	2.0294318	0.53119355	-7.212841	0.0	-20.9375	-46.75	-23.4375	1.1915712	0.20625207	0.6445741
1277222942402	-0.27240697	2.4516625	2.8330324	-6.0501986	0.0	-20.4375	-46.5	-23.4375	2.1801662	0.8544012	0.11065722
1277222942441	2.4108016	9.112013	11.073342	4.7350025	0.0	-20.4375	-46.75	-22.4375	2.8255365	0.8656108	-0.25864765
1277222942481	3.718355	18.768839	14.47843	14.187525	0.0	-20.4375	-47.25	-20.1875	2.4906971	0.64777595	-0.19558068
1277222942511	-3.7864566	9.80665	8.62168	3.7889748	0.0	-20.6875	-47.75	-18.1875	1.824408	0.68691003	0.36847615
1277222942551	-2.3699405	14.2877445	0.27240697	4.678876	0.0	-20.9375	-47.5	-18.4375	1.0160017	0.018806567	0.16437565
1277222942591	-5.366417	4.7126403	-1.8387469	-2.4318013	0.0	-20.4375	-47.0	-19.4375	1.1349552	-0.25198495	0.8501723
1277222942621	0.5720546	9.302697	-5.47538	1.0029392	0.0	-20.4375	-46.75	-19.9375	0.3999979	-0.53115535	-0.061416082
1277222942661	2.6832085	13.252599	-3.173541	4.082279	0.0	-19.9375	-47.5	-18.9375	0.32542002	-0.23053077	-0.19976616
1277222942701	1.9885708	10.800936	2.2201166	1.3979712	0.0	-19.6875	-49.0	-15.6875	1.1165938	0.19946294	-0.18207203
1277222942741	-2.6423476	7.43671	2.6423476	-1.4838705	0.0	-19.9375	-50.5	-10.875	1.6456257	0.32307482	0.3413987
1277222942781	2.2201166	8.62168	-0.46309182	-0.8916769	0.0	-20.4375	-51.5	-6.375	0.64578676	-0.051968787	-0.2520286
1277222942821	0.19068487	7.3958488	1.8387469	-2.18327	0.0	-20.9375	-52.0	-2.125	2.0670075	0.24360052	-0.025776979
1277222942861	1.7297841	7.7363577	1.4165162	-1.7537069	0.0	-20.9375	-52.0	1.625	2.4656355	0.17682038	-0.21997344
1277222942891	1.5390993	8.390134	2.3018389	-0.97140026	0.0	-20.4375	-51.75	4.375	2.6133254	0.2635701	-0.1814245
1277222942921	2.3699405	9.915613	2.6832085	0.7354374	0.0	-18.6875	-51.5	7.375	2.8541758	0.2573549	-0.23460962
1277222942961	2.5606253	11.413852	1.7978859	2.028265	0.0	-16.9375	-51.75	9.625	2.8566475	0.15250416	-0.22068964
1277222942991	6.4424243	11.141444	1.3756552	3.136651	0.0	-15.4375	-51.75	11.125	-2.4958959	0.106484294	-0.5242655
1277222943021	2.8330324	12.108489	3.214402	3.037569	0.0	-14.875	-51.5	11.875	3.0315256	0.25294942	-0.22983637
1277222943061	-0.8036005	12.680544	2.982856	3.2447634	0.0	-15.6875	-51.75	11.375	2.4454644	0.23058449	0.063288085
1277222943101	-3.1463003	15.595298	-0.50395286	6.11084	0.0	-17.1875	-51.0	8.625	1.8301201	-0.031665612	0.19907454
1277222943141	-3.636633	15.241169	-0.88532263	5.8873653	0.0	-18.6875	-51.0	4.375	1.6311707	-0.056441445	0.23422639
1277222943201	2.4108016	11.604536	-0.0	2.045658	0.0	-19.6875	-50.75	0.375	1.6126564	-0.0	-0.2048329
1277222943241	1.7570249	7.43671	0.23154591	-2.1616912	0.0	-20.6875	-50.5	-4.625	1.233314	0.03029203	-0.23200922
1277222943281	-0.14982383	4.862464	-1.1849703	-4.799639	0.0	-20.9375	-50.25	-8.875	0.8348126	-0.23892902	0.03080258
1277222943321	-1.4573772	3.9499009	-1.0351465	-5.471077	0.0	-21.1875	-49.25	-12.9375	1.0366007	-0.24108516	0.3534697
1277222943361	-2.4516625	1.607201	-0.0	-6.875141	0.0	-21.9375	-48.75	-16.9375	1.2603672	-0.0	0.99052554
1277222943391	-1.607201	1.4165162	1.7978859	-7.009865	0.0	-21.4375	-48.25	-19.1875	1.4811525	0.69820035	0.8483778
1277222943421	0.88532263	6.5922484	5.829509	-0.9621773	0.0	-20.9375	-48.0	-19.6875	2.4784737	0.71963894	-0.13349876
1277222943461	3.6774938	17.856276	16.86199	15.026739	0.0	-21.1875	-48.5	-18.1875	2.6755123	0.74640614	-0.20310979
1277222943491	0.95342433	10.310603	8.689782	3.711111	0.0	-20.9375	-49.25	-17.1875	2.447424	0.6982025	-0.09220806
1277222943531	-1.9477097	1.0351465	5.407278	-3.9668078	0.0	-21.4375	-48.75	-17.1875	1.5174549	1.1834873	1.0822918
1277222943571	-4.630918	18.305748	0.61291564	9.085716	0.0	-21.9375	-48.5	-17.6875	1.113289	0.032448195	0.2477778
