#timestamp	accel_x	accel_y	accel_z	accel_mag	temperature	mag_x	mag_y	mag_z	azimuth	pitch	roll
1277224642631	4.0180025	0.14982383	8.62168	-0.29349232	0.0	-5.5625	-2.5	-55.5625	-0.1241289	1.1344221	-1.5335255
1277224642663	3.9499009	0.38136974	8.689782	-0.25366783	0.0	-5.8125	-3.0	-55.8125	-0.13660781	1.1424185	-1.474543
1277224642701	3.9090397	0.3405087	8.689782	-0.27203655	0.0	-5.3125	-3.5	-55.5625	-0.16869737	1.1466569	-1.4839076
1277224642731	3.9090397	0.313268	8.771504	-0.19842339	0.0	-5.0625	-4.25	-55.5625	-0.21249826	1.1503724	-1.4908278
1277224642761	3.990762	0.27240697	8.730643	-0.20328999	0.0	-5.5625	-4.25	-55.3125	-0.21442802	1.1411755	-1.5026426
1277224642801	4.0180025	0.313268	8.771504	-0.15357971	0.0	-5.5625	-4.5	-55.3125	-0.2247131	1.1400995	-1.4929876
1277224642841	4.0588636	0.313268	8.771504	-0.13650036	0.0	-5.8125	-4.8125	-55.5625	-0.23975962	1.1362715	-1.4937679
1277224642881	4.0180025	0.313268	8.689782	-0.22777843	0.0	-6.0625	-4.8125	-56.0625	-0.2388992	1.1365377	-1.4929876
1277224642922	3.9499009	0.46309182	8.662541	-0.27481937	0.0	-6.0625	-4.8125	-56.3125	-0.2285425	1.1404023	-1.4540877
1277224642961	3.9499009	0.46309182	8.689782	-0.25005627	0.0	-6.3125	-4.8125	-56.0625	-0.23200448	1.1415915	-1.4540877
1277224643003	4.0180025	0.313268	8.771504	-0.15357971	0.0	-6.5625	-4.5	-56.3125	-0.22658072	1.1400995	-1.4929876
1277224643041	3.8273177	0.19068487	8.662541	-0.3343563	0.0	-6.8125	-4.8125	-56.0625	-0.26847106	1.1543039	-1.5210154
1277224643081	4.0180025	0.42223078	8.499097	-0.396163	0.0	-6.8125	-5.5625	-55.8125	-0.27146485	1.1270548	-1.4660958
1277224643122	4.1814466	0.84446156	8.662541	-0.15070724	0.0	-7.0	-6.5625	-55.8125	-0.2832909	1.1132073	-1.3715222
1277224643161	3.990762	1.1849703	8.430995	-0.40388393	0.0	-7.0	-7.3125	-55.3125	-0.29343143	1.1121452	-1.2821599
1277224643201	3.8681788	0.88532263	8.117727	-0.7709379	0.0	-6.5625	-8.625	-55.3125	-0.39159468	1.1161236	-1.3457984
1277224643232	3.3778462	0.92618364	8.430995	-0.6770649	0.0	-6.0625	-9.125	-55.0625	-0.48988497	1.1770562	-1.30318
1277224643271	2.9147544	1.5390993	9.112013	-0.11678982	0.0	-4.5625	-10.625	-55.0625	-0.61564046	1.2237039	-1.0849712
1277224643311	2.8738933	2.7240696	8.962189	-0.008658409	0.0	-2.375	-12.9375	-54.5	-0.5622874	1.1547563	-0.8121557
1277224643341	2.7649305	3.336985	8.539958	-0.2300539	0.0	0.0625	-14.75	-54.0	-0.5829961	1.1012043	-0.69192135
1277224643371	1.920469	3.336985	8.662541	-0.32702446	0.0	2.25	-16.25	-53.75	-0.7888748	1.1525589	-0.52221763
1277224643411	1.1849703	2.8738933	9.00305	-0.28203392	0.0	4.0	-16.5	-53.0	-1.162535	1.2383298	-0.39108372
1277224643452	0.9942854	3.173541	8.730643	-0.4640541	0.0	5.9375	-18.0625	-52.5	-1.2049153	1.2068479	-0.30361784
1277224643503	0.3405087	4.862464	7.9679036	-0.4660406	0.0	8.875	-21.125	-49.6875	-0.8832893	1.0217813	-0.06991387
1277224643542	-0.19068487	5.09401	7.7772183	-0.5077028	0.0	12.5	-25.9375	-46.625	-1.2766217	0.99059945	0.037415687
1277224643583	-0.23154591	5.434519	8.689782	0.44517517	0.0	16.4375	-30.3125	-43.0625	-1.7927814	1.0115075	0.04258076
1277224643621	-0.95342433	6.742072	6.6331096	-0.3007202	0.0	19.375	-33.875	-38.9375	-1.3930987	0.7723027	0.14048263
1277224643651	-0.8036005	6.66035	5.5571017	-1.0953121	0.0	21.3125	-35.875	-36.1875	-1.3650408	0.6917891	0.12007398
1277224643681	-1.0760075	8.049625	5.8567495	0.20613003	0.0	23.0625	-36.9375	-32.8125	-1.3831546	0.62479055	0.13288403
1277224643711	-1.4165162	8.689782	5.7886477	0.73029804	0.0	25.0	-37.9375	-30.5625	-1.4233748	0.5816061	0.16158816
1277224643751	-2.4516625	8.430995	5.366417	0.4836731	0.0	27.4375	-37.1875	-28.5	-1.464677	0.5486095	0.28298745
1277224643781	-1.6889231	8.076866	3.990762	-0.64071274	0.0	30.375	-35.875	-27.25	-1.2867713	0.450472	0.20613603
1277224643811	-3.7864566	8.19945	3.568531	-0.095695496	0.0	33.3125	-33.875	-26.75	-1.0862231	0.37629238	0.4326184
1277224643851	-5.7477865	8.117727	3.990762	0.9106598	0.0	36.0	-30.3125	-27.0	-0.9717602	0.38155708	0.6161107
1277224643892	-4.0180025	5.7477865	5.706926	-0.76505756	0.0	38.4375	-24.4375	-28.25	-1.8294454	0.68308127	0.61008954
1277224643922	-2.1792557	0.23154591	4.7943625	-4.535153	0.0	39.6875	-16.0	-30.5625	2.6990395	1.1420505	1.4649434
1277224643961	-5.284695	-0.10896278	6.4424243	-1.4733009	0.0	39.4375	-7.0625	-33.625	2.4251037	0.8836975	1.591412
1277224643991	-3.636633	0.313268	7.3141265	-1.6323195	0.0	38.4375	0.5625	-35.625	-2.9339108	1.1079105	1.4848661
1277224644021	-7.4639506	1.1168685	9.724928	2.503191	0.0	37.25	4.9375	-37.6875	-2.0514572	0.91082937	1.4222634
1277224644051	-7.5456724	1.1441092	9.507003	2.3847094	0.0	36.0	6.1875	-38.6875	-1.8104864	0.8943699	1.4203179
1277224644082	-5.366417	0.7627395	9.043911	0.73718834	0.0	35.75	7.4375	-38.9375	-2.2219472	1.0308644	1.42961
1277224644121	-6.5513873	-0.7627395	9.343558	1.630331	0.0	35.5	9.0	-39.5	-2.5289736	0.95612013	1.6866987
1277224644162	-6.6331096	1.1168685	5.284695	-1.2524967	0.0	35.75	11.3125	-38.1875	-1.0675483	0.66593283	1.4039832
1277224644201	-6.742072	-0.23154591	7.273266	0.113508224	0.0	35.75	14.125	-36.9375	-1.6814742	0.8229871	1.6051263
1277224644241	-7.3958488	-1.1168685	7.504812	0.7890177	0.0	35.75	15.875	-35.875	-1.7043327	0.78707373	1.7206768
1277224644281	-6.5513873	-0.29964766	6.4424243	-0.61343	0.0	36.5	16.875	-34.375	-1.6737721	0.7764903	1.6165025
1277224644321	-6.2789803	0.42223078	5.8567495	-1.2098255	0.0	36.5	17.4375	-33.875	-1.5312955	0.7494947	1.5036523
1277224644351	-8.499097	0.42223078	5.2165933	0.17462063	0.0	37.25	17.125	-32.8125	-1.1285559	0.5499425	1.5211576
1277224644392	-8.19945	1.0351465	5.5571017	0.1524601	0.0	38.1875	17.125	-31.8125	-1.2825499	0.59196377	1.4452149
1277224644432	-7.43671	0.10896278	6.5513873	0.10481739	0.0	38.9375	17.125	-31.3125	-1.6873702	0.7221381	1.5561453
1277224644475	-8.008764	1.1441092	5.366417	-0.09852409	0.0	39.9375	16.625	-31.0625	-1.3341849	0.58569145	1.4288993
1277224644511	-9.043911	1.2258313	4.2495484	0.26080513	0.0	39.9375	16.625	-31.0625	-1.3341849	0.58569145	1.4288993
1277224644553	-8.853226	-0.3405087	6.5513873	1.2122536	0.0	39.1875	16.375	-32.3125	-1.4155821	0.63671696	1.6092389
1277224644591	-5.434519	-1.6480621	7.6954966	-0.24261475	0.0	37.25	17.4375	-33.375	-2.715196	0.93504983	1.8652395
1277224644631	-6.0882955	-1.4165162	8.008764	0.35278702	0.0	35.0	18.6875	-34.875	-2.2766387	0.90805393	1.7993916
1277224644671	-6.1700177	-1.607201	8.158588	0.54780674	0.0	32.8125	19.9375	-36.4375	-2.1064374	0.90744025	1.8256192
1277224644711	-5.47538	-1.2666923	7.8589406	-0.14501286	0.0	31.125	21.25	-36.9375	-2.047925	0.95000273	1.7981402
1277224644782	-5.366417	-0.95342433	7.9679036	-0.15289783	0.0	30.375	21.5	-37.9375	-1.952759	0.9708547	1.7466266
1277224644822	-5.706926	-0.8036005	7.4639506	-0.37662697	0.0	29.375	21.5	-38.6875	-1.6723504	0.9132746	1.710688
1277224644861	-5.012288	-0.3405087	7.8180795	-0.51356983	0.0	28.1875	21.0	-40.0	-1.7389549	0.999646	1.6386269
1277224644891	-4.5900574	-0.27240697	7.8861814	-0.67786694	0.0	26.4375	20.1875	-41.75	-1.7204609	1.0429243	1.630074
1277224644931	-4.440233	0.040861044	6.701211	-1.7677717	0.0	24.0	18.9375	-44.0625	-1.3411516	0.9855938	1.5615941
1277224644961	-3.0237172	0.040861044	8.962189	-0.34803677	0.0	20.8125	17.6875	-46.375	-1.8248528	1.2453749	1.5572836
1277224644997	-2.4925237	0.19068487	10.147159	0.64389324	0.0	17.4375	16.125	-48.9375	-1.7956504	1.329251	1.4944423
1277224645035	-2.1111538	0.84446156	7.8180795	-1.6646328	0.0	14.0	14.625	-51.1875	-1.212635	1.2877678	1.19029
1277224645102	-0.9942854	0.5720546	11.795221	2.044219	0.0	10.5625	13.5625	-53.25	-1.4092749	1.4738497	1.0487047
1277224645141	-2.2609777	0.3405087	9.724928	0.18345451	0.0	8.875	12.5625	-54.25	-1.1780028	1.3398753	1.4213173
1277224645208	-2.070293	0.10896278	10.079058	0.48341274	0.0	8.875	12.0625	-54.25	-1.3453339	1.3679358	1.5182133
1277224645261	-2.1111538	1.4573772	9.302697	-0.15672302	0.0	10.8125	11.5625	-53.5	-0.9178322	1.3017218	0.9665948
1277224645291	-3.405087	-0.10896278	10.528529	1.2593527	0.0	15.6875	11.3125	-51.4375	-1.517758	1.2578484	1.6027855
1277224645333	-3.255263	-0.23154591	9.915613	0.6322069	0.0	20.8125	10.75	-48.9375	-2.0785446	1.252837	1.6418065
1277224645371	-5.09401	0.88532263	7.1234417	-1.0045958	0.0	27.1875	9.5	-45.3125	-1.1509845	0.9429477	1.3987184
1277224645411	-7.8589406	2.1792557	5.7886477	0.19437695	0.0	32.8125	8.5	-40.75	-0.8069423	0.6172629	1.3002964
1277224645444	-5.6660647	3.0237172	5.09401	-1.6093283	0.0	37.0	5.9375	-36.6875	-1.1479521	0.6705585	1.0805895
1277224645487	-6.510526	1.9885708	5.9793324	-0.746088	0.0	40.1875	3.375	-32.8125	-1.5748446	0.72072494	1.2743568
1277224645529	-9.152874	2.9147544	5.8567495	1.4437904	0.0	41.875	1.875	-30.8125	-1.1881733	0.54752964	1.2624979
1277224645561	-7.5456724	3.1463003	5.09401	-0.17413712	0.0	43.3125	0.0625	-29.8125	-1.326228	0.5572273	1.1757488
1277224645591	-7.5865335	2.6423476	6.0201936	0.2322855	0.0	43.8125	-1.1875	-29.0	-1.7083185	0.64310676	1.2356417
1277224645632	-7.8861814	2.4108016	6.6331096	0.77644825	0.0	44.3125	-1.75	-29.0	-1.9337103	0.67739385	1.2741189
1277224645671	-7.43671	3.8273177	5.8976107	0.42735386	0.0	44.0625	-2.25	-28.5	-1.5641423	0.61416453	1.0954959
1277224645701	-7.3549876	2.6423476	5.175732	-0.4329605	0.0	43.8125	-3.25	-27.75	-1.5909619	0.58494705	1.2258966
1277224645741	-4.7126403	2.070293	4.4810944	-2.982041	0.0	43.8125	-3.5	-27.5	-1.9955733	0.7163129	1.1568707
1277224645777	-7.7363577	5.597963	4.7943625	0.8785887	0.0	44.0625	-4.8125	-27.25	-1.2589425	0.46529922	0.94441193
1277224645831	-6.782933	5.284695	4.862464	0.071596146	0.0	44.8125	-5.5625	-26.75	-1.3912948	0.5146608	0.9089196
1277224645870	-6.3607025	3.486809	5.175732	-0.89572525	0.0	45.0625	-4.5	-27.5	-1.6732913	0.61974794	1.0693517
1277224645901	-7.6546354	3.1463003	5.8976107	0.3557539	0.0	44.5625	-3.25	-27.5	-1.7302555	0.6191414	1.1808159
1277224645931	-7.3141265	2.152015	6.238119	0.044326782	0.0	43.5625	0.0625	-28.5	-1.9125713	0.68574375	1.284644
1277224645971	-7.04172	0.8036005	7.5456724	0.5455847	0.0	42.625	3.625	-30.0625	-2.4402907	0.81670374	1.457168
1277224646011	-7.1234417	-0.38136974	7.014479	0.19793797	0.0	40.875	6.4375	-30.8125	-2.5895083	0.7769758	1.6242826
1277224646051	-5.938472	-0.38136974	7.1234417	-0.5247154	0.0	39.9375	9.25	-31.8125	-2.5818353	0.8748577	1.6349285
1277224646091	-6.0882955	0.313268	7.246025	-0.33720684	0.0	40.1875	10.0	-32.5625	-2.2308319	0.8713531	1.5193875
1277224646131	-6.891896	1.1441092	7.668256	0.56684303	0.0	39.9375	9.5	-33.125	-1.9128315	0.8319061	1.4062886
1277224646171	-6.0882955	0.53119355	7.5865335	-0.064730644	0.0	40.375	8.75	-33.875	-2.2303426	0.8926731	1.4837683
1277224646211	-5.938472	0.6537767	6.932757	-0.65482044	0.0	40.875	6.6875	-34.125	-2.1912582	0.8595162	1.4611461
1277224646251	-5.6252036	0.6537767	7.43671	-0.45919132	0.0	40.625	4.625	-33.375	-2.4607017	0.9199747	1.4550927
1277224646291	-7.014479	1.879608	7.4639506	0.60711	0.0	41.125	2.375	-32.8125	-1.9495668	0.799115	1.3089858
1277224646331	-7.1234417	2.3699405	8.076866	1.2203989	0.0	41.375	-0.4375	-31.8125	-2.0882869	0.8219275	1.2496195
1277224646371	-5.706926	2.6014864	6.0201936	-1.1130047	0.0	41.625	-3.0	-30.8125	-1.893494	0.7649238	1.1430905
1277224646402	-4.944186	2.152015	5.9793324	-1.7550316	0.0	41.875	-5.5625	-30.0625	-2.283186	0.83698136	1.1602662
1277224646441	-7.3549876	5.829509	5.6252036	1.1351013	0.0	42.125	-9.125	-28.75	-1.324833	0.53996325	0.9005884
1277224646481	-5.7886477	7.205164	4.6036777	0.51888466	0.0	42.125	-12.9375	-28.5	-1.212933	0.46212775	0.6768123
1277224646522	-4.1814466	5.6252036	4.944186	-1.2292156	0.0	41.625	-17.3125	-28.5	-1.528956	0.6143382	0.63922596
1277224646561	-5.8567495	4.5219555	6.5513873	0.07617664	0.0	40.625	-20.625	-29.25	-2.3113937	0.72469383	0.913305
1277224646601	-6.0201936	2.8330324	5.2165933	-1.3519688	0.0	39.1875	-21.875	-29.8125	2.5004833	0.6649331	1.1309538
1277224646641	-4.099725	2.4516625	5.175732	-2.7634554	0.0	38.4375	-22.375	-29.8125	-3.0995445	0.82545394	1.0318439
1277224646699	-4.8216033	3.8273177	7.0553403	-0.4432087	0.0	37.9375	-21.875	-29.5	-2.6881433	0.85336745	0.8998563
1277224646741	-3.7864566	4.099725	-0.14982383	-4.2238693	0.0	38.9375	-22.375	-26.75	-0.4485581	-0.026839998	0.74569535
1277224646771	-5.243834	6.510526	4.9850473	-0.07343674	0.0	40.375	-23.375	-24.6875	-1.6357352	0.5377079	0.67804885
1277224646802	-5.8158884	6.782933	4.5219555	0.20738125	0.0	40.875	-24.1875	-22.625	-1.5785795	0.46851516	0.7087916
1277224646841	-6.0201936	6.5513873	4.903325	0.35238552	0.0	41.625	-24.6875	-21.375	-1.8265957	0.5036854	0.7431697
1277224646871	-5.6660647	5.325556	4.6036777	-0.7700758	0.0	42.125	-24.1875	-22.125	-1.9926544	0.5345448	0.8163672
1277224646901	-5.8567495	5.325556	4.2495484	-0.8221235	0.0	41.125	-23.6875	-23.375	-1.7015718	0.4926759	0.8328656
1277224646941	-6.238119	5.706926	4.399372	-0.27577305	0.0	41.125	-22.125	-24.4375	-1.5027983	0.47978848	0.8298387
1277224646972	-5.706926	6.0882955	5.325556	0.09273815	0.0	40.625	-22.125	-25.4375	-1.7204324	0.5680249	0.75307685
1277224647011	-4.671779	5.938472	5.012288	-0.73945713	0.0	38.9375	-22.375	-27.5	-1.57756	0.58571315	0.6665767
1277224647051	-4.630918	5.706926	5.243834	-0.77823925	0.0	38.1875	-22.125	-29.0	-1.5928878	0.61972916	0.68168724
1277224647091	-4.440233	5.829509	5.053149	-0.9053488	0.0	36.75	-23.375	-31.3125	-1.4012328	0.60369295	0.6509359
1277224647131	-4.0180025	6.238119	5.366417	-0.6493082	0.0	34.0625	-23.6875	-34.375	-1.2430942	0.62614256	0.5722198
1277224647171	-2.982856	6.6331096	6.8237944	0.16630077	0.0	30.875	-23.9375	-37.4375	-1.3717498	0.7535476	0.4225977
1277224647211	-2.2201166	6.66035	6.2789803	-0.3877983	0.0	26.6875	-24.6875	-39.75	-1.1239997	0.7296914	0.32175055
1277224647251	-1.0760075	6.973618	6.510526	-0.20581245	0.0	22.3125	-26.4375	-42.0	-1.0291343	0.7452024	0.1530896
1277224647291	-0.29964766	7.43671	6.3198414	-0.04269409	0.0	18.125	-28.75	-43.0625	-0.8890149	0.70398754	0.040271256
1277224647331	-0.10896278	7.5865335	6.1291566	-0.052988052	0.0	14.5	-31.3125	-43.0625	-0.79823804	0.6794887	0.01436167
1277224647372	-0.46309182	7.273266	5.8976107	-0.43132877	0.0	11.8125	-34.375	-42.8125	-0.70760053	0.68033946	0.06358458
1277224647411	-0.61291564	8.19945	4.903325	-0.23328972	0.0	10.0625	-36.4375	-41.25	-0.41896126	0.5377261	0.074612066
1277224647451	-0.7218784	8.853226	3.405087	-0.293746	0.0	10.3125	-38.4375	-38.9375	-0.30987862	0.36606508	0.08135848
1277224647491	-1.3075534	8.730643	2.982856	-0.4883213	0.0	11.3125	-40.5	-36.6875	-0.23789646	0.32584172	0.14866108
1277224647531	-1.525479	9.084772	3.486809	0.043121338	0.0	12.5	-42.0	-34.875	-0.30239147	0.3618435	0.16636404
1277224647571	-1.4573772	9.00305	3.0237172	-0.19823074	0.0	13.0	-43.0625	-33.375	-0.32526588	0.32013482	0.16048385
1277224647611	-1.334794	8.894087	2.7921712	-0.38950253	0.0	13.5	-43.3125	-32.5625	-0.37081218	0.30102432	0.14896482
1277224647651	-1.4165162	8.730643	3.1054392	-0.4325161	0.0	14.0	-43.3125	-32.3125	-0.41593927	0.33765712	0.16084489
1277224647691	-1.4982382	8.894087	3.255263	-0.21778965	0.0	14.25	-42.8125	-32.0625	-0.43278244	0.34636807	0.16688651
1277224647731	-1.7978859	9.275456	3.336985	0.21342754	0.0	15.25	-42.8125	-32.3125	-0.41465053	0.33951506	0.1914584
1277224647761	-1.9477097	8.499097	3.173541	-0.5276642	0.0	15.9375	-42.5625	-33.125	-0.36611715	0.34905908	0.22527677
1277224647791	-1.7570249	8.349273	3.2961242	-0.65996075	0.0	16.4375	-42.5625	-32.5625	-0.47754356	0.36865652	0.20741402
1277224647831	-1.7978859	8.62168	3.0645783	-0.48155499	0.0	16.6875	-42.8125	-32.8125	-0.44092777	0.33486086	0.20558463
1277224647871	-1.7570249	8.499097	3.173541	-0.5658083	0.0	16.6875	-42.8125	-33.125	-0.45842442	0.35056186	0.203859
1277224647901	-1.7297841	8.308413	3.173541	-0.74611855	0.0	16.6875	-42.8125	-32.5625	-0.47976032	0.35784858	0.20526443
1277224647931	-1.7570249	8.430995	3.255263	-0.5998297	0.0	16.9375	-42.5625	-33.125	-0.48377824	0.36138576	0.20545991
1277224647961	-1.8387469	8.539958	3.336985	-0.45532227	0.0	17.1875	-42.3125	-33.375	-0.48111618	0.36488956	0.21207339
1277224647991	-1.7978859	8.430995	3.2961242	-0.5774307	0.0	17.4375	-42.5625	-32.8125	-0.51398754	0.36520427	0.21010017
1277224648031	-1.7570249	8.430995	3.2961242	-0.5853033	0.0	17.4375	-42.5625	-33.125	-0.5164155	0.3655307	0.20545991
1277224648071	-1.8387469	8.580819	3.255263	-0.44672585	0.0	17.1875	-42.3125	-32.8125	-0.48349574	0.35521007	0.21109334
1277224648111	-1.7978859	8.662541	3.255263	-0.37962723	0.0	16.9375	-42.0	-32.3125	-0.49428406	0.3525711	0.2046418
1277224648191	-1.7978859	8.580819	3.255263	-0.4546671	0.0	17.6875	-41.25	-32.5625	-0.5270787	0.35552508	0.20653607
1277224648231	-1.7570249	8.390134	3.336985	-0.6079025	0.0	17.4375	-41.25	-33.125	-0.5233465	0.3712335	0.20643242
1277224648271	-1.920469	8.390134	3.405087	-0.55045414	0.0	17.6875	-41.5	-33.625	-0.49086088	0.37671855	0.22501971
1277224648311	-2.070293	8.539958	3.445948	-0.36781788	0.0	17.6875	-41.25	-32.8125	-0.47886297	0.3737209	0.23783594
1277224648351	-2.1792557	8.662541	3.255263	-0.2995205	0.0	17.4375	-41.5	-33.125	-0.403702	0.34947258	0.24645795
1277224648391	-2.1383946	8.62168	3.405087	-0.2934637	0.0	18.375	-41.5	-32.5625	-0.4986672	0.3660537	0.24311922
1277224648431	-2.2609777	8.580819	3.2961242	-0.3405571	0.0	18.875	-41.5	-32.0625	-0.48962247	0.3556537	0.25763622
1277224648472	-2.3699405	8.539958	3.255263	-0.36502743	0.0	19.125	-41.25	-32.3125	-0.46182317	0.35200217	0.27070007
1277224648511	-2.3018389	8.539958	3.214402	-0.39592552	0.0	19.625	-41.5	-32.3125	-0.4993672	0.34858468	0.26328072
1277224648551	-2.3699405	8.62168	3.173541	-0.3186922	0.0	19.875	-41.25	-32.0625	-0.49767935	0.34105438	0.26825604
1277224648591	-2.4516625	8.580819	3.214402	-0.32121468	0.0	19.875	-41.0	-32.3125	-0.47679296	0.34572366	0.27829966
1277224648621	-2.3426998	8.539958	3.405087	-0.31909275	0.0	19.875	-40.75	-32.0625	-0.5417604	0.36708942	0.26773593
1277224648651	-2.3018389	8.430995	3.405087	-0.42716408	0.0	19.375	-39.75	-31.5625	-0.5425866	0.37152365	0.26652542
1277224648691	-2.2609777	8.349273	3.214402	-0.5787163	0.0	18.875	-40.25	-32.0625	-0.47954947	0.35579306	0.26445675
1277224648741	-2.2201166	8.281172	3.1054392	-0.6879616	0.0	19.125	-40.25	-32.3125	-0.48021585	0.34750995	0.2619327
1277224648771	-2.3018389	8.308413	3.173541	-0.6197281	0.0	19.125	-40.75	-32.0625	-0.47288707	0.35270885	0.27027032
1277224648811	-2.3426998	8.390134	3.255263	-0.5072241	0.0	19.125	-41.25	-32.3125	-0.46621746	0.35762435	0.27228597
1277224648851	-2.1792557	8.499097	3.255263	-0.44820213	0.0	19.375	-41.0	-32.3125	-0.5254276	0.35526857	0.2510027
1277224648891	-2.1383946	8.390134	3.0237172	-0.6355028	0.0	19.375	-41.25	-32.0625	-0.50554913	0.33598462	0.24955705
1277224648931	-2.4108016	8.499097	2.6014864	-0.5971794	0.0	18.875	-41.25	-32.5625	-0.35582814	0.28637785	0.2763937
1277224648971	-4.1814466	8.853226	3.568531	0.61441135	0.0	18.375	-41.5	-33.125	0.07099678	0.34950683	0.44124937
1277224649011	-1.9477097	10.310603	5.366417	1.9789572	0.0	17.1875	-41.0	-34.125	-0.7197063	0.4727501	0.1867035
1277224649051	-3.6774938	12.176591	5.7477865	4.151515	0.0	15.0	-39.75	-35.875	-0.18599136	0.42441383	0.29330292
1277224649091	-3.5957718	12.721405	6.1291566	4.764908	0.0	13.0	-37.4375	-39.75	-0.11924152	0.43413377	0.27546918
1277224649131	-2.7513103	10.61025	7.9679036	3.7445345	0.0	9.8125	-33.125	-43.5625	-0.079099946	0.6285664	0.25371864
1277224649171	-1.4165162	7.014479	8.894087	1.6088753	0.0	5.1875	-27.75	-47.625	0.051867433	0.893264	0.19926192
1277224649211	-0.6946377	4.0588636	6.469665	-2.1376567	0.0	0.5625	-20.875	-51.1875	0.28714198	1.0039773	0.16949883
1277224649241	1.1441092	1.4982382	3.9090397	-5.4668007	0.0	-5.0625	-14.75	-53.0	-0.47029305	1.1214509	-0.65217143
1277224649281	2.3699405	0.50395286	2.5333846	-6.301137	0.0	-9.6875	-10.625	-54.0	-0.28235066	0.80768013	-1.3612734
1277224649321	3.6774938	-0.5720546	-0.7627395	-6.007574	0.0	-11.9375	-8.625	-54.5	-0.1845221	-0.20214358	-1.7251151
1277224649361	4.903325	-0.27240697	0.61291564	-4.8576636	0.0	-12.4375	-9.625	-55.0625	-0.19136123	0.1241655	-1.6262949
1277224649401	3.255263	2.152015	4.0180025	-4.2055564	0.0	-9.6875	-12.9375	-54.0	-0.20130353	0.80000615	-0.9866659
1277224649431	1.1441092	6.0474343	10.800936	2.6247873	0.0	-5.5625	-17.8125	-53.0	0.20944773	1.0528554	-0.18697926
1277224649462	0.7218784	6.8237944	14.519291	6.2524624	0.0	-1.625	-23.125	-51.1875	-0.72303104	1.1293049	-0.10539641
1277224649501	1.1441092	7.43671	13.484144	5.634716	0.0	1.5	-27.5	-49.1875	-1.4946785	1.061829	-0.15264933
1277224649541	1.6889231	8.539958	8.894087	2.6387558	0.0	3.0	-29.5	-48.6875	-0.56105685	0.796121	-0.19524768
1277224649581	1.6889231	7.8589406	6.5513873	0.5633106	0.0	3.0	-28.25	-49.1875	-0.39827648	0.6838292	-0.21168505
1277224649621	1.2258313	7.0553403	6.891896	0.1320982	0.0	2.0	-26.1875	-49.6875	-0.34166875	0.76624835	-0.17202786
1277224649661	1.0760075	5.9793324	6.973618	-0.5577831	0.0	1.75	-23.9375	-50.4375	-0.36501202	0.8541259	-0.17804882
1277224649701	1.4982382	5.7886477	7.082581	-0.5375557	0.0	1.5	-22.875	-50.6875	-0.42053002	0.8696561	-0.25326577
1277224649741	2.2609777	5.829509	6.2108784	-0.9935808	0.0	2.0	-24.1875	-50.1875	-0.4831922	0.7820496	-0.36998898
1277224649771	2.7921712	5.6252036	5.434519	-1.5016441	0.0	2.5	-25.4375	-49.6875	-0.525032	0.7133447	-0.46073782
1277224649811	2.5606253	6.3198414	5.366417	-1.1293449	0.0	2.25	-27.5	-48.6875	-0.49450263	0.66675955	-0.38495734
1277224649851	1.7978859	7.246025	5.5571017	-0.49973583	0.0	1.5	-29.8125	-47.375	-0.39110708	0.6398734	-0.24320877
1277224649891	1.1849703	7.504812	5.829509	-0.23014069	0.0	0.0625	-32.5625	-45.625	-0.29987293	0.6544589	-0.15660188
1277224649921	1.920469	7.668256	6.1700177	0.22128391	0.0	-0.9375	-36.1875	-43.3125	-0.56604046	0.662745	-0.24539655
1277224649962	2.4108016	7.504812	6.0474343	0.12842083	0.0	-2.125	-39.5	-40.75	-0.8383974	0.65441555	-0.31082204
1277224650001	2.3699405	7.5456724	5.47538	-0.18721294	0.0	-3.125	-41.5	-38.6875	-0.82464975	0.60553205	-0.30432314
1277224650041	2.1111538	8.076866	4.903325	-0.124949455	0.0	-3.375	-42.5625	-37.4375	-0.5985757	0.53106606	-0.25566286
1277224650081	2.6423476	8.158588	4.630918	-0.060370445	0.0	-3.375	-42.5625	-37.1875	-0.651461	0.49513137	-0.31321234
1277224650121	2.7240696	8.049625	4.2904096	-0.28695297	0.0	-2.875	-42.5625	-37.1875	-0.64182913	0.46753544	-0.32631212
1277224650161	2.3426998	7.7772183	4.440233	-0.5498123	0.0	-2.375	-43.3125	-37.1875	-0.68889445	0.5002793	-0.2925811
1277224650201	2.3426998	7.8589406	4.6036777	-0.40212822	0.0	-2.125	-43.8125	-37.4375	-0.7264156	0.5115363	-0.2897069
1277224650231	2.3699405	7.8589406	4.399372	-0.49353886	0.0	-2.125	-44.5625	-36.9375	-0.72962654	0.49199453	-0.29288718
1277224650271	2.3018389	8.19945	4.2904096	-0.27055836	0.0	-2.375	-44.8125	-36.6875	-0.64482605	0.46666768	-0.27368635
1277224650311	2.4108016	8.430995	4.2086873	-0.08005333	0.0	-2.375	-44.5625	-36.9375	-0.6029273	0.44748423	-0.27851304
1277224650351	2.2201166	8.117727	4.1814466	-0.4092617	0.0	-2.125	-44.0625	-36.4375	-0.6178907	0.46112776	-0.26696175
1277224650391	2.3426998	7.8180795	4.3312707	-0.56703377	0.0	-1.625	-44.0625	-36.4375	-0.7385916	0.48789972	-0.2911371
1277224650421	2.3699405	7.5456724	4.372132	-0.76954174	0.0	-1.625	-43.8125	-36.9375	-0.77298796	0.5049888	-0.30432314
1277224650451	2.3699405	7.43671	4.4810944	-0.80656815	0.0	-1.625	-43.8125	-36.9375	-0.77298796	0.5049888	-0.30432314
1277224650481	2.4925237	7.5865335	4.6036777	-0.5891657	0.0	-1.625	-43.8125	-37.1875	-0.8264191	0.5229645	-0.3174356
1277224650521	2.5606253	7.8180795	4.6036777	-0.3794012	0.0	-2.375	-43.3125	-37.6875	-0.7346001	0.51018345	-0.316515
1277224650561	2.5606253	7.8861814	4.5628166	-0.34261513	0.0	-2.375	-43.5625	-37.4375	-0.7315538	0.5030748	-0.31395847
1277224650611	2.5606253	7.9270425	4.2904096	-0.4363556	0.0	-2.625	-43.0625	-38.1875	-0.6271442	0.47560173	-0.31244367
1277224650651	2.4516625	7.9679036	4.399372	-0.38048363	0.0	-2.625	-43.0625	-38.4375	-0.61341274	0.4855774	-0.29849893
1277224650691	2.1792557	7.9679036	4.372132	-0.46041107	0.0	-2.375	-43.3125	-37.6875	-0.5958593	0.48679528	-0.2669751
1277224650731	2.1792557	7.8180795	4.0180025	-0.7503891	0.0	-2.125	-43.5625	-37.9375	-0.5678024	0.45969102	-0.2718452
1277224650761	2.2609777	7.7772183	3.7864566	-0.86604595	0.0	-1.875	-44.0625	-36.6875	-0.60779524	0.43731907	-0.28291965
1277224650801	2.2201166	8.049625	3.759216	-0.64929867	0.0	-1.875	-44.3125	-36.1875	-0.57900304	0.42301708	-0.26911327
1277224650841	2.2201166	8.158588	3.9090397	-0.49149704	0.0	-1.625	-44.8125	-35.875	-0.62154615	0.4330521	-0.2656869
1277224650871	2.1111538	8.281172	4.0588636	-0.34572315	0.0	-1.625	-45.0625	-34.875	-0.64904064	0.44340017	-0.24961719
1277224650911	2.0294318	8.349273	3.990762	-0.3327322	0.0	-1.625	-45.875	-34.875	-0.6301634	0.43480846	-0.23844281
1277224650941	2.1792557	8.281172	3.7864566	-0.44373322	0.0	-1.375	-46.375	-34.125	-0.6807121	0.41633353	-0.2573237
1277224650981	2.2609777	8.240311	3.5276701	-0.56223583	0.0	-1.375	-46.625	-34.375	-0.6502437	0.39152685	-0.26778984
1277224651021	2.2201166	8.308413	3.3778462	-0.56714344	0.0	-1.375	-46.875	-35.125	-0.5923499	0.3742637	-0.26111245
1277224651051	2.0294318	8.390134	3.214402	-0.5954981	0.0	-0.9375	-46.625	-34.625	-0.54557306	0.3564702	-0.23732479
1277224651091	1.7978859	8.349273	3.405087	-0.61222935	0.0	-0.9375	-46.625	-35.125	-0.5163472	0.37937796	-0.2120958
1277224651131	2.1111538	8.117727	3.9499009	-0.53539467	0.0	-0.4375	-46.625	-34.625	-0.75364596	0.44010818	-0.25443092
1277224651171	2.0294318	8.62168	3.5957718	-0.24728107	0.0	0.3125	-46.625	-33.625	-0.661571	0.38563934	-0.23117872
1277224651211	1.334794	8.689782	3.2961242	-0.41737843	0.0	0.5625	-46.875	-33.375	-0.47238475	0.35869455	-0.15241374
1277224651241	1.4573772	8.308413	3.3778462	-0.7202034	0.0	0.5625	-46.875	-33.125	-0.56584626	0.3808886	-0.17364329
1277224651281	1.9477097	8.430995	3.3778462	-0.5176735	0.0	0.5625	-47.125	-32.5625	-0.6840034	0.37217274	-0.22703482
1277224651321	2.070293	8.308413	3.718355	-0.47166252	0.0	0.3125	-47.625	-32.5625	-0.799461	0.40968952	-0.24420705
1277224651361	1.8387469	8.662541	4.2495484	0.01573658	0.0	0.3125	-47.375	-32.3125	-0.8389572	0.44741794	-0.20915972
1277224651391	2.1111538	8.539958	4.140586	-0.08387756	0.0	0.0625	-48.125	-31.8125	-0.9170853	0.4399174	-0.24235006
1277224651421	2.2609777	8.62168	3.5957718	-0.19546032	0.0	0.5625	-48.125	-31.8125	-0.8099774	0.38345143	-0.25646815
1277224651451	2.3426998	8.471856	3.173541	-0.4614935	0.0	0.5625	-47.875	-31.0625	-0.7744118	0.34648317	-0.2697856
1277224651481	1.879608	8.281172	2.982856	-0.8061962	0.0	1.0625	-48.375	-31.3125	-0.6984508	0.3377995	-0.22319223
1277224651521	1.7978859	8.390134	2.982856	-0.72236824	0.0	1.5	-48.375	-30.8125	-0.70357037	0.33455992	-0.21109334
1277224651561	1.9885708	8.662541	2.8738933	-0.46570206	0.0	0.8125	-48.375	-31.0625	-0.6555115	0.3127392	-0.2256502
1277224651601	1.920469	8.921328	3.2961242	-0.103933334	0.0	1.0625	-48.9375	-30.8125	-0.7247349	0.34661013	-0.21203153
1277224651641	1.7570249	8.894087	3.3778462	-0.13185024	0.0	0.5625	-48.9375	-30.0625	-0.7198304	0.35665172	-0.19503848
1277224651671	1.6889231	8.812365	2.9556155	-0.35964584	0.0	0.3125	-48.9375	-29.8125	-0.62126005	0.31820557	-0.18935764
1277224651711	1.7297841	8.62168	2.6832085	-0.612895	0.0	0.5625	-48.9375	-29.5	-0.6204077	0.2961617	-0.19800308
1277224651751	1.7570249	8.662541	2.9147544	-0.49952602	0.0	0.5625	-48.375	-30.0625	-0.63713783	0.3185339	-0.20011541
1277224651781	1.7978859	8.662541	3.173541	-0.40753365	0.0	0.5625	-48.375	-30.3125	-0.6900002	0.34441116	-0.2046418
1277224651821	1.8387469	8.689782	3.173541	-0.37454224	0.0	0.8125	-48.375	-30.5625	-0.696929	0.34315675	-0.20852292
1277224651861	1.7978859	8.62168	2.982856	-0.508091	0.0	1.3125	-48.9375	-30.3125	-0.6984396	0.32656017	-0.20558463
1277224651891	1.8387469	8.580819	3.0237172	-0.5247154	0.0	1.0625	-48.9375	-29.8125	-0.72796273	0.33181936	-0.21109334
1277224651921	1.7297841	8.580819	3.255263	-0.4675207	0.0	1.0625	-49.4375	-29.8125	-0.7711379	0.35603616	-0.19892134
1277224651951	1.7978859	8.662541	3.336985	-0.3510971	0.0	1.5	-49.6875	-29.5	-0.8317793	0.3606823	-0.2046418
1277224651982	1.879608	8.430995	3.1463003	-0.6135111	0.0	1.0625	-49.1875	-29.8125	-0.7888018	0.3493045	-0.21935305
1277224652021	1.6480621	8.349273	2.8330324	-0.83711624	0.0	1.3125	-49.4375	-30.0625	-0.68537736	0.32135296	-0.19488458
1277224652061	1.7978859	8.580819	2.6014864	-0.6616745	0.0	1.3125	-48.9375	-29.8125	-0.64547145	0.28845528	-0.20653607
1277224652101	1.7570249	8.730643	2.8738933	-0.4487381	0.0	1.0625	-48.6875	-29.8125	-0.65792793	0.31215307	-0.1985953
1277224652141	1.8387469	9.00305	2.9147544	-0.1665411	0.0	1.3125	-49.1875	-29.8125	-0.6742379	0.3071644	-0.2014653
1277224652181	1.5390993	9.193735	2.6014864	-0.12877178	0.0	1.0625	-49.1875	-29.25	-0.543379	0.27215475	-0.16586931
1277224652221	1.8387469	8.853226	2.4516625	-0.4380188	0.0	0.8125	-49.1875	-29.5	-0.5962098	0.2647712	-0.20478095
1277224652261	2.7921712	8.689782	2.152015	-0.42903328	0.0	-0.1875	-49.4375	-29.25	-0.70246166	0.23154773	-0.31089678
1277224652301	2.8738933	8.430995	2.1792557	-0.63658524	0.0	-0.9375	-49.4375	-28.75	-0.7329036	0.23994468	-0.32852027
1277224652341	2.0294318	8.008764	2.6423476	-1.1324987	0.0	-1.625	-49.9375	-29.5	-0.67965585	0.30954278	-0.24817738
1277224652382	1.9477097	8.008764	2.8738933	-1.0777817	0.0	-2.625	-50.9375	-29.0	-0.7169292	0.33549863	-0.23856592
1277224652421	2.4925237	8.240311	3.5276701	-0.50289536	0.0	-2.625	-50.9375	-28.75	-1.0015993	0.38889512	-0.29372984
1277224652451	2.7649305	8.580819	3.214402	-0.23546028	0.0	-2.875	-51.1875	-28.25	-0.916093	0.3424984	-0.31171745
1277224652481	2.8738933	8.62168	3.1054392	-0.202672	0.0	-2.625	-50.9375	-27.5	-0.93126774	0.32926676	-0.32175052
1277224652521	2.4516625	8.662541	2.6832085	-0.41250896	0.0	-2.125	-50.1875	-27.5	-0.7532038	0.2896593	-0.2758059
1277224652561	1.879608	8.689782	2.3018389	-0.62276745	0.0	-2.125	-49.1875	-27.75	-0.51507145	0.2533402	-0.2130193
1277224652601	2.0294318	8.730643	2.6014864	-0.47335243	0.0	-2.125	-48.9375	-28.25	-0.5814192	0.2824733	-0.22839338
1277224652641	2.152015	9.043911	2.9147544	-0.06399727	0.0	-2.375	-48.6875	-28.75	-0.59995174	0.30382752	-0.23360744
1277224652681	1.9885708	9.112013	2.8738933	-0.047426224	0.0	-2.125	-48.9375	-28.75	-0.56235594	0.29891104	-0.21486728
1277224652721	1.8387469	9.00305	2.4516625	-0.29631138	0.0	-1.875	-49.4375	-29.25	-0.47464082	0.26073337	-0.20146531
1277224652769	1.920469	8.689782	2.4925237	-0.56472397	0.0	-1.1875	-49.4375	-29.5	-0.55552685	0.2730788	-0.21750693
1277224652802	1.7297841	8.62168	2.8738933	-0.5554457	0.0	-0.6875	-49.6875	-29.0	-0.63351214	0.31587753	-0.19800308
1277224652841	1.6889231	8.730643	3.0645783	-0.40089512	0.0	0.3125	-49.9375	-29.25	-0.6968684	0.3318784	-0.19108742
1277224652871	1.9477097	9.043911	3.1463003	-0.035001755	0.0	1.3125	-50.4375	-28.5	-0.8159851	0.3278228	-0.2121216
1277224652901	2.070293	8.853226	3.5276701	-0.054205894	0.0	1.3125	-50.1875	-27.75	-0.99203384	0.37011394	-0.22971822
1277224652932	1.9477097	8.539958	3.568531	-0.3483801	0.0	2.5	-50.1875	-27.75	-1.0696971	0.38687056	-0.22423476
1277224652971	1.920469	8.308413	3.214402	-0.69345665	0.0	2.25	-49.6875	-27.75	-0.9751681	0.36047593	-0.22715798
1277224653011	1.7570249	8.117727	2.8330324	-1.0310755	0.0	2.5	-49.6875	-28.25	-0.8565648	0.3287197	-0.21315496
1277224653041	1.56634	7.9679036	2.9556155	-1.1650896	0.0	3.25	-50.1875	-28.75	-0.89171576	0.34906927	-0.19410609
1277224653071	1.334794	8.19945	3.173541	-0.9137306	0.0	3.25	-49.9375	-29.25	-0.8472636	0.36490607	-0.16137509
1277224653111	1.0351465	8.771504	3.3778462	-0.35039997	0.0	4.4375	-50.1875	-29.5	-0.8028584	0.36527675	-0.1174691
1277224653151	1.4165162	8.62168	3.336985	-0.45382404	0.0	5.1875	-50.1875	-29.0	-0.93798274	0.36482838	-0.16284217
1277224653191	1.1849703	8.894087	3.0645783	-0.32505894	0.0	6.1875	-49.6875	-29.25	-0.8124989	0.3291233	-0.13245122
1277224653221	1.0351465	8.962189	3.173541	-0.24298382	0.0	6.9375	-49.9375	-28.75	-0.85738266	0.3382461	-0.11499198
1277224653252	0.95342433	8.539958	3.2961242	-0.6031542	0.0	7.125	-49.4375	-28.5	-0.9338546	0.36627316	-0.11118234
1277224653291	0.88532263	8.853226	3.0237172	-0.4095087	0.0	7.625	-49.1875	-29.0	-0.8070098	0.3275982	-0.09966866
1277224653331	0.95342433	8.894087	2.9147544	-0.39869595	0.0	8.375	-48.9375	-28.5	-0.8335183	0.3150017	-0.106789745
1277224653371	0.7218784	8.812365	2.9147544	-0.496727	0.0	8.875	-48.125	-29.0	-0.78626835	0.31843477	-0.08173405
1277224653411	0.5720546	9.00305	3.1054392	-0.2659006	0.0	9.375	-48.125	-29.25	-0.79311126	0.3315322	-0.06345479
1277224653451	0.5720546	9.384419	3.6774938	0.28882122	0.0	10.0625	-48.125	-29.8125	-0.8908371	0.3728506	-0.060882576
1277224653481	0.6537767	9.575105	4.099725	0.6297188	0.0	10.3125	-48.125	-30.0625	-0.98197	0.4037076	-0.068173
1277224653521	0.6946377	9.343558	4.099725	0.42039013	0.0	10.8125	-48.375	-29.8125	-1.0472624	0.41246745	-0.074207515
1277224653561	0.50395286	8.853226	3.405087	-0.30779743	0.0	11.3125	-48.125	-29.5	-0.9261865	0.3666322	-0.056861717
1277224653601	0.46309182	8.580819	2.9147544	-0.7324724	0.0	11.8125	-47.625	-28.75	-0.86841786	0.3270113	-0.05391595
1277224653641	0.46309182	8.281172	2.982856	-0.99247456	0.0	11.5625	-47.375	-28.75	-0.8998043	0.3452328	-0.055862866
1277224653681	0.3405087	8.430995	3.2961242	-0.7478399	0.0	11.3125	-47.125	-29.0	-0.9204643	0.3724069	-0.04036579
1277224653711	0.27240697	8.730643	3.636633	-0.34496784	0.0	11.8125	-47.375	-29.0	-0.9902332	0.39450768	-0.03119113
1277224653751	0.23154591	8.894087	3.759216	-0.1479702	0.0	11.5625	-47.875	-29.25	-0.98835605	0.39976946	-0.026027812
1277224653821	0.27240697	8.812365	3.5957718	-0.28501415	0.0	12.5	-48.6875	-28.5	-1.0431433	0.38724864	-0.030902063
1277224653861	0.313268	8.730643	3.336985	-0.45476627	0.0	12.0625	-48.6875	-28.25	-0.98366994	0.36486688	-0.03586605
1277224653901	0.42223078	8.730643	3.2961242	-0.46497822	0.0	12.3125	-48.375	-28.25	-0.9905177	0.36060557	-0.048324283
1277224653941	0.42223078	8.689782	3.5276701	-0.41862297	0.0	12.0625	-48.375	-28.25	-1.0507447	0.38521963	-0.048551157
1277224653971	0.3405087	8.580819	3.6774938	-0.4647894	0.0	11.8125	-48.9375	-28.75	-1.0789367	0.40460703	-0.039661728
1277224654001	0.38136974	8.539958	3.5276701	-0.5589056	0.0	11.5625	-48.9375	-29.0	-1.0242888	0.39137822	-0.044627447
1277224654041	0.5720546	8.471856	3.486809	-0.62746525	0.0	11.0625	-48.9375	-29.0	-1.032349	0.38964543	-0.06742178
1277224654081	0.42223078	8.539958	3.759216	-0.46636772	0.0	10.3125	-48.9375	-29.25	-1.0491208	0.41421723	-0.04940156
1277224654121	0.38136974	8.812365	3.718355	-0.23432732	0.0	10.0625	-48.6875	-29.0	-0.9890084	0.39894736	-0.043249674
1277224654161	0.3405087	9.043911	3.7864566	0.003829956	0.0	9.8125	-48.375	-29.25	-0.941243	0.39624864	-0.037632827
1277224654201	0.38136974	8.812365	3.6774938	-0.25012493	0.0	9.625	-48.6875	-29.25	-0.9467516	0.3950073	-0.043249674
1277224654241	0.3405087	8.580819	3.214402	-0.63720226	0.0	9.375	-48.375	-29.5	-0.80676454	0.35816437	-0.039661728
1277224654281	0.38136974	8.308413	3.1463003	-0.91427326	0.0	9.125	-47.875	-30.0625	-0.78389907	0.3616521	-0.04586944
1277224654321	0.6946377	8.390134	3.3778462	-0.7354479	0.0	8.875	-47.875	-30.3125	-0.8771488	0.3815617	-0.08260381
1277224654361	0.84446156	8.662541	3.568531	-0.399889	0.0	8.375	-47.625	-30.5625	-0.8848849	0.38910246	-0.097177215
1277224654391	0.9942854	8.730643	3.5276701	-0.33790207	0.0	8.375	-47.625	-30.3125	-0.9011451	0.3817653	-0.113396004
1277224654421	0.92618364	8.853226	3.5276701	-0.23158455	0.0	8.625	-48.125	-29.25	-0.94158185	0.37731162	-0.10423622
1277224654451	0.92618364	8.921328	3.445948	-0.1981926	0.0	8.375	-48.375	-28.75	-0.93225247	0.36680728	-0.103446215
1277224654491	0.92618364	8.894087	3.3778462	-0.24775696	0.0	8.125	-48.375	-28.5	-0.9206116	0.36117333	-0.10376078
1277224654531	0.9942854	8.62168	3.405087	-0.4837427	0.0	7.875	-48.375	-28.5	-0.9624434	0.37388927	-0.11481664
1277224654571	0.88532263	8.471856	3.173541	-0.71668243	0.0	7.375	-48.6875	-28.75	-0.87734354	0.35663792	-0.10412368
1277224654611	0.88532263	8.430995	3.0237172	-0.8061867	0.0	7.625	-49.1875	-28.75	-0.86174756	0.342615	-0.10462465
1277224654651	0.95342433	8.499097	3.0237172	-0.7354574	0.0	7.625	-49.4375	-28.75	-0.8713229	0.33983532	-0.11171245
1277224654691	0.9942854	8.580819	3.255263	-0.5754099	0.0	7.875	-49.9375	-28.75	-0.94875467	0.36038604	-0.11535857
1277224654721	1.0351465	8.539958	3.2961242	-0.59432983	0.0	7.625	-49.6875	-28.75	-0.9579793	0.36590576	-0.12062368
1277224654761	1.0351465	8.62168	3.1463003	-0.57062817	0.0	7.375	-49.6875	-28.75	-0.8993847	0.3476138	-0.11949122
1277224654791	1.1441092	8.62168	3.1463003	-0.5577822	0.0	7.625	-49.6875	-28.5	-0.9357817	0.34711066	-0.1319306
1277224654831	1.1168685	8.62168	3.255263	-0.5234661	0.0	7.375	-49.4375	-28.25	-0.9585658	0.35827827	-0.12882444
1277224654861	1.0351465	8.771504	3.2961242	-0.37928295	0.0	7.625	-49.4375	-28.75	-0.9245628	0.35717997	-0.117469095
1277224654891	1.1849703	8.812365	3.214402	-0.35179424	0.0	7.875	-49.1875	-28.5	-0.9355457	0.3468889	-0.13366503
1277224654931	1.3075534	8.771504	3.336985	-0.3311844	0.0	7.875	-49.1875	-28.75	-0.97562265	0.3598898	-0.14797865
1277224654961	1.1849703	8.580819	3.405087	-0.49916744	0.0	8.375	-49.1875	-29.0	-1.0030438	0.37453952	-0.13722731
1277224654991	1.1168685	8.539958	3.2961242	-0.5847893	0.0	8.375	-48.9375	-28.5	-0.9877806	0.36550936	-0.13004343
1277224655021	1.1168685	8.662541	3.214402	-0.49969578	0.0	8.375	-48.9375	-28.5	-0.9877806	0.36550936	-0.13004343
1277224655051	1.1849703	8.539958	3.2961242	-0.57629395	0.0	8.625	-48.9375	-28.75	-0.99243045	0.36515713	-0.13787562
1277224655091	1.0351465	8.499097	3.405087	-0.59248734	0.0	8.375	-48.9375	-28.5	-1.0116572	0.3785239	-0.121197954
1277224655131	0.95342433	8.730643	3.405087	-0.3871088	0.0	7.875	-49.1875	-28.75	-0.9488805	0.36986738	-0.108773336
1277224655171	1.0351465	8.894087	3.3778462	-0.23658466	0.0	7.875	-49.1875	-29.0	-0.92357963	0.36073238	-0.11586464
1277224655211	0.92618364	8.812365	3.336985	-0.33822632	0.0	7.625	-49.1875	-29.0	-0.89604634	0.36016968	-0.104716025
1277224655241	0.92618364	8.771504	3.173541	-0.43283176	0.0	7.125	-48.6875	-29.5	-0.8097069	0.3453794	-0.105200246
1277224655281	0.92618364	8.689782	3.255263	-0.48104668	0.0	7.625	-48.375	-29.25	-0.86181813	0.3565756	-0.1061822
1277224655321	0.95342433	8.471856	3.2961242	-0.66631126	0.0	7.375	-48.375	-29.25	-0.8935157	0.36892492	-0.11206866
1277224655361	0.92618364	8.349273	3.336985	-0.767643	0.0	7.125	-48.125	-29.0	-0.91235316	0.37812233	-0.11047817
1277224655391	0.84446156	8.62168	3.445948	-0.4835043	0.0	7.125	-48.125	-28.75	-0.9042799	0.37859157	-0.09763486
1277224655421	1.0760075	8.730643	3.568531	-0.31368828	0.0	7.125	-48.375	-29.5	-0.93352467	0.38538224	-0.12262656
1277224655451	1.1849703	8.921328	3.7864566	-0.0428648	0.0	7.375	-48.375	-30.0625	-0.9643288	0.39825034	-0.13205148
1277224655491	1.1441092	8.921328	3.9090397	4.7302246E-4	0.0	7.375	-48.125	-30.5625	-0.9614927	0.40998098	-0.12754808
1277224655531	1.1849703	8.812365	3.6774938	-0.18449402	0.0	7.125	-48.6875	-31.0625	-0.90578634	0.39216527	-0.13366501
1277224655571	1.1849703	8.662541	3.214402	-0.4912777	0.0	7.375	-48.375	-31.0625	-0.8190184	0.35230723	-0.13594867
1277224655611	0.92618364	8.580819	3.0645783	-0.6480522	0.0	6.4375	-47.875	-31.3125	-0.6959443	0.34119368	-0.10752025
1277224655651	1.0760075	8.430995	3.405087	-0.65055466	0.0	6.4375	-47.875	-31.3125	-0.6959443	0.34119368	-0.10752025
1277224655691	1.4165162	8.430995	3.6774938	-0.5000849	0.0	6.6875	-47.375	-31.3125	-0.93142694	0.40623167	-0.16645828
1277224655721	1.6889231	8.471856	3.8681788	-0.34157658	0.0	5.9375	-47.375	-31.0625	-0.99295175	0.42100644	-0.19677714
1277224655761	1.56634	8.349273	4.140586	-0.35634708	0.0	5.9375	-47.375	-31.0625	-0.99295175	0.42100644	-0.19677714
1277224655791	0.92618364	8.580819	4.2086873	-0.20449829	0.0	5.1875	-47.375	-31.3125	-0.92340255	0.4537139	-0.107520245
1277224655831	0.7218784	9.084772	4.0180025	0.15319538	0.0	5.1875	-47.625	-31.5625	-0.7350186	0.41525158	-0.07929366
1277224655861	1.6480621	8.539958	4.0180025	-0.22587109	0.0	5.9375	-47.625	-32.0625	-0.9797945	0.43276402	-0.19063891
1277224655891	1.7297841	7.6954966	4.140586	-0.8983803	0.0	6.6875	-47.625	-32.0625	-1.155968	0.48341152	-0.22110386
1277224655931	1.3075534	7.3549876	3.486809	-1.5626593	0.0	7.125	-47.125	-31.8125	-1.0032548	0.4367001	-0.17593963
1277224655971	1.607201	7.205164	3.1054392	-1.7978277	0.0	6.9375	-47.125	-31.5625	-0.96312046	0.3981918	-0.21946943
1277224656001	1.4982382	7.273266	3.8681788	-1.4336033	0.0	5.9375	-46.875	-31.3125	-1.1348724	0.48022625	-0.20315088
1277224656031	1.1441092	7.5865335	4.372132	-0.9760208	0.0	4.9375	-47.125	-31.3125	-1.2096354	0.51796126	-0.14967997
1277224656071	0.6537767	8.308413	4.440233	-0.3635149	0.0	4.1875	-47.875	-31.8125	-0.9402259	0.48952588	-0.07852672
1277224656111	1.3075534	9.152874	3.990762	0.2636509	0.0	3.5	-47.875	-32.0625	-0.75617236	0.40747273	-0.14189705
1277224656151	2.4925237	9.384419	4.0588636	0.71734047	0.0	3.25	-47.625	-32.3125	-0.89254326	0.3959417	-0.25960848
1277224656191	2.2609777	9.425281	4.099725	0.71740246	0.0	3.0	-47.375	-32.8125	-0.83895475	0.4001512	-0.23543568
1277224656231	2.152015	9.152874	3.718355	0.30435562	0.0	3.25	-46.875	-32.8125	-0.7813317	0.37659177	-0.23092476
1277224656271	1.6480621	8.730643	3.405087	-0.29166985	0.0	3.5	-46.125	-33.125	-0.676383	0.36598143	-0.18657216
1277224656311	1.3756552	8.240311	3.568531	-0.7220726	0.0	3.0	-46.375	-33.875	-0.6698358	0.4036874	-0.1654167
1277224656351	1.2258313	8.049625	3.8681788	-0.7921095	0.0	2.75	-46.375	-33.875	-0.718098	0.443501	-0.1511232
1277224656381	1.2258313	8.19945	4.099725	-0.5577917	0.0	1.75	-46.875	-33.875	-0.71727794	0.45924136	-0.14840253
1277224656421	1.4573772	8.430995	3.990762	-0.36568642	0.0	1.3125	-47.375	-33.375	-0.72312903	0.43643028	-0.17116797
1277224656451	1.4982382	8.076866	3.568531	-0.85037327	0.0	1.3125	-47.625	-32.8125	-0.7131477	0.40981442	-0.18341273
1277224656491	1.56634	7.7772183	3.214402	-1.2468061	0.0	1.0625	-47.625	-32.5625	-0.6872491	0.38495895	-0.19874236
1277224656531	2.0294318	7.5865335	3.0645783	-1.3766012	0.0	1.3125	-47.375	-32.5625	-0.7740487	0.3720547	-0.26138443
1277224656571	2.5606253	7.9679036	3.2961242	-0.81172276	0.0	1.3125	-47.125	-33.375	-0.8152188	0.37518275	-0.31094295
1277224656611	2.9147544	8.689782	3.6774938	0.069182396	0.0	1.75	-46.625	-33.375	-0.8418934	0.38156465	-0.3236302
1277224656641	2.9147544	9.343558	4.2086873	0.8475008	0.0	2.0	-47.125	-33.125	-0.8906984	0.40609825	-0.30238676
1277224656677	2.8330324	9.193735	4.630918	0.87025166	0.0	2.0	-47.125	-32.8125	-0.9933152	0.44863096	-0.29891527
1277224656711	2.5606253	8.730643	4.372132	0.2877283	0.0	2.0	-47.375	-32.0625	-1.0159663	0.44795743	-0.28529108
1277224656741	2.3426998	8.471856	3.636633	-0.29425335	0.0	1.3125	-47.625	-32.3125	-0.84272915	0.39228907	-0.26978558
1277224656781	2.1111538	8.117727	3.214402	-0.82406425	0.0	1.0625	-46.875	-32.3125	-0.74046123	0.36596245	-0.25443092
1277224656811	1.920469	7.6954966	3.568531	-1.109335	0.0	0.5625	-47.125	-32.8125	-0.81719464	0.42278582	-0.24456216
1277224656851	1.7978859	7.3958488	3.8681788	-1.2688646	0.0	-0.1875	-47.375	-33.375	-0.892211	0.47020137	-0.23846833
1277224656891	1.7978859	7.164303	3.759216	-1.5186262	0.0	-0.4375	-47.375	-32.5625	-0.9389112	0.47076935	-0.24587311
1277224656931	2.1111538	7.43671	3.445948	-1.3428345	0.0	-1.1875	-47.375	-33.125	-0.7951205	0.41931927	-0.27660555
1277224656961	2.3699405	7.6954966	3.445948	-1.0481205	0.0	-1.375	-47.125	-33.375	-0.77559435	0.40436938	-0.29874766
1277224656991	2.6014864	7.9679036	3.6774938	-0.653553	0.0	-1.1875	-46.625	-33.625	-0.8047366	0.41345534	-0.31558412
1277224657021	2.982856	8.117727	3.718355	-0.39277267	0.0	-1.1875	-46.125	-34.625	-0.7938182	0.4060532	-0.35213482
1277224657054	3.405087	8.281172	3.9499009	-0.020223618	0.0	-0.6875	-45.625	-35.125	-0.83940953	0.41545925	-0.39011058
1277224657091	3.445948	8.430995	4.399372	0.30822563	0.0	-0.6875	-44.5625	-34.875	-0.88229156	0.4499725	-0.38800418
1277224657131	3.2961242	8.430995	4.671779	0.38018513	0.0	-0.6875	-44.5625	-35.875	-0.8858607	0.47642976	-0.37268314
1277224657171	3.0237172	8.19945	4.7535014	0.14169788	0.0	-1.375	-44.5625	-36.4375	-0.8747943	0.4981693	-0.35329825
1277224657211	2.6832085	7.6273947	4.399372	-0.60169315	0.0	-1.875	-44.8125	-36.1875	-0.8597459	0.49830246	-0.33826476
1277224657241	2.3426998	7.5456724	4.630918	-0.6485491	0.0	-2.375	-44.8125	-36.4375	-0.8624986	0.53015095	-0.3010338
1277224657271	2.3018389	7.43671	4.8216033	-0.64963245	0.0	-3.125	-44.3125	-35.875	-0.9187974	0.5545342	-0.30017117
1277224657311	2.152015	7.5456724	4.5219555	-0.7503586	0.0	-3.375	-44.0625	-36.4375	-0.72631836	0.5228097	-0.2778228
1277224657351	2.3426998	7.7363577	3.990762	-0.79190445	0.0	-3.875	-43.5625	-37.1875	-0.5547114	0.45859945	-0.2940391
1277224657391	2.4516625	7.8589406	3.990762	-0.6578922	0.0	-3.875	-43.5625	-37.6875	-0.5458068	0.45138037	-0.30239138
1277224657421	2.6423476	7.8861814	4.140586	-0.51588535	0.0	-3.875	-43.0625	-38.1875	-0.5750575	0.46191904	-0.32330415
1277224657451	2.7649305	7.9679036	3.9499009	-0.49353886	0.0	-3.625	-42.8125	-37.9375	-0.56607115	0.4379928	-0.3340073
1277224657491	2.7649305	8.008764	4.1814466	-0.3583889	0.0	-3.125	-42.5625	-38.1875	-0.5999222	0.4584543	-0.33242628
1277224657521	2.7649305	8.076866	4.6036777	-0.10745144	0.0	-2.875	-42.5625	-38.1875	-0.6668673	0.4945608	-0.32982302
1277224657561	2.9147544	8.117727	4.7535014	0.04165268	0.0	-3.375	-43.0625	-38.1875	-0.7064001	0.50370324	-0.34472352
1277224657601	2.7921712	8.049625	4.5628166	-0.1416626	0.0	-3.625	-42.8125	-37.9375	-0.6556883	0.4916686	-0.3338834
1277224657641	2.7649305	7.8180795	4.140586	-0.53779507	0.0	-3.875	-43.0625	-37.1875	-0.63405544	0.4630962	-0.3399304
1277224657681	2.6832085	7.6273947	4.2495484	-0.6723509	0.0	-4.125	-42.8125	-37.6875	-0.63727283	0.48389423	-0.33826476
1277224657721	2.7649305	7.6273947	4.440233	-0.55799294	0.0	-3.875	-42.3125	-38.1875	-0.6641839	0.5007629	-0.34776697
1277224657751	2.5606253	7.5865335	4.6036777	-0.57051754	0.0	-3.625	-42.3125	-38.6875	-0.6611606	0.5218009	-0.325516
1277224657789	2.3699405	7.6954966	4.440233	-0.61138153	0.0	-3.375	-42.5625	-38.6875	-0.59456235	0.5039433	-0.29874766
1277224657953	2.6832085	7.9270425	4.440233	-0.33282948	0.0	-3.625	-42.5625	-38.6875	-0.6060677	0.48780105	-0.32638252
1277224657994	2.7240696	7.668256	4.2495484	-0.6261616	0.0	-3.375	-42.8125	-38.1875	-0.6505098	0.48125178	-0.34133515
1277224658031	2.7649305	7.668256	4.1814466	-0.64523697	0.0	-3.375	-42.8125	-38.4375	-0.638247	0.47396678	-0.34605864
1277224658061	2.8738933	7.8180795	4.630918	-0.2763281	0.0	-3.625	-42.3125	-38.9375	-0.6702121	0.50740874	-0.3522636
1277224658101	2.9147544	8.049625	4.8216033	0.01883316	0.0	-3.125	-42.3125	-38.6875	-0.6982395	0.5129208	-0.34741175
1277224658141	2.7240696	8.008764	4.903325	-0.02894783	0.0	-3.125	-42.3125	-38.6875	-0.6982395	0.5129208	-0.34741175
1277224658181	2.4925237	7.7772183	4.7943625	-0.33650112	0.0	-2.625	-42.3125	-38.4375	-0.7008327	0.530843	-0.31014773
1277224658221	2.3018389	7.504812	4.440233	-0.7879839	0.0	-2.375	-42.5625	-38.4375	-0.66281825	0.51477396	-0.29760596
1277224658261	2.2609777	7.4639506	4.3312707	-0.8857479	0.0	-2.625	-42.5625	-38.6875	-0.62312055	0.5069571	-0.29413328
1277224658301	2.3018389	7.504812	4.4810944	-0.7677965	0.0	-3.125	-42.3125	-38.9375	-0.6160066	0.51870877	-0.29760596
1277224658341	2.6014864	7.6273947	4.399372	-0.62518215	0.0	-3.375	-42.3125	-38.6875	-0.6335459	0.49969494	-0.3286986
1277224658371	2.5606253	7.6273947	4.440233	-0.6170025	0.0	-3.375	-42.0	-38.6875	-0.6242521	0.5042806	-0.32389188
1277224658401	2.5333846	7.8180795	4.6036777	-0.38676453	0.0	-3.125	-42.3125	-38.9375	-0.6294475	0.5106209	-0.313365
1277224658441	2.6423476	8.008764	4.7126403	-0.14583874	0.0	-2.375	-42.0	-38.6875	-0.6633512	0.50957924	-0.31868625
1277224658471	2.7240696	8.076866	4.903325	0.026910782	0.0	-2.125	-41.75	-38.9375	-0.69142216	0.52201957	-0.32528767
1277224658501	2.6832085	8.049625	4.903325	-0.006717682	0.0	-2.625	-41.75	-39.25	-0.6618109	0.52399457	-0.32175055
1277224658541	2.5606253	7.8180795	4.7126403	-0.3257141	0.0	-2.875	-41.5	-39.5	-0.6213317	0.5202129	-0.316515
1277224658581	2.6423476	7.5865335	4.440233	-0.62769794	0.0	-3.125	-41.75	-39.75	-0.6163085	0.5049238	-0.33515462
1277224658621	2.4516625	7.4639506	4.440233	-0.7824116	0.0	-3.875	-42.3125	-39.5	-0.59686935	0.51442474	-0.3173646
1277224658661	2.4516625	7.6273947	4.2904096	-0.71844864	0.0	-3.375	-42.0	-39.25	-0.5640645	0.49165517	-0.3109983
1277224658701	2.8738933	7.6954966	4.440233	-0.46879196	0.0	-3.625	-42.3125	-38.1875	-0.678747	0.49554223	-0.35741225
1277224658741	2.7649305	8.049625	4.399372	-0.22563839	0.0	-3.625	-42.8125	-37.6875	-0.6308757	0.4770676	-0.3308596
1277224658781	2.8738933	8.117727	4.8216033	0.06272793	0.0	-3.125	-43.0625	-37.4375	-0.74755853	0.5104177	-0.34025767
1277224658811	2.8738933	8.008764	4.671779	-0.09968948	0.0	-3.625	-43.8125	-37.4375	-0.7435879	0.5021159	-0.34453142
1277224658851	2.7921712	7.7772183	4.2086873	-0.5333338	0.0	-3.375	-44.0625	-37.6875	-0.6881888	0.4710803	-0.3446871
1277224658892	2.6423476	7.3549876	3.636633	-1.1867342	0.0	-3.625	-44.3125	-37.4375	-0.6311353	0.43552592	-0.34489968
1277224658931	2.982856	7.3141265	3.173541	-1.2939987	0.0	-4.125	-44.3125	-37.9375	-0.58909345	0.38202783	-0.38723058
1277224658961	3.445948	7.6954966	3.5276701	-0.666646	0.0	-4.3125	-44.8125	-37.9375	-0.65984184	0.39624754	-0.42101258
1277224658991	3.3778462	9.084772	3.990762	0.6751957	0.0	-4.8125	-44.5625	-37.6875	-0.54181117	0.39058653	-0.35597458
1277224659031	4.140586	9.765789	4.5219555	1.7243156	0.0	-5.3125	-44.3125	-37.9375	-0.6012329	0.4029759	-0.4010139
1277224659061	4.9850473	9.466142	5.09401	2.042716	0.0	-5.5625	-43.8125	-37.4375	-0.768613	0.44437894	-0.4847151
1277224659101	5.175732	8.962189	5.706926	2.0118952	0.0	-6.0625	-43.0625	-37.4375	-0.8855103	0.5039393	-0.5237168
1277224659141	4.4810944	7.6273947	7.3549876	1.6978359	0.0	-7.0	-42.8125	-38.1875	-1.3509185	0.6936068	-0.53117764
1277224659181	3.445948	6.701211	7.014479	0.48818874	0.0	-8.5	-41.75	-39.5	-1.4872725	0.74961746	-0.47496483
1277224659221	4.2904096	5.829509	6.0474343	-0.37467003	0.0	-10.4375	-40.75	-41.0	-1.1818415	0.6960125	-0.6344686
1277224659251	5.012288	6.0474343	6.1291566	0.15633392	0.0	-12.875	-39.25	-42.5625	-0.99104226	0.66263056	-0.692074
1277224659281	4.7126403	6.701211	6.4015636	0.59023476	0.0	-15.3125	-37.4375	-43.5625	-0.7310639	0.6632986	-0.6129052
1277224659321	5.012288	6.2789803	6.0201936	0.23283958	0.0	-17.5625	-36.1875	-43.5625	-0.6630604	0.64306533	-0.673682
1277224659361	6.3198414	4.903325	4.440233	-0.6579523	0.0	-20.5	-35.625	-43.0625	-0.6819337	0.50675255	-0.9109479
1277224659391	7.1234417	5.175732	3.1463003	-0.4562044	0.0	-22.9375	-35.875	-41.25	-0.5472319	0.34318352	-0.94245493
1277224659421	6.469665	4.7943625	3.0237172	-1.2051764	0.0	-25.625	-37.4375	-37.9375	-0.6273285	0.35920998	-0.9330461
1277224659461	5.053149	4.903325	2.4516625	-2.3509436	0.0	-28.0625	-38.9375	-34.625	-0.45529002	0.3350648	-0.80044496
1277224659491	6.2789803	3.214402	3.3778462	-1.9856644	0.0	-29.75	-40.0	-31.3125	-1.1859078	0.44659296	-1.0976498
1277224659531	7.7363577	3.5957718	1.7978859	-1.0880957	0.0	-31.25	-40.5	-29.5	-0.87925893	0.20770396	-1.1357124
1277224659571	7.8861814	4.630918	-1.56634	-0.5281439	0.0	-32.1875	-39.25	-30.0625	-0.43590793	-0.16962609	-1.0398273
1277224659611	8.662541	0.88532263	0.6537767	-1.0744772	0.0	-33.6875	-36.9375	-30.8125	-0.8730861	0.074939996	-1.4689487
1277224659651	8.049625	0.7218784	3.486809	-1.0046377	0.0	-36.375	-33.375	-31.8125	-1.1429499	0.40730658	-1.4813571
1277224659691	4.099725	2.8330324	3.9499009	-3.4477563	0.0	-39.3125	-28.5	-32.5625	-2.9091167	0.67022413	-0.96611595
1277224659731	2.5606253	3.255263	8.430995	-0.41329002	0.0	-41.25	-24.4375	-33.375	2.5435767	1.1141773	-0.66652334
1277224659761	4.399372	0.8036005	11.686258	2.7060986	0.0	-42.0	-22.125	-34.625	-2.698049	1.2053045	-1.3901256
1277224659801	7.205164	0.14982383	9.888372	2.4292288	0.0	-41.0	-21.375	-35.875	-2.1128402	0.9409969	-1.5500053
1277224659831	8.308413	0.14982383	7.246025	1.2186403	0.0	-39.5625	-21.875	-37.6875	-1.4695804	0.7171224	-1.5527655
1277224659871	7.9679036	0.0	6.0882955	0.22105312	0.0	-38.5625	-21.875	-38.6875	-1.2475706	0.6524658	-1.5707964
1277224659915	7.164303	-0.42223078	6.782933	0.06825256	0.0	-37.8125	-21.375	-39.5	-1.4173962	0.7571958	-1.6296636
1277224659952	6.8237944	-0.23154591	8.471856	1.0740728	0.0	-36.875	-21.625	-40.5	-1.6887679	0.8924501	-1.6047155
1277224659991	6.851035	-0.19068487	7.43671	0.30659294	0.0	-35.875	-21.125	-41.0	-1.4874526	0.8261737	-1.5986221
1277224660021	6.510526	-0.040861044	6.5513873	-0.57034683	0.0	-34.875	-21.375	-41.25	-1.3682019	0.7885166	-1.5770724
1277224660051	6.701211	0.14982383	6.932757	-0.16342545	0.0	-33.9375	-21.375	-42.0	-1.357797	0.8022548	-1.5484424
1277224660081	6.782933	0.53119355	7.4639506	0.2929001	0.0	-33.6875	-20.625	-42.8125	-1.4142232	0.83164114	-1.4926426
1277224660111	6.742072	0.7218784	7.504812	0.30763912	0.0	-33.4375	-21.125	-43.0625	-1.4267387	0.83605015	-1.464132
1277224660141	6.851035	0.61291564	7.4639506	0.34336948	0.0	-33.4375	-21.125	-43.8125	-1.36261	0.82620245	-1.4815706
1277224660171	6.851035	0.3405087	7.014479	0.0043411255	0.0	-33.1875	-20.875	-44.0625	-1.2505977	0.79656875	-1.5211354
1277224660201	6.973618	-0.14982383	6.4015636	-0.33913708	0.0	-32.6875	-20.875	-43.8125	-1.1183679	0.74253947	-1.5922774
1277224660231	7.164303	-0.29964766	6.238119	-0.3023796	0.0	-32.1875	-20.875	-44.0625	-1.0509276	0.7159694	-1.6125971
1277224660271	7.0553403	-0.19068487	6.782933	-0.017760277	0.0	-31.5	-20.875	-43.8125	-1.1331922	0.7655333	-1.5978168
1277224660311	6.469665	0.10896278	7.082581	-0.21335125	0.0	-31.25	-21.625	-44.0625	-1.2769911	0.8305229	-1.5539558
1277224660351	6.5513873	0.38136974	7.3958488	0.080952644	0.0	-31.0	-22.375	-44.3125	-1.3187058	0.8450316	-1.5126499
1277224660381	6.6331096	0.38136974	7.205164	-0.00573349	0.0	-30.75	-22.375	-44.3125	-1.2635938	0.82589096	-1.5133647
1277224660411	6.4015636	0.3405087	7.164303	-0.1929512	0.0	-30.25	-22.625	-45.3125	-1.2570742	0.84086186	-1.5176549
1277224660442	6.0474343	0.08172209	7.273266	-0.34734058	0.0	-30.0	-22.375	-45.3125	-1.31803	0.87711936	-1.5572836
1277224660481	5.6660647	0.3405087	6.891896	-0.8781309	0.0	-29.75	-21.875	-45.3125	-1.3324424	0.8818194	-1.5107723
1277224660511	6.2789803	0.53119355	6.701211	-0.60806465	0.0	-29.0625	-21.875	-45.3125	-1.1524864	0.81613636	-1.4863986
1277224660551	6.4015636	0.42223078	6.5922484	-0.6079521	0.0	-29.5	-22.375	-44.8125	-1.1508104	0.79898727	-1.5049343
1277224660591	6.2108784	0.14982383	6.66035	-0.6985378	0.0	-29.25	-22.875	-44.5625	-1.2002585	0.8201596	-1.5466782
1277224660631	6.4015636	0.14982383	7.3141265	-0.08559513	0.0	-29.25	-23.125	-44.8125	-1.2639064	0.8516988	-1.5473963
1277224660671	6.3198414	0.27240697	7.9679036	0.36694717	0.0	-29.25	-23.375	-45.0625	-1.3766873	0.8997867	-1.5277195
1277224660711	6.1291566	0.50395286	8.049625	0.32335472	0.0	-28.5625	-23.375	-44.5625	-1.4327648	0.9184011	-1.4887587
1277224660751	6.2108784	0.6537767	7.668256	0.082969666	0.0	-28.5625	-23.6875	-45.0625	-1.3550003	0.88732344	-1.4659194
1277224660781	6.0882955	0.84446156	7.7772183	0.10624981	0.0	-27.8125	-24.1875	-45.0625	-1.3880856	0.9019786	-1.4329731
1277224660811	5.829509	0.9942854	7.6954966	-0.10137081	0.0	-27.3125	-24.6875	-45.3125	-1.4214585	0.91558397	-1.4018612
1277224660851	6.0201936	1.0760075	7.5456724	-0.093891144	0.0	-27.0625	-25.4375	-45.875	-1.3425105	0.8896994	-1.3939308
1277224660891	6.4015636	1.1441092	7.273266	-0.050144196	0.0	-26.375	-25.1875	-45.625	-1.2036245	0.84125245	-1.3939402
1277224660931	6.3198414	1.2666923	6.932757	-0.34049892	0.0	-26.5625	-24.9375	-45.3125	-1.1681896	0.82180107	-1.3729863
1277224660961	6.3607025	0.9942854	6.851035	-0.4053831	0.0	-27.5625	-24.4375	-45.0625	-1.1769912	0.81647325	-1.4157343
1277224660991	6.2108784	0.9942854	6.973618	-0.41543293	0.0	-27.8125	-23.6875	-44.5625	-1.2329239	0.83689654	-1.4120555
1277224661021	6.0474343	1.0760075	7.082581	-0.43156624	0.0	-28.3125	-23.6875	-44.3125	-1.3130842	0.85636896	-1.3947111
1277224661051	5.9793324	1.0760075	7.164303	-0.41317177	0.0	-28.5625	-24.1875	-44.5625	-1.3547491	0.86746067	-1.3927475
1277224661081	5.8976107	1.1849703	7.43671	-0.24157715	0.0	-28.5625	-24.6875	-44.3125	-1.4468044	0.8906584	-1.3725127
1277224661121	5.8567495	1.334794	7.5865335	-0.12994194	0.0	-29.0625	-25.1875	-44.5625	-1.5123326	0.9010826	-1.3467168
1277224661161	6.1291566	1.4573772	7.6273947	0.08615875	0.0	-28.8125	-25.4375	-44.0625	-1.4654807	0.88041615	-1.3373536
1277224661201	6.1291566	1.607201	7.3141265	-0.12955856	0.0	-28.8125	-25.9375	-43.3125	-1.4408959	0.8569035	-1.3143479
1277224661241	6.2108784	1.4982382	6.782933	-0.4885006	0.0	-28.8125	-26.1875	-43.0625	-1.326218	0.81529385	-1.3340905
1277224661271	6.0474343	1.4982382	6.782933	-0.5966358	0.0	-28.3125	-26.75	-43.0625	-1.3572949	0.8278427	-1.3279386
1277224661311	6.0201936	1.5390993	7.014479	-0.43571186	0.0	-28.3125	-27.75	-43.3125	-1.4188614	0.8458506	-1.3205013
1277224661351	6.0201936	1.56634	7.3141265	-0.20495224	0.0	-28.0625	-28.0	-43.5625	-1.4631784	0.8660153	-1.3162587
1277224661381	6.0474343	1.4982382	7.273266	-0.22977352	0.0	-27.5625	-28.75	-43.3125	-1.4488385	0.86248434	-1.3279386
1277224661411	6.2108784	1.56634	7.205164	-0.16596508	0.0	-27.3125	-29.8125	-42.5625	-1.4349885	0.8440955	-1.3237548
1277224661441	6.4424243	1.7570249	7.273266	0.0671711	0.0	-27.3125	-30.5625	-42.3125	-1.4246399	0.8280606	-1.3045443
1277224661471	6.5922484	2.1792557	7.4639506	0.3873415	0.0	-27.0625	-31.3125	-41.5	-1.4649603	0.8215335	-1.2515272
1277224661511	6.469665	2.4925237	7.668256	0.53121185	0.0	-26.8125	-31.8125	-41.25	-1.5397528	0.83569705	-1.2030584
1277224661551	6.2108784	2.4516625	7.3549876	0.12720585	0.0	-26.5625	-31.5625	-41.25	-1.5272801	0.83365935	-1.1948354
1277224661591	5.8976107	2.2609777	6.851035	-0.48836136	0.0	-26.375	-31.5625	-41.0	-1.5021362	0.825998	-1.2047063
1277224661631	5.8567495	2.152015	6.6331096	-0.7000141	0.0	-25.875	-32.0625	-41.25	-1.4524046	0.8159575	-1.2186683
1277224661671	6.0201936	2.2201166	6.4424243	-0.71398926	0.0	-25.375	-32.0625	-41.25	-1.3679812	0.7874131	-1.2174914
1277224661711	6.0882955	2.3699405	6.6331096	-0.49632835	0.0	-25.375	-32.5625	-41.0	-1.4063344	0.792979	-1.1995811
1277224661751	6.0201936	2.3018389	6.742072	-0.4794464	0.0	-25.375	-32.8125	-41.0	-1.4450597	0.8079028	-1.2055949
1277224661781	5.829509	2.4516625	6.932757	-0.42278385	0.0	-25.375	-33.125	-40.75	-1.5372573	0.8312812	-1.1726918
1277224661811	6.0882955	2.7649305	7.014479	-0.115670204	0.0	-25.875	-33.875	-40.5	-1.5334067	0.8093158	-1.144506
1277224661841	6.5513873	2.9556155	7.3958488	0.50620174	0.0	-25.375	-34.125	-40.25	-1.5032021	0.7997024	-1.146992
1277224661881	6.510526	3.0645783	7.6273947	0.67932796	0.0	-25.375	-34.625	-39.5	-1.5864093	0.8145107	-1.1308529
1277224661921	6.1700177	3.0237172	7.3958488	0.28842545	0.0	-25.125	-34.875	-39.5	-1.6145674	0.82216257	-1.1151272
1277224661962	6.0474343	2.982856	6.782933	-0.24228573	0.0	-24.375	-35.125	-39.25	-1.5153682	0.78834593	-1.1125687
1277224662009	5.829509	2.9556155	6.5513873	-0.5524883	0.0	-24.625	-35.375	-39.75	-1.5120456	0.78657657	-1.1015569
1277224662041	5.7886477	2.9147544	6.5922484	-0.56208515	0.0	-24.125	-35.375	-40.0	-1.5066584	0.7939023	-1.1043292
1277224662082	5.829509	3.0645783	6.782933	-0.3523922	0.0	-23.625	-35.375	-39.75	-1.5276232	0.80013114	-1.0868
1277224662111	6.0201936	3.1463003	6.8237944	-0.17824936	0.0	-23.4375	-35.625	-40.0	-1.4839345	0.7876755	-1.0892134
1277224662141	5.9793324	3.214402	6.742072	-0.23897934	0.0	-22.9375	-35.875	-39.75	-1.4747869	0.7819611	-1.0775344
1277224662181	5.7477865	3.1463003	6.8237944	-0.34618378	0.0	-22.6875	-36.1875	-39.5	-1.5482041	0.80567133	-1.0699565
1277224662211	5.47538	2.8738933	6.782933	-0.62802124	0.0	-22.9375	-36.1875	-39.75	-1.6015177	0.831573	-1.0874468
1277224662251	5.47538	2.8738933	6.6331096	-0.73817825	0.0	-22.6875	-35.625	-40.0	-1.5483266	0.8204421	-1.0874469
1277224662281	5.829509	3.1054392	6.851035	-0.29015827	0.0	-22.1875	-35.375	-40.0	-1.4896077	0.80367523	-1.0813242
1277224662311	5.829509	3.636633	7.5456724	0.3985176	0.0	-21.6875	-35.375	-40.5	-1.5806181	0.83217454	-1.0130376
1277224662351	6.2108784	4.099725	7.8589406	1.016736	0.0	-20.9375	-35.625	-40.5	-1.5208954	0.8126435	-0.9873622
1277224662381	6.4424243	4.2904096	7.6273947	1.0602541	0.0	-21.1875	-36.4375	-40.5	-1.4479985	0.7780505	-0.98328173
1277224662411	6.1700177	4.440233	7.246025	0.69523907	0.0	-21.6875	-36.9375	-40.5	-1.4396919	0.7614524	-0.9470059
1277224662451	5.7886477	4.1814466	7.0553403	0.23181438	0.0	-21.9375	-36.9375	-40.5	-1.5059752	0.7793689	-0.94522536
1277224662481	4.903325	3.759216	6.4015636	-0.9097786	0.0	-22.1875	-36.6875	-40.25	-1.6206226	0.80312485	-0.91671354
1277224662515	4.6036777	3.2961242	5.8976107	-1.6310711	0.0	-22.1875	-36.4375	-40.0	-1.6074857	0.80577725	-0.94942826
1277224662551	4.9850473	2.9147544	5.597963	-1.7640343	0.0	-21.9375	-36.1875	-39.75	-1.4403505	0.76986396	-1.0417032
1277224662581	5.434519	2.9147544	5.938472	-1.2453861	0.0	-21.9375	-35.625	-39.75	-1.4038523	0.76653606	-1.0785004
1277224662621	5.6660647	3.214402	6.510526	-0.5966759	0.0	-21.9375	-35.625	-40.0	-1.45339	0.7851051	-1.0547622
1277224662661	5.8567495	3.405087	6.973618	-0.08412552	0.0	-21.1875	-35.625	-40.0	-1.4772243	0.799868	-1.0441691
1277224662701	5.8567495	3.405087	7.1234417	0.023891449	0.0	-21.4375	-36.1875	-40.25	-1.5158108	0.810488	-1.0441691
1277224662741	5.7886477	3.2961242	7.273266	0.05607128	0.0	-21.4375	-36.9375	-40.0	-1.5801301	0.82928735	-1.0531719
1277224662771	5.6660647	3.173541	7.504812	0.11795807	0.0	-21.4375	-37.6875	-40.25	-1.6479285	0.8574589	-1.0602348
1277224662801	5.5571017	3.1463003	7.3549876	-0.06619644	0.0	-22.1875	-37.6875	-40.5	-1.6641773	0.8558021	-1.0556184
1277224662831	5.366417	2.982856	7.014479	-0.4846983	0.0	-21.9375	-37.6875	-40.5	-1.6394113	0.85180265	-1.0634824
1277224662861	5.175732	3.1054392	6.8237944	-0.69642925	0.0	-21.6875	-37.9375	-40.75	-1.643239	0.8465911	-1.0303769
1277224662901	5.243834	3.2961242	6.973618	-0.4796152	0.0	-21.6875	-37.9375	-40.5	-1.6642653	0.84455836	-1.009633
1277224662941	5.325556	3.405087	7.0553403	-0.33384705	0.0	-20.9375	-37.9375	-40.0	-1.6512538	0.8402346	-1.0019187
1277224662971	5.284695	3.636633	6.701211	-0.5298338	0.0	-20.25	-37.6875	-40.0	-1.5617324	0.8072106	-0.9680716
1277224663001	5.47538	3.718355	6.701211	-0.3879366	0.0	-20.25	-37.1875	-40.0	-1.5025485	0.79159987	-0.9742323
1277224663031	5.47538	3.759216	6.8237944	-0.28427315	0.0	-19.5	-36.6875	-40.25	-1.4839234	0.79892427	-0.9691427
1277224663062	5.284695	3.8273177	6.851035	-0.34551716	0.0	-19.5	-37.1875	-40.75	-1.5241092	0.80976355	-0.9439952
1277224663101	5.2165933	3.9499009	6.782933	-0.38206863	0.0	-19.5	-37.4375	-40.5	-1.5340458	0.8033796	-0.9227157
1277224663141	5.5571017	4.2086873	6.701211	-0.13707638	0.0	-19.0	-37.6875	-40.5	-1.414236	0.7656702	-0.92260593
1277224663181	5.706926	4.399372	7.082581	0.2971325	0.0	-19.25	-38.1875	-40.25	-1.4804537	0.77677506	-0.91406345
1277224663221	5.434519	4.399372	7.1234417	0.17492771	0.0	-18.75	-37.9375	-39.75	-1.5476773	0.79470766	-0.8902751
1277224663261	5.47538	4.1814466	6.4015636	-0.40216732	0.0	-18.25	-38.1875	-39.75	-1.3926578	0.74870795	-0.9185964
1277224663291	5.5162406	4.099725	6.3607025	-0.44207954	0.0	-18.25	-38.1875	-38.9375	-1.4124511	0.74671376	-0.93165505
1277224663331	5.053149	4.140586	6.510526	-0.58354187	0.0	-18.25	-37.9375	-38.4375	-1.554583	0.7836828	-0.8843334
1277224663371	4.862464	4.0588636	6.6331096	-0.635169	0.0	-18.5	-38.1875	-38.1875	-1.6620306	0.808471	-0.87523204
1277224663401	4.8216033	3.9090397	6.4424243	-0.86051846	0.0	-18.75	-38.6875	-38.4375	-1.6454641	0.80399716	-0.8895442
1277224663431	4.9850473	3.8681788	6.2789803	-0.90501595	0.0	-18.75	-39.5	-39.25	-1.5559839	0.78295046	-0.9108891
1277224663471	5.053149	3.9499009	6.2108784	-0.87854576	0.0	-19.0	-39.75	-39.5	-1.5232869	0.7693309	-0.9073319
1277224663514	5.2165933	4.1814466	6.1291566	-0.7367048	0.0	-18.75	-40.0	-39.25	-1.4614375	0.7420028	-0.8951009
1277224663551	5.597963	4.399372	6.469665	-0.18645096	0.0	-19.0	-40.0	-38.9375	-1.4621991	0.73759294	-0.90471965
1277224663591	5.7477865	4.372132	6.469665	-0.11081791	0.0	-18.5	-40.0	-38.4375	-1.4433062	0.73052734	-0.9205054
1277224663631	5.597963	4.671779	6.2789803	-0.18436813	0.0	-17.8125	-40.0	-38.1875	-1.4020252	0.71093935	-0.8753405
1277224663671	5.9793324	4.944186	6.5922484	0.3744669	0.0	-17.5625	-40.0	-38.4375	-1.3686692	0.70429605	-0.8798791
1277224663711	5.938472	5.012288	6.8237944	0.535141	0.0	-17.0625	-40.0	-38.1875	-1.4152374	0.7205887	-0.86977446
1277224663751	5.597963	4.8216033	6.5513873	0.067848206	0.0	-17.0625	-40.25	-37.9375	-1.4484838	0.7254408	-0.8597705
1277224663781	5.407278	4.671779	6.5922484	-0.084412575	0.0	-16.5625	-40.25	-37.6875	-1.5016165	0.74511826	-0.8582421
1277224663811	5.2165933	4.5219555	6.8237944	-0.09968853	0.0	-17.0625	-40.5	-37.9375	-1.6083717	0.77957815	-0.85660625
1277224663851	4.944186	4.399372	6.701211	-0.38828087	0.0	-17.3125	-39.75	-38.1875	-1.6349963	0.79163677	-0.8436413
1277224663881	5.053149	4.0180025	6.5513873	-0.60886097	0.0	-17.5625	-38.6875	-39.25	-1.5393996	0.7927391	-0.89902085
1277224663921	5.09401	3.990762	6.66035	-0.5203495	0.0	-18.5	-38.4375	-40.5	-1.5296667	0.7998092	-0.90624565
1277224663961	5.053149	4.5219555	7.0553403	-0.020935059	0.0	-18.25	-37.9375	-41.0	-1.5480748	0.8052207	-0.8408179
1277224663991	5.706926	4.8216033	7.8180795	1.0071945	0.0	-17.8125	-37.1875	-42.0	-1.4630667	0.8080908	-0.86928874
1277224664031	6.2108784	4.671779	8.008764	1.3531361	0.0	-17.5625	-36.6875	-42.8125	-1.3650274	0.80041474	-0.9258932
1277224664071	5.706926	4.399372	7.5865335	0.6565695	0.0	-16.5625	-35.375	-43.8125	-1.2983706	0.8111314	-0.9140635
1277224664101	4.671779	3.445948	6.5922484	-1.0226974	0.0	-16.0625	-33.375	-45.3125	-1.26985	0.8487997	-0.9352725
1277224664141	3.9499009	2.4925237	5.938472	-2.2515302	0.0	-16.3125	-31.8125	-46.375	-1.3293557	0.90434366	-1.0078694
1277224664181	4.2904096	2.2201166	6.1700177	-1.9704742	0.0	-16.0625	-30.0625	-46.875	-1.2329655	0.90654105	-1.0932783
1277224664221	4.862464	2.3018389	6.973618	-0.9990759	0.0	-16.5625	-29.0	-47.125	-1.2149866	0.9137097	-1.128663
1277224664261	5.012288	2.6014864	7.7363577	-0.228446	0.0	-16.0625	-28.5	-47.375	-1.2567731	0.9402481	-1.0920473
1277224664301	5.325556	2.9147544	8.117727	0.33015633	0.0	-16.0625	-28.75	-47.375	-1.2388064	0.9286581	-1.0700172
1277224664341	5.7477865	3.1054392	8.19945	0.6772318	0.0	-16.0625	-29.8125	-47.375	-1.1926782	0.8980295	-1.0754429
1277224664371	5.706926	3.336985	8.117727	0.662446	0.0	-16.0625	-30.0625	-47.625	-1.1702478	0.88734674	-1.0416838
1277224664401	5.5571017	3.2961242	7.43671	0.044769287	0.0	-17.0625	-30.3125	-47.125	-1.1317624	0.85548204	-1.0354382
1277224664431	5.597963	3.1054392	6.742072	-0.50952816	0.0	-16.8125	-30.0625	-46.875	-1.0239245	0.81129336	-1.0643178
1277224664471	5.829509	2.6832085	6.8237944	-0.4393158	0.0	-17.5625	-29.5	-47.125	-1.0301945	0.81608164	-1.1394262
1277224664501	5.47538	2.5333846	7.0553403	-0.52356625	0.0	-17.8125	-29.25	-46.625	-1.1435837	0.8633457	-1.1374425
1277224664531	5.012288	2.5606253	7.246025	-0.63142776	0.0	-17.8125	-29.0	-46.875	-1.2540505	0.9103824	-1.098491
1277224664571	4.903325	2.3699405	6.973618	-0.9584551	0.0	-19.0	-29.0	-46.625	-1.2836512	0.9077815	-1.1205707
1277224664611	5.134871	2.1111538	6.66035	-1.1357718	0.0	-19.0	-28.5	-46.625	-1.173398	0.8759133	-1.1807231
1277224664651	5.366417	2.0294318	6.6331096	-1.036521	0.0	-19.25	-28.25	-46.375	-1.1338001	0.8576844	-1.2092471
1277224664691	5.5571017	2.4516625	7.1234417	-0.44526958	0.0	-19.75	-28.5	-46.125	-1.1816474	0.8647595	-1.1553042
1277224664731	5.938472	2.7649305	7.8861814	0.4452839	0.0	-18.75	-28.75	-46.125	-1.1997194	0.87764835	-1.1350485
1277224664789	6.0474343	2.9556155	7.8861814	0.56152153	0.0	-19.0	-29.25	-45.625	-1.2051642	0.86425906	-1.1161982
1277224664821	5.829509	3.1463003	7.205164	-0.019067764	0.0	-19.0	-29.8125	-46.125	-1.1127312	0.8273696	-1.0758802
1277224664851	5.597963	3.1463003	6.891896	-0.3867445	0.0	-18.5	-30.0625	-46.125	-1.0934107	0.82071155	-1.0587535
1277224664891	5.5162406	3.173541	6.6331096	-0.6143484	0.0	-19.25	-29.8125	-46.375	-1.049001	0.8061019	-1.0487301
1277224664931	5.6252036	3.1463003	6.782933	-0.44981766	0.0	-19.0	-30.0625	-46.625	-1.0621543	0.8109148	-1.0608243
1277224664971	5.5571017	3.0645783	7.014479	-0.3474779	0.0	-19.0	-30.3125	-46.375	-1.1429678	0.8353825	-1.0668248
1277224665001	5.597963	2.8738933	7.164303	-0.27125835	0.0	-18.75	-30.0625	-46.375	-1.1675962	0.85008734	-1.0965005
1277224665041	5.6252036	2.7649305	7.205164	-0.25666904	0.0	-18.75	-30.5625	-46.375	-1.1944565	0.85484457	-1.1139513
1277224665071	5.5571017	2.7649305	7.205164	-0.29662323	0.0	-18.75	-30.3125	-46.375	-1.1992986	0.8596875	-1.1091114
1277224665101	5.5571017	2.7240696	7.246025	-0.27738953	0.0	-18.75	-30.3125	-46.875	-1.1943989	0.86392486	-1.1150225
1277224665131	5.6660647	2.8738933	7.5865335	0.088754654	0.0	-19.0	-30.0625	-46.875	-1.2193904	0.8736421	-1.1013962
1277224665171	5.7477865	2.9556155	7.5456724	0.12863445	0.0	-18.75	-29.8125	-46.625	-1.18371	0.8625169	-1.095839
1277224665211	5.6252036	2.8738933	7.0553403	-0.33669758	0.0	-18.75	-30.0625	-46.875	-1.1285316	0.84057057	-1.0984701
1277224665251	5.47538	2.8330324	6.932757	-0.5293131	0.0	-18.75	-29.5	-46.375	-1.1324953	0.8439575	-1.0933156
1277224665281	5.47538	2.6832085	7.0553403	-0.48156452	0.0	-19.25	-29.5	-46.375	-1.1800132	0.85809445	-1.1151406
1277224665311	5.597963	2.7921712	7.164303	-0.29557037	0.0	-19.0	-29.25	-46.875	-1.137322	0.8530024	-1.1081225
1277224665351	5.8567495	2.9147544	7.43671	0.0979929	0.0	-19.25	-29.0	-46.875	-1.1244664	0.84931886	-1.1090109
1277224665381	5.829509	3.0645783	7.504812	0.17818928	0.0	-19.0	-29.0	-47.125	-1.1125687	0.8505158	-1.0868
1277224665411	5.706926	3.0237172	7.164303	-0.16097164	0.0	-18.75	-29.0	-47.375	-1.065008	0.83716434	-1.0835682
1277224665441	5.434519	2.9556155	6.6331096	-0.73649025	0.0	-18.75	-29.5	-47.125	-1.0472853	0.8202424	-1.0726796
1277224665471	5.053149	2.8738933	6.4015636	-1.1594772	0.0	-18.5	-29.5	-47.125	-1.0723517	0.833527	-1.0536846
1277224665501	5.243834	2.6014864	6.5513873	-1.0210819	0.0	-18.5	-29.25	-47.125	-1.0914186	0.84158295	-1.1102705
1277224665541	5.6660647	2.4925237	7.1234417	-0.3694687	0.0	-18.25	-29.5	-47.125	-1.1273922	0.8553907	-1.15637
1277224665581	6.0882955	2.6832085	7.7363577	0.3971815	0.0	-18.5	-28.75	-46.875	-1.1279517	0.8605198	-1.1556898
1277224665621	6.238119	2.7921712	7.9679036	0.6908655	0.0	-18.25	-29.0	-46.625	-1.1408248	0.86181813	-1.1499414
1277224665661	5.5571017	2.7649305	8.008764	0.325799	0.0	-18.75	-29.8125	-46.625	-1.3149884	0.911474	-1.1091114
1277224665701	4.944186	2.982856	6.973618	-0.75271416	0.0	-19.25	-29.0	-46.375	-1.2262486	0.87920254	-1.0279497
1277224665741	5.706926	2.6423476	6.5922484	-0.6957369	0.0	-19.5	-29.25	-46.625	-1.0515559	0.808939	-1.1371784
1277224665781	5.9793324	2.7649305	7.0553403	-0.1539259	0.0	-20.0	-28.5	-46.625	-1.0593047	0.8196646	-1.1376665
1277224665821	5.7886477	3.1463003	7.6273947	0.27227783	0.0	-19.5	-28.0	-46.625	-1.1203593	0.8583522	-1.0729345
1277224665851	5.7886477	2.9556155	7.3549876	0.008641243	0.0	-18.75	-28.5	-47.125	-1.0812762	0.8470644	-1.098714
1277224665891	5.597963	2.4108016	6.66035	-0.77839375	0.0	-18.75	-27.75	-47.375	-1.0166967	0.8296909	-1.1641439
1277224665931	5.434519	2.1111538	6.3607025	-1.178237	0.0	-19.0	-27.5	-47.625	-1.0098159	0.82888883	-1.2002679
1277224665961	5.597963	2.3699405	6.782933	-0.6983032	0.0	-19.25	-27.0	-47.625	-1.0165141	0.84007657	-1.1703175
1277224665991	6.1700177	2.7240696	7.668256	0.40568638	0.0	-20.0	-26.75	-47.125	-1.056045	0.849396	-1.1550325
1277224666021	6.4015636	3.0237172	8.471856	1.2339668	0.0	-19.75	-27.25	-47.125	-1.1330061	0.87467533	-1.1295202
1277224666061	5.938472	3.255263	8.771504	1.2749329	0.0	-19.5	-27.25	-47.125	-1.2456195	0.91332316	-1.0693629
1277224666101	4.903325	3.214402	8.049625	0.1518364	0.0	-19.25	-27.25	-47.125	-1.357093	0.9412898	-0.99052554
1277224666141	4.7126403	2.8330324	7.1234417	-0.80784607	0.0	-18.25	-26.75	-48.375	-1.1368082	0.913421	-1.0295272
1277224666183	5.407278	2.4516625	7.082581	-0.5647745	0.0	-17.5625	-25.6875	-49.1875	-0.96375275	0.87315184	-1.1451181
1277224666221	5.284695	2.4516625	7.8589406	-0.02393055	0.0	-16.5625	-24.9375	-49.9375	-1.0376191	0.9328983	-1.1364291
1277224666261	5.5571017	2.0294318	8.117727	0.23812294	0.0	-15.5625	-23.9375	-50.9375	-0.97797155	0.94101167	-1.2206484
1277224666301	5.325556	1.6889231	7.668256	-0.3189659	0.0	-15.3125	-23.125	-50.6875	-0.95198333	0.9411445	-1.2636939
1277224666341	4.6036777	1.6480621	7.164303	-1.1327124	0.0	-15.125	-22.125	-51.4375	-0.9573777	0.9718983	-1.2270229
1277224666381	4.5628166	1.3756552	7.164303	-1.2020607	0.0	-14.875	-20.875	-52.25	-0.9153984	0.98381096	-1.2779708
1277224666411	4.903325	1.4982382	7.5865335	-0.6500788	0.0	-14.875	-20.0625	-52.75	-0.85549587	0.976485	-1.2742505
1277224666441	5.243834	1.7570249	8.076866	-0.017846107	0.0	-15.3125	-19.5625	-53.25	-0.8119343	0.9704015	-1.2474881
1277224666471	5.325556	1.9477097	8.662541	0.5468397	0.0	-15.3125	-20.0625	-53.25	-0.8739633	0.99119014	-1.2201784
1277224666501	5.366417	2.152015	8.812365	0.7331495	0.0	-15.5625	-20.625	-52.25	-0.91993743	0.9901415	-1.1894151
1277224666541	5.175732	2.2201166	8.430995	0.33232403	0.0	-16.0625	-20.875	-52.0	-0.92102116	0.9818802	-1.165587
1277224666581	4.8216033	2.070293	7.504812	-0.64934826	0.0	-16.3125	-21.625	-52.0	-0.90646976	0.9606148	-1.1652229
1277224666621	5.175732	1.7570249	6.891896	-1.0104256	0.0	-16.8125	-21.125	-52.25	-0.78287476	0.9002884	-1.2435297
1277224666661	5.7477865	1.7978859	7.1234417	-0.47858143	0.0	-16.3125	-20.875	-52.75	-0.7129716	0.8689581	-1.2676417
1277224666701	5.7477865	2.3018389	7.9679036	0.28408813	0.0	-16.8125	-20.625	-52.75	-0.7448094	0.9101983	-1.1898814
1277224666741	5.325556	2.3699405	8.308413	0.34262943	0.0	-16.3125	-19.5625	-52.25	-0.7828554	0.9590057	-1.1520975
1277224666781	5.134871	2.2201166	7.7363577	-0.2595539	0.0	-16.3125	-19.3125	-51.4375	-0.76180273	0.9447256	-1.1627077
1277224666811	5.325556	2.070293	7.7772183	-0.15611744	0.0	-17.0625	-19.0625	-52.25	-0.7452927	0.93716854	-1.2000284
1277224666841	5.134871	2.1792557	7.8180795	-0.2025671	0.0	-16.5625	-19.0625	-52.25	-0.7506813	0.9510693	-1.1694312
1277224666871	5.012288	2.2201166	7.7363577	-0.3249216	0.0	-17.0625	-19.3125	-52.0	-0.7759017	0.9543233	-1.1538334
1277224666901	4.944186	2.2201166	7.668256	-0.41644	0.0	-17.0625	-19.3125	-51.75	-0.7821667	0.9555345	-1.1487445
1277224666941	4.671779	2.1792557	7.3549876	-0.8249731	0.0	-17.0625	-19.8125	-51.1875	-0.82827735	0.9594709	-1.1343287
1277224666971	4.7943625	1.7978859	7.205164	-0.9673805	0.0	-17.0625	-19.5625	-51.1875	-0.8408229	0.95295554	-1.2120256
1277224667001	4.7943625	1.607201	6.782933	-1.3463192	0.0	-16.3125	-19.0625	-52.0	-0.7504992	0.93019044	-1.2473422
1277224667041	5.053149	1.5390993	7.164303	-0.9055052	0.0	-15.8125	-19.0625	-52.5	-0.7540485	0.9354636	-1.275141
1277224667071	5.6660647	1.3756552	7.7363577	-0.1191349	0.0	-14.875	-18.5625	-52.5	-0.7202413	0.9249497	-1.3326164
1277224667111	5.8567495	1.2666923	7.9679036	0.16297913	0.0	-13.375	-18.3125	-52.75	-0.6926344	0.9259924	-1.357798
1277224667141	5.434519	1.2666923	8.158588	0.07773495	0.0	-12.4375	-18.0625	-53.0	-0.72888786	0.9709134	-1.3418021
1277224667191	4.5219555	1.6889231	8.430995	-0.091599464	0.0	-11.1875	-17.3125	-53.5	-0.7883961	1.0508145	-1.2133466
1277224667231	4.372132	1.9885708	8.62168	0.062662125	0.0	-10.1875	-16.25	-53.5	-0.7198999	1.0625201	-1.1439341
1277224667271	4.440233	2.070293	8.62168	0.10975838	0.0	-9.9375	-16.25	-53.5	-0.6948798	1.0540591	-1.134505
1277224667301	4.099725	2.2201166	8.62168	-0.0051174164	0.0	-8.75	-16.0	-53.75	-0.6859867	1.0750748	-1.0744807
1277224667341	3.6774938	2.2609777	8.62168	-0.16458797	0.0	-8.25	-15.75	-53.75	-0.71839637	1.1065825	-1.0195547
1277224667381	3.405087	2.2609777	8.390134	-0.4738598	0.0	-8.25	-16.25	-54.25	-0.7569459	1.1174697	-0.98464215
1277224667411	3.6774938	2.1111538	8.430995	-0.3693514	0.0	-7.25	-15.5	-55.0625	-0.67718893	1.1047893	-1.0496582
1277224667441	3.718355	2.0294318	8.430995	-0.37126827	0.0	-7.0	-15.25	-55.0625	-0.6684974	1.1051934	-1.071193
1277224667471	3.6774938	2.070293	8.430995	-0.37840843	0.0	-6.5625	-16.0	-55.3125	-0.70408076	1.1067028	-1.0580553
1277224667501	3.6774938	2.0294318	8.730643	-0.11816788	0.0	-5.3125	-16.5	-55.0625	-0.7601047	1.1223835	-1.0665325
1277224667541	3.6774938	2.070293	9.152874	0.2722969	0.0	-5.8125	-17.3125	-54.5	-0.86119306	1.1387674	-1.0580552
1277224667581	3.5276701	1.9885708	9.152874	0.20204449	0.0	-5.5625	-18.0625	-54.0	-0.94963294	1.1542512	-1.0574908
1277224667621	3.486809	1.920469	8.962189	-1.7929077E-4	0.0	-5.0625	-17.8125	-54.0	-0.92034316	1.1528035	-1.0673535
1277224667661	3.405087	2.1792557	9.043911	0.09971619	0.0	-4.5625	-17.3125	-54.5	-0.87067723	1.1504295	-1.0014831
1277224667701	3.2961242	2.2609777	9.152874	0.18091965	0.0	-3.875	-17.5625	-54.25	-0.9037514	1.1590581	-0.96956193
1277224667741	3.0237172	2.3018389	9.00305	-0.03443241	0.0	-3.875	-17.5625	-54.8125	-0.9298422	1.1713856	-0.92012686
1277224667781	3.1054392	2.1792557	8.62168	-0.387187	0.0	-3.625	-17.8125	-54.8125	-0.8962281	1.1562642	-0.9588939
1277224667821	3.0645783	2.1111538	8.390134	-0.62825394	0.0	-3.625	-18.3125	-54.25	-0.9271867	1.1533263	-0.9675665
1277224667851	2.982856	2.152015	8.771504	-0.2951889	0.0	-3.375	-18.3125	-54.5	-0.9781686	1.173741	-0.94581157
1277224667881	3.0237172	2.3018389	8.894087	-0.13472652	0.0	-3.125	-18.0625	-54.25	-0.9476777	1.1670048	-0.92012686
1277224667921	3.214402	2.3699405	8.921328	-0.032240868	0.0	-3.375	-18.3125	-53.75	-0.92676723	1.1498996	-0.93548054
1277224667961	3.214402	2.4925237	9.084772	0.14715004	0.0	-3.125	-18.3125	-54.0	-0.9195131	1.1498284	-0.91122156
1277224667991	3.173541	2.4925237	8.894087	-0.039930344	0.0	-2.875	-17.8125	-54.0	-0.87416494	1.1448603	-0.90501666
1277224668023	3.0645783	2.4108016	8.662541	-0.30700588	0.0	-2.875	-17.5625	-53.75	-0.87223047	1.1478428	-0.90423846
1277224668061	3.0645783	2.2609777	8.539958	-0.45600605	0.0	-2.375	-17.3125	-54.0	-0.856296	1.151318	-0.93516344
1277224668101	3.173541	2.152015	8.62168	-0.37076664	0.0	-2.375	-16.5	-54.25	-0.8076096	1.1523271	-0.9749121
1277224668131	3.1054392	2.1792557	9.00305	-0.036910057	0.0	-2.125	-17.0	-54.25	-0.8814002	1.1719869	-0.95889384
1277224668161	2.7921712	2.3018389	9.302697	0.17507553	0.0	-1.875	-17.3125	-54.5	-0.9807706	1.1998171	-0.88135916
1277224668201	2.6423476	2.3699405	9.084772	-0.053102493	0.0	-1.375	-17.0	-54.5	-0.9548703	1.1983299	-0.8396926
1277224668241	3.0237172	2.3426998	8.539958	-0.449193	0.0	-1.1875	-18.0625	-54.25	-0.8790952	1.1496885	-0.911627
1277224668281	3.336985	2.5606253	8.689782	-0.15239811	0.0	-1.375	-17.8125	-54.0	-0.8049401	1.1199965	-0.91628534
1277224668321	3.1054392	2.8330324	9.193735	0.30248356	0.0	-1.625	-17.8125	-53.75	-0.86217713	1.1419554	-0.83123755
1277224668361	2.8738933	2.8330324	9.343558	0.37114048	0.0	-1.875	-17.8125	-53.25	-0.93400913	1.1630934	-0.7925579
1277224668391	2.8330324	2.5606253	8.771504	-0.23992825	0.0	-1.875	-17.0	-53.25	-0.872604	1.1601844	-0.8358604
1277224668421	2.8330324	2.1792557	8.308413	-0.7620411	0.0	-1.1875	-16.75	-53.25	-0.86042356	1.1645329	-0.9151007
1277224668451	2.8330324	1.9477097	8.349273	-0.7772541	0.0	-0.9375	-16.25	-53.75	-0.85256743	1.1801858	-0.968509
1277224668481	2.7921712	2.1111538	8.853226	-0.28652382	0.0	-1.1875	-16.5	-54.0	-0.9077224	1.1942723	-0.9234042
1277224668511	2.5606253	2.1792557	9.534244	0.30313492	0.0	-1.625	-16.75	-54.0	-1.0602105	1.2317456	-0.865685
1277224668541	2.5333846	2.3426998	9.534244	0.3327818	0.0	-2.125	-17.5625	-54.25	-1.1031861	1.2235501	-0.8244844
1277224668581	2.7649305	2.1111538	8.730643	-0.40846157	0.0	-1.625	-17.5625	-54.25	-0.96530986	1.1916229	-0.9186815
1277224668621	3.0645783	1.9885708	8.158588	-0.8674879	0.0	-1.625	-17.5625	-54.25	-0.96530986	1.1916229	-0.9186815
1277224668661	3.3778462	2.1792557	8.308413	-0.57687664	0.0	-1.375	-17.0	-54.25	-0.7584002	1.1201714	-0.9978302
1277224668701	3.405087	2.3699405	9.00305	0.10627842	0.0	-1.625	-16.25	-54.25	-0.7597815	1.1389941	-0.96276
1277224668741	2.7240696	2.5333846	9.656827	0.5419197	0.0	-2.125	-16.5	-54.0	-0.958235	1.2030939	-0.82165176
1277224668781	2.7240696	2.4108016	9.043911	-0.058581352	0.0	-2.125	-16.75	-54.0	-0.9258916	1.1883765	-0.8463306
1277224668821	2.8738933	2.1792557	8.281172	-0.7741413	0.0	-2.625	-16.75	-54.25	-0.84359014	1.1600387	-0.9220082
1277224668851	2.6832085	1.920469	8.240311	-0.9302473	0.0	-2.375	-16.75	-54.25	-0.91976994	1.1899192	-0.9495871
1277224668881	2.6423476	1.879608	8.390134	-0.81169224	0.0	-1.875	-16.75	-54.5	-0.9404575	1.2019936	-0.9525
1277224668921	2.8330324	2.070293	8.580819	-0.5361252	0.0	-1.875	-16.25	-54.8125	-0.85392064	1.1826237	-0.93971694
1277224668961	3.214402	2.2201166	9.00305	0.007431984	0.0	-0.9375	-16.75	-54.5	-0.8244068	1.1613977	-0.9663542
1277224668991	3.0237172	2.3426998	9.234595	0.18879223	0.0	-1.1875	-17.0	-54.8125	-0.880885	1.1781001	-0.911627
1277224669024	2.9147544	2.3018389	9.043911	-0.029810905	0.0	-1.375	-16.75	-54.5	-0.8828916	1.1811256	-0.90235543
1277224669061	2.9147544	2.3018389	9.00305	-0.067596436	0.0	-1.1875	-17.0	-54.5	-0.8913145	1.1795318	-0.9023554
1277224669101	3.0645783	2.4925237	9.084772	0.09978199	0.0	-1.375	-16.5	-54.8125	-0.8112812	1.1606386	-0.88797796
1277224669141	3.0645783	2.4925237	9.043911	0.06232357	0.0	-1.375	-16.25	-54.8125	-0.7928314	1.1589874	-0.887978
1277224669171	2.7921712	2.3018389	8.962189	-0.14148045	0.0	-1.375	-16.25	-55.0625	-0.85974294	1.1870446	-0.88135916
1277224669211	2.5606253	2.0294318	8.62168	-0.58662987	0.0	-0.9375	-16.0	-54.5	-0.9080243	1.2085531	-0.9006126
1277224669251	2.5333846	1.920469	8.62168	-0.61754704	0.0	-1.1875	-16.25	-54.25	-0.95421845	1.2175381	-0.92215383
1277224669291	2.6832085	2.152015	8.894087	-0.27063656	0.0	-0.6875	-15.75	-54.5	-0.87176603	1.2017839	-0.8948185
1277224669321	2.7921712	2.3426998	9.152874	0.045230865	0.0	-0.1875	-16.25	-54.25	-0.87799305	1.1918323	-0.8727088
1277224669361	2.7649305	2.4516625	9.112013	0.026165962	0.0	-0.4375	-16.25	-54.5	-0.8614395	1.1855186	-0.84537834
1277224669391	2.8738933	2.5333846	9.043911	0.015245438	0.0	-0.4375	-16.75	-54.5	-0.85123986	1.1701031	-0.8482874
1277224669421	2.8738933	2.3426998	9.043911	-0.032201767	0.0	-0.6875	-17.0	-54.5	-0.8937508	1.1817219	-0.88687605
1277224669461	2.6832085	2.3699405	8.894087	-0.21910572	0.0	-0.9375	-16.5	-54.5	-0.88737	1.1881264	-0.8473136
1277224669491	2.7921712	2.4516625	8.894087	-0.16758156	0.0	-0.4375	-16.0	-54.8125	-0.8138303	1.1750581	-0.85024226
1277224669524	2.8330324	2.3699405	8.894087	-0.17610073	0.0	-0.1875	-15.25	-55.3125	-0.765592	1.177181	-0.87416947
1277224669561	2.6014864	2.1111538	8.730643	-0.45524216	0.0	0.0625	-15.25	-54.5	-0.8423387	1.2043822	-0.88907135
1277224669601	2.4516625	1.920469	8.499097	-0.7549372	0.0	0.0625	-15.5	-54.8125	-0.8892386	1.2195629	-0.90630096
1277224669641	2.4108016	2.0294318	8.662541	-0.5887232	0.0	-0.6875	-16.25	-54.8125	-0.9590952	1.2218965	-0.8710775
1277224669681	2.6423476	2.3426998	9.275456	0.11828518	0.0	-0.9375	-16.0	-54.8125	-0.9043394	1.2070229	-0.84543526
1277224669721	2.6423476	2.4108016	9.466142	0.31272793	0.0	-1.1875	-15.75	-55.3125	-0.8886388	1.2095215	-0.8311882
1277224669761	2.8738933	2.1792557	8.853226	-0.24694157	0.0	-1.1875	-15.5	-55.3125	-0.7990892	1.1839352	-0.9220082
1277224669801	3.1463003	1.9885708	8.730643	-0.31572056	0.0	-0.9375	-15.0	-55.0625	-0.73426205	1.1678085	-1.0071543
1277224669841	2.982856	1.9885708	9.084772	-0.04012966	0.0	-0.6875	-15.75	-54.5	-0.8425523	1.1949446	-0.9827937
1277224669871	2.5606253	1.7978859	9.152874	-0.1337862	0.0	-0.4375	-15.75	-54.8125	-0.96114206	1.2414142	-0.9586438
1277224669902	2.6832085	1.6480621	9.084772	-0.19161987	0.0	-0.4375	-15.5	-55.0625	-0.91354024	1.2371397	-1.0199914
1277224669941	2.7921712	1.4982382	8.853226	-0.40342999	0.0	0.0625	-15.25	-55.3125	-0.8469934	1.2270834	-1.0783106
1277224669971	2.7649305	1.7297841	9.112013	-0.12854195	0.0	-0.1875	-14.5	-55.3125	-0.82562506	1.2270765	-1.0117543
1277224670001	2.7921712	1.920469	9.425281	0.20935345	0.0	0.0625	-14.75	-54.8125	-0.8490274	1.2256384	-0.96830195
1277224670031	2.6832085	1.9477097	9.343558	0.107746124	0.0	0.0625	-15.0	-54.5	-0.8846991	1.229804	-0.9429061
1277224670071	2.6014864	2.1111538	8.962189	-0.23870754	0.0	-0.1875	-15.0	-55.3125	-0.83787924	1.2130526	-0.8890714
1277224670111	3.0237172	2.2201166	8.853226	-0.1914854	0.0	-0.1875	-15.25	-55.8125	-0.7405891	1.1700152	-0.9374619
1277224670151	2.9147544	2.3018389	8.962189	-0.10535717	0.0	-0.1875	-15.25	-56.0625	-0.75497556	1.1779256	-0.9023554
1277224670181	2.6832085	2.070293	8.894087	-0.28874588	0.0	-0.1875	-14.75	-56.3125	-0.7884647	1.2067353	-0.9136304
1277224670221	2.6423476	1.8387469	8.853226	-0.38632107	0.0	-0.4375	-14.5	-55.8125	-0.81638354	1.2220448	-0.9628433
1277224670261	2.6423476	1.920469	9.112013	-0.12682629	0.0	-0.4375	-14.25	-55.3125	-0.8233175	1.2265816	-0.94230664
1277224670301	2.4925237	2.0294318	9.384419	0.112957	0.0	-1.1875	-13.4375	-55.0625	-0.8244066	1.2408122	-0.887452
1277224670341	2.6423476	2.070293	9.193735	-0.019266129	0.0	-1.375	-13.6875	-54.25	-0.79899853	1.220717	-0.90619445
1277224670381	2.7649305	2.0294318	9.00305	-0.17242241	0.0	-1.375	-13.9375	-54.0	-0.78255767	1.2068123	-0.9376205
1277224670411	2.982856	1.9885708	8.894087	-0.21724796	0.0	-1.375	-13.1875	-54.5	-0.6837747	1.1876454	-0.9827937
1277224670441	3.1463003	1.7570249	8.921328	-0.18498516	0.0	-1.1875	-13.6875	-54.5	-0.7087586	1.1869001	-1.0614952
1277224670471	3.1054392	1.56634	8.921328	-0.23130322	0.0	-1.625	-13.4375	-55.0625	-0.71365285	1.1990587	-1.103646
1277224670501	2.9147544	1.3075534	8.812365	-0.43311024	0.0	-2.125	-12.9375	-55.3125	-0.7368986	1.2230175	-1.1491088
1277224670531	2.6423476	1.2258313	8.853226	-0.48654938	0.0	-2.375	-12.9375	-55.0625	-0.82137764	1.2529371	-1.1364291
1277224670571	2.7649305	1.0760075	8.730643	-0.58565426	0.0	-2.875	-12.4375	-55.0625	-0.7685712	1.2432114	-1.1996673
1277224670611	3.214402	0.95342433	8.539958	-0.6321049	0.0	-2.375	-11.9375	-55.3125	-0.6247463	1.1966822	-1.2824523
1277224670651	3.255263	1.2258313	8.894087	-0.25656223	0.0	-1.875	-11.9375	-55.0625	-0.62712854	1.1979915	-1.2106508
1277224670691	3.0645783	1.6889231	9.724928	0.5286455	0.0	-1.625	-12.6875	-54.8125	-0.7336264	1.2254059	-1.0671005
1277224670731	2.6014864	2.070293	9.915613	0.65151596	0.0	-1.1875	-12.4375	-54.8125	-0.7739162	1.2472743	-0.8986145
1277224670771	2.6423476	1.9885708	8.771504	-0.43244553	0.0	-1.625	-12.4375	-54.8125	-0.67810535	1.2102565	-0.9256478
1277224670811	3.0645783	1.7297841	8.117727	-0.95897865	0.0	-1.875	-12.1875	-55.0625	-0.5765181	1.1617454	-1.056931
1277224670851	3.173541	1.7570249	8.580819	-0.49059105	0.0	-1.875	-11.6875	-55.3125	-0.5614644	1.1708406	-1.0651566
1277224670891	3.1054392	1.7297841	9.234595	0.08848286	0.0	-2.125	-12.1875	-55.8125	-0.64480746	1.2033458	-1.0625813
1277224670931	2.9556155	1.4165162	9.302697	0.056531906	0.0	-1.875	-12.6875	-55.5625	-0.7377006	1.232056	-1.1238757
1277224670971	2.7240696	1.334794	8.853226	-0.44813347	0.0	-1.875	-13.1875	-55.3125	-0.7931805	1.2406884	-1.1151807
1277224671001	3.0645783	1.607201	9.00305	-0.16146278	0.0	-1.625	-13.4375	-54.8125	-0.72831535	1.2038411	-1.087785
1277224671031	3.214402	1.879608	9.193735	0.11252689	0.0	-1.1875	-13.4375	-54.5	-0.69393986	1.1859728	-1.0416687
1277224671061	3.0645783	1.9477097	9.112013	0.0022230148	0.0	-1.375	-12.9375	-54.8125	-0.67321765	1.1915829	-1.0046425
1277224671101	2.982856	1.9477097	8.921328	-0.20034504	0.0	-1.875	-12.9375	-55.3125	-0.66585195	1.1908783	-0.99233747
1277224671131	2.9556155	1.920469	8.730643	-0.39134407	0.0	-2.375	-12.6875	-55.8125	-0.6367226	1.1870859	-0.99458313
1277224671161	3.173541	1.8387469	8.689782	-0.37454224	0.0	-2.875	-12.6875	-55.3125	-0.62005293	1.1714053	-1.0456623
1277224671191	3.0645783	1.6889231	8.853226	-0.2870016	0.0	-2.375	-13.4375	-55.0625	-0.7134152	1.1943992	-1.0671004
1277224671231	2.9147544	1.6480621	8.853226	-0.34137154	0.0	-1.875	-13.4375	-54.8125	-0.74518836	1.2092105	-1.0561911
1277224671271	3.0237172	1.6889231	9.084772	-0.084077835	0.0	-1.875	-13.4375	-54.5	-0.7435839	1.2065712	-1.061406
1277224671311	2.9556155	1.7978859	9.384419	0.1951189	0.0	-1.875	-13.4375	-55.0625	-0.76288056	1.2176118	-1.0243
1277224671341	2.982856	1.7297841	9.084772	-0.08951759	0.0	-2.125	-13.4375	-55.0625	-0.7419552	1.2080425	-1.0452808
1277224671381	3.0645783	1.5390993	8.499097	-0.6417656	0.0	-2.625	-13.4375	-54.8125	-0.7044681	1.1872797	-1.1053725
1277224671411	3.255263	1.4982382	8.499097	-0.5829792	0.0	-2.125	-13.6875	-55.0625	-0.677832	1.1717813	-1.1394504
1277224671441	2.982856	1.6480621	9.234595	0.036686897	0.0	-2.125	-13.6875	-55.0625	-0.677832	1.1717813	-1.1394504
1277224671481	2.6832085	1.8387469	9.615966	0.34457588	0.0	-2.125	-13.6875	-55.0625	-0.677832	1.1717813	-1.1394504
1277224671511	2.8330324	1.7570249	9.112013	-0.10397053	0.0	-1.875	-13.1875	-55.3125	-0.74949217	1.2200698	-1.0156617
1277224671551	2.9556155	1.7570249	8.580819	-0.5625572	0.0	-2.125	-12.9375	-55.5625	-0.6635806	1.1896772	-1.0344529
1277224671591	3.1054392	1.879608	8.921328	-0.17509937	0.0	-1.875	-13.4375	-55.5625	-0.68020004	1.1843672	-1.0265158
1277224671631	2.8738933	2.1792557	9.534244	0.38698578	0.0	-1.625	-12.9375	-56.0625	-0.68944633	1.2091436	-0.9220082
1277224671661	2.8738933	1.9885708	9.152874	-0.009263992	0.0	-1.375	-13.1875	-55.8125	-0.7043066	1.2060546	-0.9654981
1277224671701	2.9147544	1.7978859	8.499097	-0.6435261	0.0	-1.875	-13.6875	-55.8125	-0.697979	1.1877562	-1.0180991
1277224671741	3.1054392	1.7297841	8.580819	-0.5186815	0.0	-1.875	-13.1875	-55.5625	-0.6545747	1.1780565	-1.0625813
1277224671781	2.9556155	1.7978859	9.343558	0.15678978	0.0	-1.875	-13.4375	-55.5625	-0.7516034	1.2161932	-1.0243
1277224671821	2.7240696	1.6889231	9.466142	0.18739128	0.0	-2.125	-13.6875	-55.8125	-0.84351015	1.2443208	-1.0158006
1277224671861	2.7240696	1.6889231	8.812365	-0.4295082	0.0	-1.625	-13.9375	-55.5625	-0.79446524	1.2219592	-1.0158006
1277224671891	3.1054392	1.8387469	8.62168	-0.4600935	0.0	-1.875	-13.6875	-55.8125	-0.67109096	1.1743643	-1.036202
1277224671931	3.3778462	2.0294318	9.00305	0.021032333	0.0	-1.875	-13.1875	-55.5625	-0.616644	1.15822	-1.0297841
1277224671961	2.9556155	1.9477097	9.343558	0.18491173	0.0	-2.125	-13.4375	-55.5625	-0.73539037	1.2086679	-0.9881299
1277224671991	2.7240696	1.7570249	9.275456	0.018918037	0.0	-1.875	-12.9375	-55.3125	-0.771148	1.2345874	-0.9979441
1277224672021	2.7921712	1.7297841	8.962189	-0.2615366	0.0	-2.375	-13.1875	-55.0625	-0.7575303	1.219506	-1.0161531
1277224672051	3.0237172	1.7978859	8.894087	-0.24213028	0.0	-2.375	-13.4375	-55.0625	-0.7123841	1.1941522	-1.0343609
1277224672091	3.214402	1.920469	8.962189	-0.093699455	0.0	-1.625	-13.1875	-54.25	-0.6645883	1.1750394	-1.0322483
1277224672131	2.982856	2.0294318	8.894087	-0.2086916	0.0	-2.125	-13.4375	-54.0	-0.7044411	1.1854396	-0.9733699
1277224672162	2.982856	1.9477097	9.00305	-0.124403	0.0	-1.375	-13.4375	-54.0	-0.72018945	1.1940085	-0.99233747
1277224672201	2.8738933	1.7978859	9.152874	-0.04618168	0.0	-1.625	-13.9375	-54.0	-0.8050707	1.2160927	-1.0117711
1277224672231	2.7240696	1.6480621	9.084772	-0.18013763	0.0	-1.625	-13.9375	-54.8125	-0.8363744	1.2337153	-1.0267085
1277224672261	2.9147544	1.7978859	8.771504	-0.39030933	0.0	-1.375	-14.25	-55.0625	-0.7614261	1.1985685	-1.0180992
1277224672301	3.173541	1.920469	8.689782	-0.35827065	0.0	-1.375	-14.25	-55.3125	-0.6921531	1.1673446	-1.0265985
1277224672341	3.1054392	1.879608	8.962189	-0.13723946	0.0	-1.375	-13.6875	-55.0625	-0.701715	1.1859599	-1.0265158
1277224672381	2.9147544	1.6889231	8.853226	-0.3341713	0.0	-1.625	-13.6875	-54.8125	-0.75307554	1.2072062	-1.0456322
1277224672411	2.8738933	1.607201	8.962189	-0.25870895	0.0	-1.875	-13.1875	-55.0625	-0.7483093	1.2186989	-1.0608854
1277224672441	2.9147544	1.7297841	9.152874	-0.04637146	0.0	-1.875	-13.1875	-55.0625	-0.7483093	1.2186989	-1.0608854
1277224672471	2.9556155	1.7978859	9.084772	-0.08548069	0.0	-1.875	-13.4375	-55.5625	-0.7295643	1.20695	-1.0243
1277224672528	3.0645783	1.9477097	8.580819	-0.48915768	0.0	-2.125	-14.25	-55.5625	-0.69857913	1.1704768	-1.0046425
1277224672571	3.0645783	2.0294318	9.084772	-0.0064811707	0.0	-2.125	-13.9375	-55.8125	-0.70990515	1.1863375	-0.985877
1277224672611	2.8330324	2.2201166	9.575105	0.42260265	0.0	-2.125	-14.5	-55.5625	-0.8102172	1.2112349	-0.90610236
1277224672651	2.8738933	1.9885708	8.894087	-0.2505808	0.0	-1.875	-14.5	-55.0625	-0.7778031	1.1963943	-0.9654981
1277224672691	2.8330324	1.7297841	8.430995	-0.7457504	0.0	-1.1875	-13.4375	-55.0625	-0.70649827	1.1957237	-1.0226359
1277224672731	2.982856	1.6889231	8.730643	-0.42720318	0.0	-1.1875	-13.6875	-54.25	-0.732706	1.1966695	-1.055593
1277224672771	3.214402	1.7297841	9.043911	-0.05386257	0.0	-1.1875	-12.9375	-54.0	-0.674061	1.1871754	-1.0771077
1277224672811	2.982856	1.920469	9.575105	0.4045334	0.0	-1.375	-12.6875	-54.25	-0.7196022	1.2159722	-0.9987668
1277224672851	2.7649305	2.070293	9.575105	0.37242603	0.0	-1.625	-13.4375	-54.0	-0.7987601	1.2245858	-0.92808384
1277224672891	2.8330324	1.9885708	8.853226	-0.30085754	0.0	-1.625	-13.6875	-54.25	-0.74248207	1.1981046	-0.9587809
1277224672931	2.7649305	1.920469	8.281172	-0.8673639	0.0	-1.625	-13.9375	-54.5	-0.7230011	1.1846824	-0.9637163
1277224672971	3.0237172	1.9477097	8.499097	-0.5778322	0.0	-1.375	-14.5	-54.8125	-0.7193689	1.1704605	-0.99854875
1277224673001	3.0237172	1.920469	9.112013	-0.015846252	0.0	-1.625	-14.5	-55.3125	-0.7699738	1.1962413	-1.0049419
1277224673041	2.7649305	1.7978859	9.534244	0.28190994	0.0	-1.375	-14.25	-55.3125	-0.8593862	1.2377627	-0.9942479
1277224673081	2.7921712	1.6480621	9.112013	-0.13498497	0.0	-1.375	-14.5	-55.3125	-0.8439289	1.2289426	-1.0375813
1277224673121	3.173541	1.6480621	8.662541	-0.43503857	0.0	-1.375	-14.5	-55.3125	-0.8439289	1.2289426	-1.0375813
1277224673161	3.405087	1.9885708	9.234595	0.23460388	0.0	-1.1875	-14.25	-55.0625	-0.69391847	1.1672279	-1.0422246
1277224673201	3.2961242	2.2609777	9.656827	0.64470196	0.0	-1.1875	-14.75	-55.0625	-0.74562126	1.1783564	-0.969562
1277224673249	3.1054392	2.152015	9.507003	0.4236002	0.0	-1.875	-14.75	-55.3125	-0.7794291	1.1925211	-0.96479565
1277224673291	3.0237172	1.7978859	8.689782	-0.43181324	0.0	-2.625	-15.25	-55.0625	-0.80357987	1.1861368	-1.0343609
1277224673321	3.214402	1.7570249	8.390134	-0.651659	0.0	-3.375	-15.0	-55.0625	-0.73673594	1.1591282	-1.0705594
1277224673351	3.5276701	1.7297841	8.62168	-0.33194828	0.0	-4.3125	-14.25	-55.0625	-0.6754282	1.143208	-1.1149005
1277224673381	3.5276701	1.7570249	8.962189	-0.016225815	0.0	-5.0625	-13.9375	-54.8125	-0.6961285	1.1565093	-1.1086943
1277224673411	3.486809	1.7297841	9.112013	0.10186958	0.0	-5.3125	-13.1875	-54.5	-0.68195075	1.1670966	-1.1102786
1277224673441	3.5276701	1.6480621	9.152874	0.1399908	0.0	-6.0625	-13.4375	-54.8125	-0.7104492	1.1685847	-1.1337465
1277224673481	3.636633	1.7978859	9.00305	0.06818676	0.0	-6.3125	-13.4375	-54.8125	-0.65946275	1.1474426	-1.1116532
1277224673511	4.0588636	1.879608	8.662541	-0.057448387	0.0	-6.3125	-13.1875	-55.0625	-0.5483145	1.09415	-1.1371125
1277224673541	4.2495484	1.8387469	8.730643	0.07584858	0.0	-6.8125	-13.1875	-55.0625	-0.54082346	1.0831645	-1.1624283
1277224673571	4.099725	1.9477097	8.771504	0.06961441	0.0	-7.75	-12.1875	-55.0625	-0.4888574	1.0932816	-1.1272802
1277224673611	4.140586	1.879608	8.580819	-0.09542847	0.0	-8.5	-12.1875	-55.0625	-0.48212197	1.083492	-1.1446646
1277224673651	4.3312707	1.8387469	8.430995	-0.15146637	0.0	-9.0	-12.1875	-54.8125	-0.46581316	1.0617489	-1.1693252
1277224673691	4.2904096	1.9477097	8.771504	0.15028095	0.0	-9.9375	-12.1875	-55.0625	-0.47333816	1.0778545	-1.1446474
1277224673731	4.1814466	1.6480621	8.471856	-0.21639729	0.0	-10.6875	-12.9375	-55.0625	-0.5640757	1.0830301	-1.1953546
1277224673771	4.1814466	1.3075534	7.9270425	-0.7494879	0.0	-11.4375	-12.9375	-55.3125	-0.57382584	1.065898	-1.267726
1277224673811	4.4810944	1.334794	8.049625	-0.49760342	0.0	-12.4375	-12.9375	-55.0625	-0.5586701	1.0445726	-1.2812927
1277224673851	4.8216033	1.3756552	8.19945	-0.19565296	0.0	-13.125	-12.9375	-54.8125	-0.53844696	1.0219598	-1.2928698
1277224673891	5.09401	1.3075534	8.158588	-0.099889755	0.0	-13.625	-12.4375	-54.8125	-0.49591237	0.99821603	-1.3195363
1277224673931	5.243834	1.1849703	8.076866	-0.10419083	0.0	-14.375	-12.4375	-54.5	-0.50421864	0.98352474	-1.348555
1277224673971	5.407278	1.1441092	8.076866	-0.019750595	0.0	-15.125	-12.4375	-54.8125	-0.4980894	0.97068584	-1.3622848
1277224674001	5.366417	1.1441092	8.281172	0.12739372	0.0	-15.8125	-11.9375	-54.8125	-0.5007473	0.9856212	-1.3607432
1277224674041	5.434519	1.334794	8.117727	0.05302334	0.0	-16.5625	-11.9375	-54.5	-0.46206516	0.9672467	-1.3299499
1277224674071	5.7886477	1.3756552	7.504812	-0.22943401	0.0	-17.0625	-11.9375	-54.0	-0.39535192	0.90045714	-1.3374773
1277224674111	5.8567495	1.2666923	7.164303	-0.46677494	0.0	-18.0625	-11.9375	-53.75	-0.39165205	0.87425566	-1.357798
1277224674151	5.8567495	1.0351465	7.3958488	-0.3160429	0.0	-18.75	-11.9375	-53.25	-0.45487896	0.89351743	-1.3958588
1277224674191	5.7886477	0.92618364	7.5456724	-0.25136757	0.0	-19.0	-11.9375	-52.75	-0.5006401	0.910297	-1.4121411
1277224674221	6.0201936	0.7218784	7.3958488	-0.24305153	0.0	-20.0	-11.1875	-52.75	-0.47290963	0.88408184	-1.4514567
1277224674251	5.9793324	0.53119355	7.164303	-0.4598961	0.0	-20.25	-10.875	-52.75	-0.47267777	0.87337625	-1.4821906
1277224674291	6.0201936	0.50395286	7.273266	-0.35164642	0.0	-20.9375	-11.1875	-53.25	-0.4988804	0.87766725	-1.4872806
1277224674331	6.1700177	0.61291564	7.43671	-0.12422085	0.0	-21.6875	-11.1875	-53.25	-0.4944123	0.8758099	-1.4717834
1277224674371	6.2108784	0.5720546	7.164303	-0.30772972	0.0	-22.1875	-11.4375	-53.0	-0.4945789	0.8544698	-1.4789501
1277224674411	6.238119	0.46309182	7.014479	-0.40816593	0.0	-22.6875	-11.1875	-52.25	-0.50186217	0.8425483	-1.4966965
1277224674451	6.238119	0.38136974	7.014479	-0.41183758	0.0	-22.9375	-10.375	-52.25	-0.48026085	0.8429866	-1.5097369
1277224674481	6.4424243	0.42223078	7.3958488	0.010766983	0.0	-23.1875	-10.125	-52.25	-0.48154703	0.85312563	-1.5053508
1277224674511	6.4424243	0.46309182	7.5456724	0.12594509	0.0	-23.4375	-10.125	-52.25	-0.49308178	0.862833	-1.4990381
1277224674542	6.469665	0.53119355	7.4639506	0.08522987	0.0	-23.625	-9.875	-52.75	-0.4531743	0.8549731	-1.4888748
1277224674581	6.66035	0.61291564	7.3958488	0.16503525	0.0	-23.4375	-9.625	-52.0	-0.41422492	0.83557886	-1.4790303
1277224674611	6.510526	0.6537767	7.3141265	0.0071573257	0.0	-23.625	-9.375	-51.75	-0.4042533	0.84096867	-1.4707134
1277224674651	6.4424243	0.5720546	7.082581	-0.2152462	0.0	-24.125	-9.375	-51.75	-0.41080853	0.8307392	-1.4822336
1277224674681	6.3607025	0.42223078	6.8237944	-0.468503	0.0	-23.875	-9.375	-51.4375	-0.42332008	0.8194111	-1.5045124
1277224674712	6.3198414	0.42223078	6.8237944	-0.4962883	0.0	-24.375	-9.875	-51.75	-0.45313162	0.8226112	-1.5040851
1277224674741	6.4424243	0.38136974	7.082581	-0.22472858	0.0	-24.875	-10.375	-52.0	-0.501337	0.8318236	-1.5116687
1277224674781	6.3607025	0.38136974	7.164303	-0.21857357	0.0	-24.375	-10.125	-51.75	-0.5018938	0.8438534	-1.5109109
1277224674811	6.238119	0.313268	6.932757	-0.47523117	0.0	-24.875	-10.375	-52.0	-0.51882434	0.83746356	-1.5206201
1277224674851	6.1700177	0.23154591	6.782933	-0.63435936	0.0	-24.875	-10.125	-52.0	-0.51207405	0.8323312	-1.5332863
1277224674881	6.2789803	0.3405087	6.782933	-0.5573406	0.0	-24.625	-9.625	-51.75	-0.45854396	0.8232289	-1.5166194
1277224674911	6.6331096	0.38136974	6.891896	-0.23367691	0.0	-24.875	-9.125	-52.25	-0.40322283	0.8037052	-1.5133647
1277224674951	6.701211	0.27240697	6.742072	-0.29686737	0.0	-24.875	-8.625	-52.25	-0.38121337	0.7880249	-1.5301683
1277224674991	6.742072	0.23154591	6.891896	-0.16261768	0.0	-24.875	-8.375	-52.5	-0.38120514	0.79609215	-1.5364664
1277224675031	6.891896	0.42223078	7.668256	0.5121994	0.0	-24.625	-8.125	-53.0	-0.3739279	0.83773726	-1.509608
1277224675061	6.66035	0.46309182	7.8861814	0.52614117	0.0	-24.625	-8.625	-52.75	-0.4340289	0.8682803	-1.5013784
1277224675101	6.66035	0.46309182	7.43671	0.18731594	0.0	-24.375	-9.375	-52.75	-0.4310156	0.83921653	-1.5013784
1277224675141	6.4424243	0.46309182	6.932757	-0.33129215	0.0	-24.625	-9.625	-52.25	-0.4287112	0.8207565	-1.4990381
1277224675181	6.2108784	0.46309182	7.1234417	-0.34446812	0.0	-24.625	-10.125	-51.4375	-0.5092743	0.8523555	-1.4963726
1277224675211	6.1700177	0.50395286	6.932757	-0.5122328	0.0	-24.875	-10.375	-52.0	-0.49209127	0.84189326	-1.4892995
1277224675251	6.1700177	0.38136974	6.742072	-0.6595144	0.0	-25.125	-9.875	-52.0	-0.47352937	0.8287234	-1.5090647
1277224675291	6.2108784	0.61291564	7.164303	-0.3051815	0.0	-24.375	-10.125	-52.0	-0.4702	0.85416174	-1.4724306
1277224675331	6.469665	0.84446156	7.5865335	0.1996069	0.0	-24.125	-10.125	-52.5	-0.42953146	0.8605157	-1.4410038
1277224675361	6.4015636	0.84446156	7.668256	0.21808338	0.0	-23.1875	-10.375	-52.25	-0.4495679	0.8709383	-1.4396387
1277224675391	6.2789803	0.84446156	7.7363577	0.19284725	0.0	-22.9375	-10.625	-52.75	-0.46926868	0.8846205	-1.4371083
1277224675421	6.238119	0.95342433	7.4639506	-0.032515526	0.0	-23.1875	-10.875	-53.0	-0.43832734	0.86893713	-1.4191315
1277224675451	6.3607025	0.84446156	7.082581	-0.24973583	0.0	-23.625	-11.1875	-52.75	-0.43962508	0.83469975	-1.4388059
1277224675481	6.2789803	0.6946377	7.082581	-0.31607246	0.0	-23.625	-11.1875	-53.0	-0.4685502	0.84244823	-1.4606153
1277224675511	6.0882955	0.6537767	7.3958488	-0.2049141	0.0	-23.625	-11.4375	-52.75	-0.54473937	0.87925124	-1.4638237
1277224675541	6.0882955	0.7627395	7.668256	0.014309883	0.0	-23.4375	-11.6875	-52.5	-0.57131666	0.8959534	-1.446166
1277224675571	6.3607025	0.8036005	7.6954966	0.20958614	0.0	-22.9375	-11.6875	-52.75	-0.52213645	0.87618446	-1.4451238
1277224675611	6.238119	0.61291564	7.3958488	-0.11188984	0.0	-22.9375	-12.1875	-52.25	-0.56897646	0.86774164	-1.4728574
1277224675651	5.829509	0.38136974	7.273266	-0.47771645	0.0	-22.4375	-12.4375	-52.0	-0.64748555	0.8941003	-1.5054688
1277224675691	6.2108784	0.3405087	7.3958488	-0.14282417	0.0	-22.4375	-11.9375	-52.25	-0.5894992	0.8715271	-1.5160266
1277224675721	6.3607025	0.42223078	7.504812	0.0401268	0.0	-22.4375	-12.6875	-52.0	-0.61077726	0.8666418	-1.5045124
1277224675761	6.2789803	0.5720546	7.7363577	0.17353344	0.0	-22.4375	-12.4375	-52.5	-0.60490865	0.8869871	-1.4799409
1277224675801	6.3607025	0.6537767	7.9270425	0.37784672	0.0	-22.4375	-12.4375	-52.75	-0.5992156	0.8920239	-1.4683722
1277224675841	6.2789803	0.53119355	7.6954966	0.1396265	0.0	-22.4375	-12.6875	-52.5	-0.6176175	0.88467056	-1.4863986
1277224675881	5.9793324	0.46309182	7.43671	-0.25303745	0.0	-21.9375	-12.1875	-52.5	-0.60265255	0.8921427	-1.4935019
1277224675911	5.9793324	0.38136974	7.3141265	-0.35179424	0.0	-22.4375	-11.9375	-52.25	-0.60383546	0.88447773	-1.5071013
1277224675951	6.0201936	0.38136974	7.43671	-0.2310133	0.0	-22.4375	-11.9375	-52.25	-0.60383546	0.88447773	-1.5071013
1277224675981	5.938472	0.3405087	7.43671	-0.28372765	0.0	-22.4375	-12.1875	-52.5	-0.6355246	0.8961489	-1.5135196
1277224676011	5.9793324	0.3405087	7.43671	-0.25819397	0.0	-22.6875	-12.1875	-52.75	-0.6304545	0.89281267	-1.5139102
1277224676051	6.0882955	0.53119355	7.6954966	0.0203619	0.0	-21.9375	-12.4375	-52.75	-0.6148953	0.899629	-1.4837683
1277224676091	6.238119	0.53119355	7.6954966	0.113882065	0.0	-21.9375	-11.9375	-52.5	-0.5777166	0.8878459	-1.4858484
1277224676131	6.2108784	0.6946377	7.6273947	0.05411434	0.0	-21.4375	-11.6875	-52.75	-0.5247627	0.8843599	-1.4594171
1277224676171	6.238119	1.0760075	7.6273947	0.1054163	0.0	-21.6875	-11.1875	-52.5	-0.43921053	0.87806726	-1.3999879
1277224676211	6.5922484	1.0760075	7.1234417	-0.041459084	0.0	-22.1875	-10.875	-52.75	-0.3633064	0.8175509	-1.4089999
1277224676241	6.8237944	0.7627395	7.0553403	0.038336754	0.0	-22.1875	-10.875	-53.0	-0.3900013	0.7989769	-1.459482
1277224676281	6.782933	0.50395286	8.076866	0.75260735	0.0	-22.1875	-10.625	-52.75	-0.49833268	0.8708993	-1.4966354
1277224676321	6.2108784	0.3405087	8.921328	1.0690584	0.0	-22.1875	-10.625	-53.25	-0.67216194	0.9619327	-1.5160266
1277224676361	5.366417	0.50395286	8.308413	0.09699154	0.0	-22.4375	-10.875	-52.75	-0.76379365	0.995305	-1.4771622
1277224676391	5.175732	0.61291564	7.0553403	-1.0350084	0.0	-22.9375	-10.625	-52.5	-0.58461004	0.9345558	-1.4529243
1277224676421	5.8976107	0.38136974	6.3607025	-1.1241512	0.0	-24.125	-10.125	-52.0	-0.4593516	0.8221176	-1.506221
1277224676451	6.2108784	0.10896278	6.0201936	-1.1562395	0.0	-24.625	-10.125	-51.4375	-0.45762166	0.7697324	-1.5532542
1277224676481	6.2108784	-0.10896278	6.469665	-0.83762264	0.0	-24.625	-9.625	-51.75	-0.5046882	0.80572665	-1.5883384
1277224676511	5.9793324	0.0	7.5865335	-0.147048	0.0	-24.875	-9.875	-51.75	-0.6687329	0.9033224	-1.5707964
1277224676551	5.7886477	0.313268	8.662541	0.6166992	0.0	-24.875	-10.625	-52.25	-0.86228216	0.9810302	-1.5167314
1277224676591	5.829509	0.84446156	8.076866	0.1899519	0.0	-24.375	-10.875	-52.25	-0.62673014	0.9406837	-1.4269372
1277224676631	6.3198414	1.0351465	6.66035	-0.56694317	0.0	-24.375	-10.625	-52.25	-0.35535595	0.8050135	-1.4084449
1277224676671	7.3549876	0.7218784	5.7886477	-0.419137	0.0	-23.625	-10.875	-52.25	-0.31672442	0.6644582	-1.4729615
1277224676711	7.3141265	-0.08172209	6.701211	0.11349869	0.0	-23.4375	-10.625	-52.5	-0.4427533	0.74166316	-1.581969
1277224676751	6.0882955	-0.10896278	8.308413	0.49426842	0.0	-23.625	-10.625	-52.5	-0.7384175	0.93832666	-1.5886915
1277224676791	5.938472	-0.040861044	8.158588	0.28441906	0.0	-23.4375	-11.4375	-52.5	-0.7679155	0.94159186	-1.577677
1277224676831	5.9793324	-0.08172209	6.8237944	-0.7334337	0.0	-23.875	-11.4375	-52.5	-0.6118284	0.85121405	-1.5844629
1277224676861	6.2108784	-0.27240697	5.47538	-1.5223885	0.0	-23.625	-11.6875	-52.75	-0.48154548	0.7220675	-1.6146278
1277224676891	6.66035	-0.6537767	5.434519	-1.185648	0.0	-23.875	-11.1875	-53.0	-0.464823	0.6820444	-1.6686424
1277224676921	6.66035	-0.6946377	6.8237944	-0.24595165	0.0	-23.625	-10.875	-53.0	-0.56010497	0.7948148	-1.6747152
1277224676961	6.4015636	-0.29964766	8.308413	0.686182	0.0	-23.1875	-10.875	-52.75	-0.69669384	0.91377974	-1.6175706
1277224676991	6.469665	-0.19068487	9.084772	1.347991	0.0	-22.6875	-11.4375	-52.25	-0.7844908	0.9517613	-1.6002614
1277224677031	6.2108784	0.08172209	8.812365	0.9747906	0.0	-21.6875	-12.1875	-52.5	-0.7652648	0.9568211	-1.5576392
1277224677061	6.469665	0.27240697	7.8589406	0.37636185	0.0	-21.6875	-12.4375	-52.5	-0.6162143	0.8816196	-1.528716
1277224677091	6.510526	0.50395286	7.5456724	0.17223263	0.0	-21.9375	-12.6875	-53.0	-0.56188905	0.8574312	-1.4935445
1277224677131	6.2108784	0.7627395	7.7363577	0.14362717	0.0	-22.4375	-12.4375	-53.25	-0.569957	0.8906834	-1.4486011
1277224677171	5.8976107	0.6537767	7.5865335	-0.17520523	0.0	-22.9375	-12.4375	-53.0	-0.6255454	0.9070404	-1.4603926
1277224677211	5.7477865	0.46309182	7.0553403	-0.6946068	0.0	-22.9375	-12.4375	-52.5	-0.6212047	0.8855883	-1.4904013
1277224677241	5.706926	0.313268	6.66035	-1.0301247	0.0	-22.6875	-12.4375	-52.5	-0.59586054	0.8615951	-1.5159588
1277224677271	5.8567495	0.27240697	6.4015636	-1.1258812	0.0	-22.6875	-12.4375	-52.25	-0.5596029	0.8292752	-1.5243182
1277224677311	6.1700177	0.313268	6.66035	-0.72218513	0.0	-22.6875	-12.6875	-52.0	-0.5623765	0.82295436	-1.5200672
1277224677341	6.66035	0.50395286	7.6954966	0.38329124	0.0	-22.9375	-13.1875	-52.25	-0.6132863	0.8559671	-1.4952756
1277224677371	6.701211	0.61291564	8.499097	1.0338545	0.0	-22.6875	-13.9375	-52.0	-0.7162912	0.90110457	-1.4795867
1277224677401	6.4424243	0.6946377	8.771504	1.0986996	0.0	-21.9375	-14.5	-52.0	-0.7837772	0.9345476	-1.4633889
1277224677431	6.0201936	0.6946377	8.730643	0.82111454	0.0	-21.6875	-14.75	-52.5	-0.84260464	0.9640259	-1.4559197
1277224677471	6.0201936	0.61291564	8.076866	0.28563213	0.0	-20.9375	-14.5	-52.25	-0.73972094	0.9277975	-1.4693359
1277224677511	5.8976107	0.50395286	7.0553403	-0.59721947	0.0	-21.1875	-13.9375	-52.25	-0.6320682	0.8727503	-1.485553
1277224677551	5.7477865	0.5720546	7.0553403	-0.6884203	0.0	-21.4375	-13.6875	-52.25	-0.6368351	0.88475853	-1.471597
1277224677591	5.6660647	0.8036005	7.504812	-0.36883926	0.0	-21.4375	-13.6875	-52.25	-0.6368351	0.88475853	-1.471597
1277224677631	5.9793324	0.95342433	7.6954966	-0.014709473	0.0	-21.9375	-13.9375	-52.75	-0.6392649	0.904152	-1.4126742
1277224677671	6.1700177	0.95342433	7.6954966	0.10288048	0.0	-22.1875	-14.25	-52.75	-0.63497204	0.8892116	-1.4174836
1277224677711	6.0882955	0.95342433	7.5456724	-0.06429291	0.0	-22.1875	-14.25	-53.0	-0.6222982	0.88595945	-1.4154584
1277224677751	6.2789803	0.92618364	7.7363577	0.20007992	0.0	-22.1875	-14.25	-52.75	-0.63046145	0.88373846	-1.4243469
1277224677791	5.9793324	0.6946377	7.7772183	0.027985573	0.0	-22.4375	-13.9375	-52.5	-0.7046531	0.912113	-1.4551417
1277224677831	5.7886477	0.3405087	7.3958488	-0.40861988	0.0	-21.6875	-13.6875	-52.25	-0.7047803	0.90586203	-1.5120405
1277224677871	5.6252036	-0.040861044	7.205164	-0.6655903	0.0	-21.9375	-13.6875	-52.0	-0.7525387	0.90791076	-1.5780602
1277224677901	5.706926	-0.14982383	7.3141265	-0.52829456	0.0	-22.4375	-13.4375	-51.75	-0.77077436	0.90804106	-1.5970433
1277224677931	5.597963	-0.040861044	7.5865335	-0.37827015	0.0	-22.4375	-13.6875	-52.0	-0.82086706	0.93508357	-1.5780954
1277224677971	5.6252036	0.08172209	7.668256	-0.29603863	0.0	-22.9375	-13.4375	-52.0	-0.824762	0.93784326	-1.5562695
1277224678001	5.706926	0.23154591	7.273266	-0.55878544	0.0	-22.6875	-13.6875	-51.4375	-0.75695765	0.9050897	-1.5302458
1277224678041	6.1291566	0.313268	6.891896	-0.5782747	0.0	-22.4375	-13.6875	-51.1875	-0.6410503	0.843261	-1.5197296
1277224678074	6.1291566	0.19068487	7.4639506	-0.14675999	0.0	-22.1875	-13.6875	-50.9375	-0.7180239	0.8830435	-1.5396953
1277224678111	5.5571017	0.313268	8.008764	-0.053710938	0.0	-22.1875	-13.9375	-51.75	-0.8694353	0.96344787	-1.5144833
1277224678151	6.0474343	0.313268	7.668256	-0.03568554	0.0	-21.9375	-13.9375	-52.5	-0.7131949	0.9023738	-1.5190408
1277224678191	7.246025	0.313268	8.049625	1.0284548	0.0	-20.9375	-13.9375	-53.5	-0.5811278	0.83742344	-1.5275902
1277224678221	7.014479	0.46309182	8.19945	0.99373627	0.0	-20.25	-14.25	-54.0	-0.5936084	0.8620541	-1.5048726
1277224678251	5.9793324	0.92618364	7.9270425	0.16572285	0.0	-19.0	-14.75	-53.5	-0.6378765	0.9188433	-1.4171201
1277224678291	5.175732	1.0760075	7.6954966	-0.47034168	0.0	-17.3125	-15.25	-53.5	-0.6920622	0.96888477	-1.3658214
1277224678321	4.944186	1.0351465	7.8589406	-0.46430302	0.0	-15.3125	-16.25	-53.25	-0.7618512	0.99952996	-1.364411
1277224678362	5.366417	0.7218784	8.471856	0.24779606	0.0	-13.625	-17.0	-53.0	-0.77802205	1.0020893	-1.4370812
1277224678401	4.7535014	0.46309182	10.18802	1.445282	0.0	-11.6875	-18.3125	-53.0	-1.0260699	1.1324298	-1.4736816
1277224678431	1.9477097	0.19068487	10.760075	1.1299458	0.0	-10.4375	-19.0625	-53.0	-1.7126195	1.3908852	-1.4732052
1277224678471	0.50395286	0.61291564	11.223166	1.4445314	0.0	-10.6875	-20.375	-53.0	-2.8965137	1.5002136	-0.688145
1277224678505	-0.0	0.7627395	10.923519	1.143466	0.0	-11.9375	-21.125	-53.0	2.5397968	1.5010844	0.0
1277224678541	1.1441092	0.23154591	9.956474	0.21801853	0.0	-13.875	-21.375	-53.0	-2.1361878	1.4540886	-1.3711125
1277224678573	1.7297841	0.0	8.240311	-1.3867416	0.0	-15.5625	-21.375	-52.25	-1.7781278	1.3638839	-1.5707964
1277224678601	1.4165162	0.08172209	7.205164	-2.46311	0.0	-17.3125	-21.125	-51.1875	-1.9609035	1.3763598	-1.5131679
1277224678641	1.6480621	0.14982383	7.273266	-2.347498	0.0	-17.8125	-21.375	-50.6875	-1.9543267	1.347079	-1.4801364
1277224678681	2.6014864	0.7218784	8.580819	-0.8111353	0.0	-17.5625	-21.875	-50.4375	-1.9529663	1.265972	-1.3001195
1277224678721	2.7921712	1.4982382	9.343558	0.059606552	0.0	-17.5625	-22.875	-50.6875	-2.199526	1.2438318	-1.0783106
1277224678761	3.445948	1.879608	8.19945	-0.71608067	0.0	-15.5625	-23.125	-51.4375	-1.578628	1.1243176	-1.0714496
1277224678801	5.829509	1.2258313	9.302697	1.2398882	0.0	-13.125	-23.375	-52.0	-0.992283	1.0012336	-1.3635356
1277224678841	7.43671	1.4165162	9.193735	2.1028395	0.0	-10.9375	-23.125	-52.25	-0.7638915	0.8819301	-1.3825748
1277224678881	6.0882955	1.6480621	8.689782	0.93093586	0.0	-9.0	-22.625	-52.75	-0.79357445	0.9429363	-1.3064382
1277224678922	4.0180025	1.9477097	8.349273	-0.33837318	0.0	-8.75	-22.125	-53.0	-1.0356205	1.079698	-1.1194264
1277224678961	3.173541	2.152015	8.962189	-0.058657646	0.0	-9.0	-21.375	-53.25	-1.3326702	1.1665223	-0.9749121
1277224678991	3.9090397	1.7570249	9.302697	0.43580627	0.0	-9.6875	-21.125	-53.5	-1.169269	1.1390793	-1.1483771
1277224679021	4.5628166	1.4165162	8.894087	0.28941822	0.0	-10.1875	-20.375	-53.75	-0.95861375	1.0778567	-1.2697822
1277224679051	4.671779	1.2258313	8.308413	-0.19634819	0.0	-10.6875	-19.8125	-53.25	-0.88442034	1.0442182	-1.3141903
1277224679081	4.4810944	1.0760075	7.9679036	-0.602005	0.0	-11.1875	-19.5625	-53.0	-0.8946772	1.046426	-1.3351364
1277224679112	4.2904096	0.84446156	7.9270425	-0.75354385	0.0	-11.9375	-18.5625	-52.75	-0.9211631	1.066709	-1.3764552
1277224679151	3.9499009	0.84446156	8.076866	-0.7761135	0.0	-12.625	-18.3125	-52.5	-1.0374055	1.1070764	-1.3601741
1277224679191	3.9090397	0.8036005	8.580819	-0.34320354	0.0	-12.4375	-18.3125	-53.25	-1.0892068	1.1354712	-1.368046
1277224679231	4.440233	0.95342433	8.921328	0.20408249	0.0	-12.4375	-18.3125	-53.75	-0.986177	1.0999315	-1.359284
1277224679261	4.4810944	0.95342433	9.084772	0.3679409	0.0	-11.9375	-18.8125	-53.75	-0.99726695	1.1037191	-1.3611565
1277224679291	4.5628166	0.95342433	9.00305	0.33155537	0.0	-11.6875	-19.0625	-53.5	-0.97726196	1.0930468	-1.364805
1277224679322	4.630918	1.1441092	8.853226	0.24988937	0.0	-12.1875	-19.3125	-53.25	-0.97348994	1.0765892	-1.3285878
1277224679361	4.903325	1.2258313	8.853226	0.38770485	0.0	-12.4375	-19.3125	-52.75	-0.9347985	1.052055	-1.3258177
1277224679391	5.243834	1.1441092	8.308413	0.08458328	0.0	-13.125	-19.5625	-53.0	-0.84475064	0.99724156	-1.3559809
1277224679421	4.8216033	1.1168685	8.308413	-0.13581944	0.0	-13.625	-19.5625	-53.0	-0.9296888	1.0335493	-1.3431724
1277224679461	3.990762	1.2258313	8.539958	-0.30087662	0.0	-13.875	-20.0625	-52.5	-1.2013309	1.1161058	-1.2727772
1277224679491	3.9499009	1.1849703	8.894087	-0.0030460358	0.0	-14.125	-20.375	-52.75	-1.2813493	1.1366425	-1.2793396
1277224679531	4.5219555	0.92618364	8.853226	0.17761326	0.0	-13.875	-20.0625	-52.0	-1.1079849	1.0901968	-1.3687712
1277224679574	4.0588636	0.7627395	8.117727	-0.698761	0.0	-14.125	-20.375	-52.25	-1.1418209	1.1001717	-1.3850431
1277224679611	2.4925237	0.313268	4.862464	-4.333592	0.0	-14.625	-19.5625	-52.25	-1.1012325	1.0939273	-1.4457688
1277224679651	3.445948	2.152015	0.7627395	-5.6729474	0.0	-15.125	-20.625	-50.9375	-0.20467214	0.18558067	-1.0125524
1277224679681	5.6252036	9.384419	0.3405087	1.1398649	0.0	-15.8125	-25.9375	-46.875	0.0049521723	0.031111604	-0.5399926
1277224679711	5.8567495	16.04477	0.6537767	7.2861423	0.0	-15.3125	-34.125	-37.4375	0.07442095	0.03825801	-0.34999734
1277224679751	5.8976107	16.88923	0.8036005	8.100714	0.0	-11.6875	-44.0625	-24.4375	-0.15483303	0.044890497	-0.3359562
1277224679791	8.117727	11.645397	1.6480621	4.4842176	0.0	-4.125	-51.4375	-8.125	-1.4586148	0.11557991	-0.6087609
1277224679821	4.7535014	7.0553403	1.9477097	-1.0792694	0.0	3.75	-53.75	5.6875	-1.9964126	0.22506765	-0.5928871
1277224679861	-3.0237172	6.238119	-4.7126403	-1.4241695	0.0	10.8125	-53.5	14.125	0.646293	-0.597045	0.45134595
1277224679901	-3.718355	7.6273947	-7.504812	1.5214348	0.0	15.4375	-52.0	18.4375	0.39063984	-0.7241461	0.4535977
1277224679931	0.50395286	8.539958	-4.5900574	-0.0982275	0.0	16.9375	-50.9375	19.4375	-1.2578791	-0.49245575	-0.058942813
1277224679961	0.38136974	8.689782	-2.7921712	-0.6713352	0.0	18.375	-49.9375	19.4375	-1.7397584	-0.31061667	-0.043859
1277224679991	-1.6480621	8.662541	-3.9499009	-0.14448452	0.0	20.125	-49.1875	19.9375	-1.2860669	-0.42113963	0.18800475
1277224680061	-2.0294318	8.240311	-6.701211	1.0066538	0.0	21.0625	-48.375	19.9375	-0.49178228	-0.66838473	0.24147537
1277224680091	-1.6889231	7.8861814	-5.5162406	-0.0356102	0.0	21.5625	-47.875	19.4375	-0.7073933	-0.59988797	0.2109754
1277224680121	-1.7978859	7.6954966	-4.671779	-0.6263132	0.0	21.8125	-49.1875	18.6875	-0.7488486	-0.53389454	0.22951168
1277224680151	-2.1383946	7.7772183	-4.399372	-0.61903095	0.0	21.3125	-49.9375	18.1875	-0.641167	-0.4993295	0.2683255
1277224680181	-2.3699405	7.8861814	-4.5219555	-0.4121542	0.0	21.0625	-49.6875	17.9375	-0.52656806	-0.5021839	0.29193208
1277224680211	-2.3699405	8.281172	-4.944186	0.12508678	0.0	20.625	-50.1875	16.875	-0.4581081	-0.5210798	0.27873406
1277224680241	-1.4165162	9.847511	-5.325556	1.4779205	0.0	20.625	-50.4375	16.125	-0.88949114	-0.49148145	0.14286512
1277224680271	0.61291564	10.038197	-5.8976107	1.8519459	0.0	20.8125	-50.4375	15.375	-1.1193444	-0.530378	-0.060982633
1277224680311	0.23154591	8.240311	-5.7886477	0.26632214	0.0	21.3125	-50.9375	14.625	-0.9302078	-0.6122024	-0.02809178
1277224680351	-2.4516625	7.4639506	-4.903325	-0.5457754	0.0	21.5625	-50.9375	14.625	-0.26702386	-0.55797184	0.3173646
1277224680391	-1.1441092	7.9270425	-4.0180025	-0.8461065	0.0	20.8125	-50.4375	15.125	-0.9200143	-0.46498632	0.14334007
1277224680421	-0.3405087	8.390134	-3.759216	-0.60654163	0.0	20.625	-50.4375	15.375	-1.2148683	-0.4209258	0.040562157
1277224680451	-0.9125633	8.580819	-4.2495484	-0.18782043	0.0	20.125	-50.6875	15.625	-1.0105622	-0.45759827	0.10595097
1277224680481	-1.2258313	8.730643	-5.134871	0.39598083	0.0	20.375	-50.4375	15.625	-0.78929305	-0.5274007	0.13949372
1277224680511	-1.0760075	8.580819	-5.366417	0.37110424	0.0	20.8125	-50.6875	15.875	-0.7836377	-0.55538356	0.1247457
1277224680551	-1.1168685	8.19945	-4.5900574	-0.34372234	0.0	20.8125	-50.4375	16.375	-0.8858859	-0.5064281	0.13537945
1277224680581	-1.3075534	7.8861814	-4.2495484	-0.75346184	0.0	21.0625	-49.9375	16.875	-0.90810394	-0.48860887	0.16430835
1277224680611	-1.334794	8.19945	-4.7126403	-0.2556486	0.0	20.125	-50.4375	17.6875	-0.82907903	-0.5160156	0.16137509
1277224680651	-0.95342433	8.308413	-5.134871	0.006893158	0.0	19.625	-50.1875	17.4375	-0.83790267	-0.5506524	0.11425432
1277224680691	-1.1168685	8.076866	-4.7535014	-0.3684864	0.0	19.375	-50.6875	16.875	-0.7937634	-0.5278149	0.13740854
1277224680731	-1.2258313	8.008764	-4.630918	-0.474535	0.0	19.375	-51.1875	16.875	-0.76373535	-0.51925623	0.15188247
1277224680761	-0.9942854	8.19945	-4.903325	-0.20133018	0.0	19.625	-50.4375	16.875	-0.8303738	-0.5357431	0.12067328
1277224680791	-0.95342433	8.240311	-4.862464	-0.19128227	0.0	20.125	-50.4375	17.6875	-0.90071476	-0.5301899	0.11519028
1277224680831	-1.1849703	8.308413	-4.7943625	-0.1412592	0.0	20.8125	-49.9375	17.9375	-0.91605043	-0.51902527	0.14166754
1277224680871	-0.9942854	8.19945	-4.9850473	-0.15935707	0.0	20.625	-49.6875	18.4375	-0.9221995	-0.5430272	0.12067328
1277224680901	-1.1849703	8.008764	-4.7943625	-0.39759254	0.0	20.625	-49.9375	18.1875	-0.8693811	-0.5346589	0.14689346
1277224680941	-1.2258313	8.076866	-4.7126403	-0.3754568	0.0	20.8125	-49.9375	17.6875	-0.8757407	-0.5232369	0.15062118
1277224680971	-1.0351465	8.240311	-4.7126403	-0.2576599	0.0	20.8125	-49.4375	17.6875	-0.9617738	-0.5161351	0.12496524
1277224681001	-0.7627395	8.117727	-4.440233	-0.52252674	0.0	21.0625	-49.1875	17.125	-1.053006	-0.49867338	0.09368468
1277224681041	-0.9125633	8.008764	-4.2904096	-0.6753473	0.0	21.3125	-49.4375	16.875	-1.0318156	-0.48912913	0.11345625
1277224681071	-0.61291564	8.158588	-3.9771416	-0.7096243	0.0	20.625	-49.6875	16.625	-1.1575972	-0.45247346	0.07498435
1277224681101	0.10896278	8.771504	-3.486809	-0.36689377	0.0	19.375	-50.6875	15.625	-1.3680363	-0.37833625	-0.012421721
