#timestamp	accel_x	accel_y	accel_z	accel_mag	temperature	mag_x	mag_y	mag_z	azimuth	pitch	roll
1277319566922	3.8273177	0.95342433	9.193735	0.19745636	0.0	-1.5625	-5.0625	-49.8125	-0.25890905	1.1655266	-1.3266551
1277319566957	3.8273177	1.0351465	9.302697	0.30572128	0.0	-1.0625	-6.0625	-49.5625	-0.31631184	1.1679078	-1.3066534
1277319567027	3.8681788	1.0760075	9.234595	0.26302433	0.0	-0.3125	-6.8125	-49.5625	-0.34890258	1.1606685	-1.2994863
1277319567067	3.8273177	0.9942854	9.234595	0.23898125	0.0	-0.5625	-6.8125	-49.8125	-0.3526211	1.1662089	-1.3166282
1277319567097	3.9090397	0.9942854	9.275456	0.30785847	0.0	-0.5625	-6.8125	-49.8125	-0.3526211	1.1662089	-1.3166282
1277319567137	3.9499009	0.95342433	9.234595	0.28237724	0.0	-0.0625	-6.3125	-49.5625	-0.31875446	1.156279	-1.3339475
1277319567177	3.990762	0.92618364	9.193735	0.25857544	0.0	-0.0625	-6.5625	-49.8125	-0.3260555	1.1515985	-1.3427515
1277319567207	3.9499009	0.9942854	9.152874	0.21160412	0.0	0.1875	-6.5625	-49.3125	-0.3293736	1.1520997	-1.3241956
1277319567237	3.9499009	0.95342433	9.193735	0.2449913	0.0	-0.0625	-6.3125	-49.0625	-0.32080242	1.1546416	-1.3339475
1277319567277	3.9499009	0.92618364	9.275456	0.3172636	0.0	-0.3125	-6.5625	-49.3125	-0.33565876	1.1584742	-1.3404746
1277319567317	3.8681788	1.0351465	9.234595	0.25874043	0.0	-0.5625	-6.8125	-49.0625	-0.35417712	1.1616486	-1.3093175
1277319567347	3.8681788	0.9942854	9.193735	0.21713066	0.0	-0.8125	-6.5625	-49.0625	-0.34122494	1.1609758	-1.3192008
1277319567387	3.9090397	1.0351465	9.234595	0.2745142	0.0	-0.5625	-7.0625	-49.5625	-0.36053908	1.1580551	-1.3119297
1277319567418	3.8681788	1.0760075	9.193735	0.22556591	0.0	-0.8125	-6.8125	-49.3125	-0.35071644	1.1590446	-1.2994863
1277319567457	3.8273177	1.1168685	9.112013	0.139431	0.0	-0.5625	-6.5625	-49.5625	-0.3342142	1.1583452	-1.2868656
1277319567497	4.0180025	1.0760075	9.275456	0.3587923	0.0	-0.8125	-7.0625	-50.0625	-0.35020614	1.1492319	-1.3091393
1277319567528	3.9499009	1.0760075	9.193735	0.25735855	0.0	-0.5625	-7.0625	-50.0625	-0.35158804	1.1518698	-1.304836
1277319567567	3.990762	0.92618364	9.234595	0.29591084	0.0	-0.5625	-7.3125	-50.5625	-0.36167857	1.1532447	-1.3427515
1277319567598	4.0588636	0.95342433	9.384419	0.46226978	0.0	-0.8125	-7.3125	-50.5625	-0.36253694	1.1527067	-1.3400798
1277319567637	4.3312707	0.92618364	9.302697	0.49664497	0.0	-0.8125	-7.3125	-50.3125	-0.3432871	1.1264355	-1.3601326
1277319567667	4.0588636	1.3756552	9.765789	0.8581257	0.0	-1.0625	-7.0625	-50.0625	-0.3550579	1.1572589	-1.2440207
1277319567707	3.8681788	1.4573772	9.425281	0.48522377	0.0	-0.3125	-7.5625	-50.0625	-0.38088953	1.1574911	-1.2104831
1277319567747	3.336985	1.7570249	8.853226	-0.1836462	0.0	0.4375	-8.3125	-49.5625	-0.43618017	1.1680968	-1.0861502
1277319567777	3.486809	1.5390993	8.62168	-0.38008976	0.0	1.1875	-9.3125	-49.8125	-0.4704826	1.1545564	-1.1551119
1277319567808	3.5957718	1.56634	8.771504	-0.19820118	0.0	1.4375	-10.0625	-50.0625	-0.49924415	1.1503208	-1.1599767
1277319567848	3.486809	1.6480621	9.234595	0.20093155	0.0	1.1875	-10.3125	-50.0625	-0.544972	1.1751819	-1.129262
1277319567887	3.214402	2.0294318	9.656827	0.5714655	0.0	0.9375	-10.3125	-50.3125	-0.58095956	1.195773	-1.0076395
1277319567927	3.3778462	1.6480621	8.580819	-0.4388113	0.0	1.4375	-10.0625	-50.0625	-0.5116635	1.1579614	-1.1168729
1277319567957	3.3778462	1.6889231	9.00305	-0.043596268	0.0	1.9375	-10.3125	-49.8125	-0.54580426	1.1736152	-1.1071488
1277319567998	3.3778462	1.7570249	9.152874	0.10657692	0.0	2.1875	-10.3125	-50.0625	-0.54845786	1.1765834	-1.09115
1277319568041	3.0237172	1.920469	9.466142	0.3145609	0.0	2.6875	-10.5625	-50.5625	-0.613133	1.2090424	-1.0049419
1277319568077	3.214402	1.56634	9.043911	-0.08152199	0.0	3.1875	-10.75	-50.5625	-0.5801325	1.1942848	-1.1173698
1277319568117	2.9147544	1.9477097	8.921328	-0.22127342	0.0	4.125	-11.0	-50.8125	-0.6180564	1.1963838	-0.98171616
1277319568157	3.0237172	2.3018389	9.888372	0.7868023	0.0	4.875	-11.0	-50.0625	-0.65117383	1.2038909	-0.9201268
1277319568197	2.9147544	1.9477097	10.038197	0.8260708	0.0	5.625	-10.75	-50.0625	-0.6682215	1.2348095	-0.98171616
1277319568237	2.2609777	1.5390993	8.921328	-0.4754696	0.0	6.625	-10.3125	-49.8125	-0.7088439	1.2733127	-0.9731255
1277319568267	1.879608	1.5390993	8.921328	-0.5604706	0.0	7.875	-9.5625	-49.5625	-0.75915545	1.3049341	-0.88467234
1277319568307	1.8387469	1.9477097	9.275456	-0.15218735	0.0	9.375	-9.3125	-49.3125	-0.7798022	1.2896676	-0.7566291
1277319568351	1.56634	2.0294318	9.234595	-0.22282219	0.0	9.875	-9.0625	-48.5625	-0.8433054	1.3000073	-0.65731525
1277319568397	2.152015	1.6480621	10.337844	0.88064575	0.0	9.125	-9.3125	-48.8125	-0.7493136	1.3143685	-0.91724527
1277319568437	1.607201	1.7297841	9.724928	0.20082092	0.0	7.875	-9.3125	-49.0625	-0.87287855	1.3326069	-0.74867994
1277319568478	1.9477097	1.879608	9.534244	0.10436916	0.0	6.875	-9.3125	-49.5625	-0.7599783	1.2941768	-0.8031898
1277319568509	2.3699405	1.7978859	9.615966	0.25892544	0.0	6.125	-9.5625	-49.5625	-0.6874301	1.2707809	-0.9218008
1277319568604	2.4925237	1.3756552	8.308413	-1.0240068	0.0	5.875	-9.5625	-49.5625	-0.59509194	1.2406769	-1.0664859
1277319568647	2.6423476	0.92618364	7.3549876	-1.936729	0.0	5.875	-10.0625	-49.8125	-0.5240473	1.2070469	-1.2336624
1277319568677	1.5390993	0.92618364	7.6273947	-1.970593	0.0	5.625	-11.5	-49.8125	-0.8896185	1.3395064	-1.0290765
1277319568708	1.1849703	2.4516625	8.921328	-0.47900867	0.0	5.375	-13.5	-49.5625	-1.1280011	1.2745526	-0.4502256
1277319568744	1.920469	4.0588636	8.349273	-0.32651615	0.0	5.125	-16.0	-48.8125	-0.75021577	1.0773644	-0.44194138
1277319568782	3.0237172	4.7126403	9.275456	1.0278292	0.0	5.375	-18.4375	-47.8125	-0.8055088	1.027686	-0.57046056
1277319568827	1.7978859	5.47538	8.499097	0.46208096	0.0	6.625	-20.6875	-46.375	-0.8381598	0.974939	-0.31726626
1277319568857	0.27240697	4.0588636	8.158588	-0.6901188	0.0	9.125	-22.9375	-45.125	-1.5518725	1.1082573	-0.0670136
1277319568917	0.42223078	6.742072	7.8180795	0.5256376	0.0	11.3125	-25.375	-43.6875	-0.91362536	0.8581969	-0.06254458
1277319568969	-0.29964766	9.384419	7.5456724	2.2388592	0.0	12.8125	-28.625	-41.1875	-0.7067912	0.6769652	0.03191949
1277319569023	-0.42223078	9.656827	7.1234417	2.2006817	0.0	14.0625	-31.125	-39.5	-0.7738478	0.6350996	0.043695718
1277319569057	-0.53119355	7.8861814	7.273266	0.93459797	0.0	17.5625	-30.375	-38.25	-1.1555248	0.7438611	0.06725592
1277319569092	-2.4108016	7.5865335	6.238119	0.30678558	0.0	22.25	-27.625	-36.0	-1.0169188	0.66468984	0.30768225
1277319569127	-3.486809	7.273266	6.2789803	0.41508293	0.0	28.6875	-23.4375	-34.5625	-1.1697553	0.66146994	0.44703284
1277319569157	-4.903325	4.6036777	5.134871	-1.3447742	0.0	35.125	-17.75	-32.3125	-1.3261639	0.65205896	0.81690633
1277319569187	-7.014479	3.990762	5.284695	-0.1600399	0.0	38.625	-13.0	-29.625	-1.2181942	0.5797672	1.0535343
1277319569217	-7.9270425	3.7864566	5.012288	0.30761147	0.0	41.3125	-8.5625	-27.875	-1.2008811	0.5184868	1.1251773
1277319569247	-8.689782	2.7240696	5.175732	0.6681328	0.0	42.5625	-4.0625	-25.9375	-1.3614048	0.51681495	1.2670193
1277319569277	-9.534244	1.607201	4.140586	0.7113981	0.0	43.3125	-0.375	-23.9375	-0.9231576	0.40461498	1.403795
1277319569325	-9.956474	0.8036005	2.8738933	0.58740616	0.0	44.0625	3.125	-21.75	-0.64629555	0.28014386	1.4902595
1277319569365	-10.106298	-0.6537767	1.8387469	0.48634148	0.0	44.8125	6.5625	-19.0	-0.3312521	0.17960472	1.6353964
1277319569401	-9.043911	-0.08172209	1.9885708	-0.5463362	0.0	44.8125	10.0625	-16.5625	-0.97595906	0.21642682	1.5798322
1277319569437	-10.228881	-0.23154591	0.7627395	0.4532423	0.0	44.5625	13.0	-14.8125	-0.8088961	0.074410506	1.593429
1277319569477	-10.337844	-0.84446156	0.84446156	0.599946	0.0	44.3125	15.0	-13.375	-0.86595446	0.08123608	1.6523018
1277319569518	-8.662541	-1.2258313	1.1168685	-0.986804	0.0	43.3125	16.75	-13.375	-0.9487846	0.12697218	1.7113724
1277319569557	-8.662541	-1.7570249	0.7218784	-0.9382868	0.0	42.3125	17.9375	-13.125	-0.77209854	0.081489444	1.7709117
1277319569617	-8.308413	-2.4516625	0.19068487	-1.1419678	0.0	41.5625	19.1875	-12.875	-0.50984997	0.022008915	1.857735
1277319569657	-8.580819	-3.568531	0.5720546	-0.49579048	0.0	41.0625	20.4375	-12.875	-0.2997841	0.061478227	1.964911
1277319569697	-10.61025	-3.336985	0.95342433	1.3567677	0.0	41.0625	20.6875	-12.875	-0.691742	0.085510306	1.8755075
1277319569737	-10.991621	-2.5606253	1.3075534	1.5547857	0.0	41.3125	20.4375	-13.875	-0.8849467	0.11534257	1.7996757
1277319569777	-10.419566	-1.607201	1.2666923	0.81196404	0.0	41.5625	19.6875	-14.5625	-0.95927787	0.11957454	1.7238386
1277319569817	-10.378705	-1.2666923	0.88532263	0.6864824	0.0	41.5625	18.9375	-15.5625	-0.86066836	0.08447205	1.692243
1277319569857	-10.419566	-1.6480621	0.42223078	0.75089455	0.0	41.5625	17.75	-16.0625	-0.65750307	0.040003944	1.7276667
1277319569897	-9.466142	-2.4108016	0.040861044	-0.038258553	0.0	41.8125	16.75	-15.8125	-0.36174232	0.004182998	1.8201714
1277319569937	-8.539958	-1.2258313	0.14982383	-1.1778612	0.0	42.5625	16.0	-15.5625	-0.5847548	0.017364124	1.7133632
1277319569977	-8.430995	0.8036005	0.53119355	-1.3208027	0.0	43.3125	13.75	-15.5625	-0.9430715	0.06263854	1.4757683
1277319570017	-8.267551	1.9477097	1.2666923	-1.2188396	0.0	44.0625	11.5	-15.8125	-1.1433184	0.148039	1.3394302
1277319570057	-8.349273	1.9885708	1.879608	-1.0204277	0.0	44.8125	9.3125	-16.5625	-1.2109331	0.21559301	1.3369796
1277319570097	-9.847511	1.334794	2.5606253	0.4555111	0.0	45.0625	5.8125	-17.5625	-1.0968155	0.25218564	1.436071
1277319570137	-11.372991	1.3075534	2.2201166	1.8545475	0.0	45.5625	3.125	-17.8125	-0.7489751	0.19155426	1.4563289
1277319570177	-9.697687	1.7570249	1.5390993	0.16837311	0.0	46.0625	0.875	-18.0625	-0.6952157	0.15491419	1.3915609
1277319570217	-9.00305	2.982856	1.1168685	-0.25679493	0.0	46.5	-1.875	-17.5625	-0.8106906	0.11721961	1.2508622
1277319570257	-8.662541	3.718355	0.50395286	-0.36632442	0.0	47.0	-3.5625	-16.5625	-0.82299805	0.053408384	1.1653354
1277319570297	-8.62168	4.671779	0.50395286	0.012354851	0.0	47.25	-5.3125	-15.8125	-0.9219467	0.05134679	1.0742209
1277319570337	-8.471856	3.336985	-0.0	-0.70127773	0.0	47.25	-7.3125	-14.375	-0.6314374	-0.0	1.1955676
1277319570377	-7.5456724	2.6832085	-0.23154591	-1.7947598	0.0	47.5	-9.3125	-13.375	-0.4507568	-0.02890431	1.2291452
1277319570417	-7.082581	3.3778462	0.27240697	-1.9550896	0.0	47.0	-11.75	-12.375	-0.73170096	0.03470159	1.1257801
1277319570457	-7.504812	4.5628166	0.53119355	-1.0075788	0.0	46.5	-14.0	-11.625	-0.9475228	0.060406003	1.0245259
1277319570497	-8.19945	5.706926	0.9942854	0.2327013	0.0	46.3125	-16.25	-11.625	-1.0875742	0.09920143	0.96275103
1277319570537	-8.771504	7.082581	1.5390993	1.5718851	0.0	45.5625	-17.9375	-12.125	-1.200479	0.1356793	0.8915271
1277319570577	-8.240311	8.812365	1.4573772	2.3458986	0.0	45.0625	-18.9375	-12.875	-1.2146713	0.12021291	0.75186443
1277319570617	-6.851035	6.4015636	2.0294318	-0.21314716	0.0	45.0625	-20.4375	-13.375	-1.3740762	0.21315272	0.8193009
1277319570657	-6.5513873	6.3198414	0.61291564	-0.68323326	0.0	44.5625	-21.6875	-13.875	-0.9624124	0.067231126	0.8033856
1277319570697	-7.273266	6.742072	0.95342433	0.15652943	0.0	44.3125	-23.1875	-14.125	-0.9469742	0.095841445	0.8232809
1277319570737	-6.3198414	5.407278	0.9942854	-1.4300365	0.0	43.8125	-24.4375	-14.5625	-0.8550107	0.118978284	0.86305815
1277319570777	-5.938472	4.5219555	1.3756552	-2.2167916	0.0	42.8125	-25.375	-15.8125	-0.7172504	0.18225645	0.9199961
1277319570817	-6.469665	6.5513873	2.152015	-0.35104752	0.0	42.0625	-25.875	-17.0625	-1.1191905	0.22960359	0.77912205
1277319570857	-6.469665	7.082581	2.2609777	0.048883438	0.0	40.8125	-25.875	-18.5625	-1.0443648	0.23147355	0.7402028
1277319570897	-6.5922484	5.243834	2.070293	-1.1324558	0.0	40.3125	-25.875	-20.5	-0.51644963	0.24099876	0.89883316
1277319570937	-6.5922484	6.3607025	3.5276701	0.0096998215	0.0	39.3125	-25.625	-22.0	-1.1494317	0.36758924	0.8032722
1277319570977	-5.6660647	7.6273947	3.5957718	0.35263157	0.0	38.625	-25.375	-23.6875	-1.16649	0.36178	0.638914
1277319571017	-4.7535014	13.252599	3.255263	4.6440907	0.0	37.875	-25.125	-24.4375	-1.049527	0.22721623	0.34439048
1277319571057	-5.407278	7.205164	3.8273177	-0.018831253	0.0	37.125	-25.375	-25.1875	-1.1465447	0.40174899	0.64380354
1277319571097	-5.175732	8.499097	3.9499009	0.89963627	0.0	36.625	-26.375	-25.9375	-1.1077188	0.37786064	0.5469922
1277319571137	-4.7126403	8.539958	4.0588636	0.75811386	0.0	35.375	-28.125	-25.9375	-1.1432859	0.394329	0.5042503
1277319571177	-4.671779	8.390134	4.099725	0.6349783	0.0	34.625	-29.625	-26.1875	-1.1385024	0.40349242	0.50806284
1277319571217	-4.7535014	7.6954966	3.6774938	-0.042408943	0.0	33.625	-31.625	-26.1875	-1.0135169	0.38615435	0.55333203
1277319571257	-4.2495484	7.668256	3.9499009	-0.19090652	0.0	32.625	-32.3125	-25.9375	-1.1642436	0.42330325	0.50604224
1277319571297	-3.9499009	7.5456724	3.8681788	-0.45241642	0.0	32.625	-32.8125	-25.9375	-1.1989397	0.4263186	0.48224348
1277319571337	-4.099725	7.5456724	3.9090397	-0.3713169	0.0	32.125	-34.0625	-25.9375	-1.1855127	0.42717135	0.4977012
1277319571385	-3.9771416	7.8589406	3.7864566	-0.21926975	0.0	31.6875	-34.5625	-25.4375	-1.1585491	0.4060044	0.46848854
1277319571418	-4.2904096	7.8180795	3.636633	-0.17570591	0.0	31.6875	-35.0625	-25.4375	-1.0546644	0.38720173	0.50190645
1277319571457	-4.440233	8.008764	3.6774938	0.061476707	0.0	31.1875	-35.5625	-24.9375	-1.0380602	0.38187796	0.5062317
1277319571487	-4.630918	8.349273	3.5276701	0.37176895	0.0	31.1875	-35.3125	-24.6875	-0.95282465	0.35392618	0.5064057
1277319571525	-4.630918	8.308413	3.486809	0.32414246	0.0	31.4375	-34.8125	-25.4375	-0.9112836	0.35136452	0.5084893
1277319571557	-4.099725	7.8180795	3.2961242	-0.383564	0.0	31.4375	-34.3125	-25.9375	-0.9473358	0.35734951	0.48296887
1277319571598	-4.372132	7.6273947	3.486809	-0.34882164	0.0	31.4375	-33.0625	-26.9375	-0.8940597	0.37757686	0.52049124
1277319571637	-4.440233	7.7363577	3.214402	-0.32512665	0.0	31.1875	-32.0625	-28.375	-0.7457816	0.3458723	0.52104
1277319571677	-4.4810944	7.668256	3.214402	-0.36129475	0.0	30.4375	-31.625	-29.375	-0.66728824	0.34725252	0.52884716
1277319571717	-4.372132	7.7772183	3.3778462	-0.26670742	0.0	30.1875	-31.125	-29.625	-0.71031654	0.3619238	0.51214
1277319571757	-4.5900574	8.158588	3.636633	0.23607254	0.0	29.6875	-31.125	-29.875	-0.6940194	0.3705372	0.51246876
1277319571797	-4.5219555	8.008764	3.9499009	0.20285034	0.0	29.9375	-31.375	-29.375	-0.7968771	0.40564904	0.5140029
1277319571837	-4.440233	8.158588	3.7864566	0.22407627	0.0	29.9375	-31.625	-28.375	-0.82200885	0.3870797	0.4984105
1277319571877	-4.399372	7.8180795	3.636633	-0.1266737	0.0	29.9375	-32.5625	-28.125	-0.7970751	0.385137	0.5125549
1277319571917	-4.1814466	7.7363577	3.255263	-0.42941856	0.0	30.4375	-33.3125	-27.625	-0.79590493	0.35452554	0.4955148
1277319571957	-4.140586	7.4639506	3.214402	-0.6859379	0.0	30.1875	-33.8125	-27.125	-0.7950983	0.36016518	0.50647855
1277319571997	-4.2086873	7.3958488	3.214402	-0.7102766	0.0	30.6875	-34.3125	-26.9375	-0.8066006	0.361173	0.5173594
1277319572037	-4.671779	8.049625	2.7649305	-0.09753895	0.0	30.9375	-34.5625	-26.6875	-0.6396011	0.28877366	0.5258623
1277319572077	-6.1700177	11.114203	2.5606253	3.1606722	0.0	30.6875	-35.3125	-26.1875	-0.5275163	0.19877392	0.5067863
1277319572117	-7.6546354	12.14935	2.3018389	4.7363415	0.0	30.6875	-35.8125	-25.9375	-0.3606431	0.15894665	0.5622188
1277319572157	-6.510526	10.651112	3.5276701	3.165535	0.0	30.1875	-36.3125	-25.9375	-0.5077959	0.27540958	0.5486528
1277319572197	-3.214402	7.273266	2.8330324	-1.3651552	0.0	28.6875	-36.3125	-26.1875	-0.8762473	0.34225047	0.41613734
1277319572237	-1.0760075	5.8976107	2.9147544	-3.1406622	0.0	27.4375	-35.8125	-27.125	-1.2498572	0.45254716	0.18046312
1277319572277	-0.6946377	5.175732	3.486809	-3.5274339	0.0	26.4375	-35.8125	-28.375	-1.4807521	0.58871603	0.1334133
1277319572317	-1.1168685	5.2165933	3.7864566	-3.2646708	0.0	25.9375	-36.0625	-28.125	-1.6054723	0.6172487	0.21091501
1277319572357	-1.0760075	5.8567495	3.1054392	-3.0907693	0.0	26.4375	-36.8125	-26.9375	-1.3211479	0.4807027	0.18169475
1277319572397	-1.4165162	6.5922484	2.9556155	-2.4445906	0.0	27.4375	-37.8125	-24.6875	-1.2895529	0.41311675	0.21165767
1277319572437	-3.636633	9.084772	3.445948	0.5679693	0.0	28.6875	-38.8125	-21.5	-1.1983447	0.33858392	0.38076484
1277319572477	-5.243834	10.923519	3.214402	2.729436	0.0	29.6875	-39.0625	-19.0	-1.0210453	0.2593082	0.4475605
1277319572517	-5.47538	11.413852	2.6423476	3.1253948	0.0	30.9375	-39.0625	-17.0625	-1.0188934	0.2057747	0.44728717
1277319572557	-5.5162406	9.915613	2.1111538	1.734808	0.0	31.6875	-38.8125	-16.0625	-0.91629136	0.1839549	0.5076814
1277319572597	-4.7126403	8.730643	1.6889231	0.2574234	0.0	32.125	-38.3125	-16.0625	-0.9233206	0.1686149	0.49496412
1277319572637	-4.4810944	7.7363577	0.8036005	-0.8301697	0.0	33.125	-38.3125	-16.5625	-0.66594684	0.089642905	0.5250039
1277319572677	-4.903325	7.5865335	0.50395286	-0.75943756	0.0	33.375	-37.5625	-17.3125	-0.48442182	0.055731397	0.5737836
1277319572717	-5.5162406	8.962189	1.3756552	0.8066511	0.0	33.375	-37.3125	-18.75	-0.628137	0.12998185	0.55173975
1277319572757	-5.243834	9.915613	0.7218784	1.4333801	0.0	33.125	-36.3125	-20.5	-0.6155407	0.06426812	0.48645735
1277319572797	-4.903325	7.246025	0.92618364	-1.0086222	0.0	32.875	-34.8125	-22.25	-0.42278785	0.10546714	0.5949109
1277319572837	-4.2495484	6.8237944	1.7978859	-1.5692215	0.0	32.625	-34.8125	-22.9375	-0.65201956	0.22002922	0.55698293
1277319572877	-4.7126403	8.853226	3.0645783	0.68049526	0.0	33.125	-34.5625	-22.5	-1.0161369	0.2965498	0.48915848
1277319572917	-4.372132	8.158588	2.4516625	-0.23122597	0.0	33.625	-34.8125	-21.25	-0.9921496	0.25892028	0.49194816
1277319572957	-3.0645783	7.8180795	0.50395286	-1.3942795	0.0	34.375	-35.0625	-19.0	-0.8683627	0.05994205	0.3735788
1277319572997	-3.6774938	6.4424243	-0.7627395	-2.3494015	0.0	36.375	-34.5625	-16.3125	-0.5997666	-0.102460794	0.51869065
1277319573037	-5.9793324	7.246025	-3.486809	0.21408463	0.0	38.375	-33.3125	-12.625	-0.27930927	-0.35539365	0.68991184
1277319573077	-7.5456724	7.6954966	-4.944186	2.0509558	0.0	40.5625	-31.875	-8.1875	-0.22700626	-0.43010172	0.77556825
1277319573117	-8.308413	6.973618	-4.5900574	1.9717064	0.0	42.0625	-30.125	-4.25	-0.1637206	-0.40030876	0.8725211
1277319573157	-9.00305	6.4015636	-4.4810944	2.1145544	0.0	43.0625	-28.375	-1.5625	-0.08762438	-0.38536	0.95269674
1277319573197	-9.956474	5.243834	-3.5276701	1.9862976	0.0	43.8125	-27.625	0.6875	0.265748	-0.30378485	1.0860366
1277319573237	-9.575105	4.944186	-1.4982382	1.0732546	0.0	43.8125	-27.125	3.125	0.78801644	-0.13814591	1.0941478
1277319573277	-6.742072	4.862464	-0.7218784	-1.4627781	0.0	43.8125	-26.875	5.375	-1.8065989	-0.08662429	0.9459754
1277319573314	-6.2108784	4.9850473	-1.56634	-1.6900539	0.0	44.0625	-26.125	7.3125	-1.2230743	-0.19419825	0.8944528
1277319573347	-4.8216033	4.3312707	-3.405087	-2.4852853	0.0	44.3125	-24.9375	8.5625	-0.61973876	-0.48373523	0.8389184
1277319573387	-5.7477865	4.7535014	-4.2495484	-1.2222757	0.0	45.5625	-23.1875	8.0625	-0.5631289	-0.51787275	0.87979895
1277319573427	-6.5922484	5.2165933	-4.2495484	-0.38702965	0.0	46.75	-21.9375	6.8125	-0.6182449	-0.46804002	0.9013691
1277319573457	-7.7772183	3.759216	-2.7513103	-0.7409706	0.0	47.25	-20.9375	6.3125	-0.17537256	-0.30834952	1.120547
1277319573497	-9.234595	3.0237172	-2.8330324	0.31494522	0.0	47.75	-19.9375	5.625	0.42486006	-0.2836897	1.2543648
1277319573537	-9.425281	5.5162406	-2.8738933	1.4860058	0.0	47.75	-19.1875	4.625	-0.72795784	-0.25732264	1.0412855
1277319573577	-9.302697	6.0201936	-3.214402	1.7309093	0.0	47.75	-18.1875	2.875	-0.7631055	-0.2823395	0.9964308
1277319573617	-8.390134	5.706926	-3.1463003	0.817029	0.0	47.5	-17.75	-0.8125	-0.6646128	-0.30066893	0.9734864
1277319573657	-5.597963	3.718355	-2.070293	-2.7746186	0.0	47.25	-17.0	-5.5	-0.5484312	-0.298837	0.9844801
1277319573697	-7.7772183	4.0180025	-1.0351465	-0.9918337	0.0	47.25	-16.75	-8.1875	-0.45355624	-0.11770416	1.0939275
1277319573737	-8.689782	4.399372	-0.7627395	-0.03687191	0.0	47.25	-16.25	-9.1875	-0.48385096	-0.078150846	1.1021457
1277319573777	-9.80665	4.0180025	-1.4982382	0.896595	0.0	47.5	-15.5	-8.6875	-0.23113935	-0.14044103	1.181937
1277319573817	-10.269742	3.636633	-2.070293	1.2829304	0.0	48.0	-15.0	-6.9375	-0.1157212	-0.1877899	1.2304635
1277319573857	-9.765789	4.2904096	-0.8036005	0.8902664	0.0	48.25	-14.5	-6.0	-0.5618884	-0.07519534	1.1568505
1277319573897	-7.5865335	4.5219555	-1.1849703	-0.8955488	0.0	48.75	-14.25	-6.25	-0.78485686	-0.13337192	1.0332861
1277319573937	-6.66035	2.982856	-1.7570249	-2.300331	0.0	49.0	-14.0	-6.25	-0.38519362	-0.23626474	1.1497295
1277319573977	-7.3958488	4.4810944	-1.607201	-1.0110903	0.0	49.25	-14.5	-6.0	-0.7196697	-0.18376115	1.0260549
1277319574017	-9.575105	4.630918	-0.61291564	0.8471613	0.0	49.5	-14.5	-6.25	-0.747601	-0.057561956	1.1203209
1277319574057	-8.962189	3.9499009	-1.0351465	0.041906357	0.0	49.25	-14.5	-6.0	-0.52752084	-0.1053009	1.1556785
1277319574097	-10.337844	4.0180025	-1.607201	1.4004211	0.0	49.25	-14.5	-6.6875	-0.30064803	-0.14390571	1.2000958
1277319574137	-10.147159	4.399372	-1.607201	1.3693237	0.0	48.5	-14.25	-8.1875	-0.38564852	-0.14430892	1.1617001
1277319574177	-8.499097	5.175732	0.23154591	0.14706612	0.0	47.75	-14.5	-9.9375	-0.9549852	0.023264358	1.0238042
1277319574217	-7.3958488	4.399372	0.61291564	-1.1794424	0.0	47.0	-15.25	-11.625	-0.92841697	0.0711044	1.0341771
1277319574257	-6.2789803	3.1054392	-0.040861044	-2.8015795	0.0	46.75	-15.5	-12.375	-0.49486306	-0.0058330996	1.1114966
1277319574297	-7.6954966	3.718355	-0.6537767	-1.2349377	0.0	46.75	-15.25	-12.375	-0.39044106	-0.07634556	1.1206903
1277319574327	-8.430995	4.099725	-0.95342433	-0.383358	0.0	47.25	-15.5	-11.375	-0.3911808	-0.10135084	1.1181943
1277319574367	-9.915613	3.568531	-1.334794	0.81575394	0.0	47.75	-15.0	-10.625	-0.121579185	-0.12599145	1.2253381
1277319574407	-10.882658	5.09401	-2.3018389	2.4277134	0.0	47.5	-14.75	-10.875	-0.32750326	-0.18927346	1.133005
1277319574448	-9.275456	5.407278	-0.08172209	0.9301758	0.0	47.25	-15.0	-12.125	-0.7145859	-0.0076114563	1.0429958
1277319574488	-8.880466	4.671779	2.2201166	0.4703684	0.0	46.0625	-16.0	-15.3125	-1.0140055	0.21774386	1.086508
1277319574528	-7.3549876	4.2904096	4.2904096	-0.2719202	0.0	44.3125	-17.0	-18.75	-2.086542	0.46673962	1.0427219
1277319574567	-5.938472	4.9850473	4.1814466	-0.9975281	0.0	42.5625	-18.4375	-21.5	-1.7337416	0.49459174	0.87245935
1277319574607	-5.47538	5.829509	5.09401	-0.32446194	0.0	41.0625	-19.4375	-24.1875	-1.7090493	0.5671362	0.7540831
1277319574637	-5.5571017	6.1700177	5.175732	-0.022034645	0.0	40.3125	-18.6875	-24.9375	-1.5967436	0.55738205	0.7331808
1277319574667	-6.0882955	6.5513873	5.8567495	0.8839779	0.0	40.5625	-17.9375	-25.4375	-1.630439	0.5797796	0.7487766
1277319574707	-6.5513873	6.973618	6.6331096	1.8359518	0.0	40.8125	-17.0	-26.1875	-1.65114	0.6061742	0.7541898
1277319574747	-6.2108784	6.782933	7.164303	1.8514128	0.0	40.5625	-16.0	-26.9375	-1.7180644	0.661798	0.7414014
1277319574777	-5.407278	5.47538	6.932757	0.5510311	0.0	39.3125	-14.5	-29.375	-1.768946	0.73331314	0.77914035
1277319574817	-5.202973	4.5219555	6.701211	-0.1928463	0.0	37.375	-12.75	-32.0625	-1.7373209	0.7712618	0.85531205
1277319574867	-3.759216	2.7649305	7.7772183	-0.73682785	0.0	34.625	-9.3125	-35.0625	-2.2547479	1.0303575	0.9366353
1277319574907	-3.2961242	-0.7218784	10.147159	0.88682365	0.0	29.9375	-4.0625	-38.25	2.532045	1.2497675	1.7864004
1277319574947	-2.5606253	-0.27240697	8.008764	-1.3940821	0.0	25.4375	0.875	-40.6875	2.9873898	1.2597046	1.6767807
1277319574987	-3.486809	1.5390993	9.615966	0.53711414	0.0	21.75	4.5625	-42.6875	-1.6521038	1.1934317	1.1551119
1277319575027	-2.6832085	0.92618364	8.962189	-0.4056797	0.0	19.0	7.0625	-43.875	-1.700336	1.264066	1.2384241
1277319575067	-3.0237172	0.88532263	8.471856	-0.7678995	0.0	18.0	8.0625	-44.625	-1.45509	1.2147486	1.2859647
1277319575107	-1.56634	-0.14982383	7.7363577	-1.9118986	0.0	17.5625	9.3125	-44.875	-2.4435725	1.370144	1.6661584
1277319575147	-1.8387469	-0.46309182	9.302697	-0.31267166	0.0	16.3125	10.75	-44.875	-2.5261893	1.369721	1.8175172
1277319575187	-1.879608	0.14982383	9.697687	0.072647095	0.0	15.0625	11.5	-45.125	-1.9624943	1.3787576	1.4912543
1277319575227	-1.2258313	0.53119355	9.193735	-0.51635456	0.0	14.5625	11.75	-44.875	-1.6996106	1.4264929	1.1618885
1277319575257	-0.7627395	0.84446156	8.894087	-0.84006405	0.0	14.8125	11.5	-44.625	-1.3457974	1.4435453	0.73459446
1277319575287	-0.5720546	-0.6537767	9.466142	-0.3007307	0.0	15.3125	11.75	-44.375	2.8909912	1.4792817	2.4227626
1277319575317	-2.1383946	-1.8387469	8.853226	-0.5150776	0.0	15.8125	12.75	-43.875	3.0354745	1.2624055	2.2809942
1277319575357	-3.0645783	-0.6946377	8.894087	-0.37378502	0.0	15.5625	13.75	-43.6875	-1.828082	1.2311809	1.7936965
1277319575398	-1.0760075	0.313268	11.454713	1.702754	0.0	15.0625	15.0	-42.9375	-1.8845576	1.47327	1.2874883
1277319575437	-2.3018389	-0.9125633	10.119919	0.6117945	0.0	14.5625	16.75	-41.4375	-2.3097365	1.3308319	1.9482384
1277319575477	-1.7297841	-2.8330324	9.575105	0.3274927	0.0	13.8125	19.1875	-40.4375	2.9458947	1.2370939	2.5934324
1277319575517	-1.879608	-2.8738933	9.343558	0.14796066	0.0	12.8125	22.1875	-39.25	-3.0066516	1.2185966	2.5623908
1277319575557	-1.525479	-2.6423476	8.812365	-0.48104763	0.0	10.8125	24.1875	-39.0	-2.9205117	1.2374865	2.618017
1277319575597	-1.334794	-2.5606253	8.349273	-0.97212505	0.0	8.625	25.375	-39.9375	-2.8132408	1.2378185	2.661069
1277319575637	-0.95342433	-0.95342433	8.158588	-1.5373936	0.0	7.375	24.9375	-40.9375	-2.4775271	1.4070096	2.3561945
1277319575677	-1.4165162	0.9942854	7.3958488	-2.2110133	0.0	6.875	23.4375	-42.4375	-0.92864347	1.3409306	0.9587809
1277319575717	-1.4573772	-1.920469	12.489859	2.9137554	0.0	5.625	21.4375	-43.875	-2.5181897	1.3801177	2.492442
1277319575757	-0.27240697	-0.7218784	9.915613	0.138937	0.0	5.625	18.9375	-45.125	-3.0536582	1.4931394	2.7807558
1277319575797	-0.9942854	0.50395286	12.217452	2.4615488	0.0	5.875	17.5	-45.625	-1.2141267	1.4798095	1.1016843
1277319575837	0.10896278	0.14982383	13.6748295	3.8694344	0.0	6.625	17.25	-45.125	0.2538237	1.5572469	-0.6287963
1277319575877	-0.53119355	-3.568531	9.466142	0.32372093	0.0	9.625	18.6875	-44.375	1.9620577	1.2066606	2.9938228
1277319575917	-0.0	-1.6889231	12.639683	2.9453707	0.0	12.0625	20.4375	-43.875	2.4458847	1.4379625	3.1415927
1277319575957	-4.7943625	-1.9885708	11.563675	2.8684788	0.0	15.3125	20.4375	-43.6875	-1.7351172	1.1488955	1.9639726
1277319575997	-2.4108016	-1.525479	6.742072	-2.485818	0.0	19.0	19.6875	-43.6875	-2.4263608	1.1704944	2.1349623
1277319576037	-5.202973	0.0	6.5513873	-1.4405518	0.0	22.0	17.25	-44.125	-1.0361975	0.89961493	1.5707964
1277319576077	-1.1849703	-0.6537767	4.903325	-4.7199836	0.0	21.25	15.25	-45.875	-2.9054837	1.3014929	2.0749624
1277319576117	0.84446156	-1.1441092	9.384419	-0.31510448	0.0	17.3125	14.75	-47.625	1.3302002	1.4204116	-2.5057542
1277319576157	-0.6946377	0.53119355	9.915613	0.14744759	0.0	12.3125	13.75	-49.8125	-1.4116547	1.482834	0.9179497
1277319576197	-0.23154591	0.23154591	9.425281	-0.37568283	0.0	7.125	13.75	-51.3125	-1.158072	1.5360665	0.7853982
1277319576237	-0.19068487	0.3405087	10.079058	0.27996063	0.0	5.375	13.75	-50.8125	-0.7888423	1.5320947	0.51048833
1277319576277	-0.19068487	0.3405087	10.269742	0.47050476	0.0	5.125	13.5	-50.5625	-0.7799896	1.5328131	0.51048833
1277319576307	-0.23154591	0.3405087	10.119919	0.32164288	0.0	5.375	13.5	-50.3125	-0.86875105	1.5301281	0.5971767
1277319576337	-0.29964766	0.3405087	10.119919	0.32342815	0.0	5.375	13.0	-50.0625	-0.98124576	1.5260049	0.72165483
1277319576377	-0.27240697	0.27240697	10.119919	0.3205986	0.0	5.625	12.75	-50.5625	-1.079148	1.5327457	0.7853982
1277319576417	-0.29964766	0.27240697	10.18802	0.3894148	0.0	5.875	13.0	-50.8125	-1.1293962	1.5310684	0.8329813
1277319576457	-0.23154591	0.313268	10.147159	0.34798336	0.0	6.125	13.0	-51.0625	-0.964827	1.5324258	0.6365082
1277319576487	-0.27240697	0.27240697	10.119919	0.3205986	0.0	6.375	13.5	-51.5625	-1.1089115	1.5327457	0.7853982
1277319576527	-0.27240697	0.27240697	10.079058	0.27976704	0.0	5.875	13.75	-51.5625	-1.0734217	1.5325924	0.7853982
1277319576557	-0.29964766	0.313268	10.119919	0.32254982	0.0	5.625	13.25	-51.5625	-1.0329233	1.5279841	0.7631796
1277319576637	-0.27240697	0.313268	10.147159	0.34899712	0.0	5.125	13.5	-51.3125	-0.95964515	1.5299059	0.7157436
1277319576667	-0.29964766	0.313268	10.147159	0.34976482	0.0	5.625	13.5	-51.0625	-1.0301651	1.5280985	0.7631796
1277319576707	-0.27240697	0.313268	10.147159	0.34899712	0.0	5.625	13.75	-51.0625	-0.9868845	1.5299059	0.7157436
1277319576737	-0.27240697	0.27240697	10.079058	0.27976704	0.0	5.375	13.75	-51.0625	-1.0438634	1.5325924	0.7853982
1277319576767	-0.27240697	0.313268	10.079058	0.2809534	0.0	5.625	13.5	-51.0625	-0.9904037	1.5296298	0.7157436
1277319576797	-0.27240697	0.313268	10.147159	0.34899712	0.0	5.625	13.5	-51.3125	-0.9906058	1.5299059	0.7157436
1277319576837	-0.27240697	0.313268	10.079058	0.2809534	0.0	5.625	13.25	-51.0625	-0.99478984	1.5296298	0.7157436
1277319576877	-0.27240697	0.313268	10.119919	0.3217802	0.0	5.625	13.5	-50.8125	-0.9914009	1.5297967	0.7157436
1277319576997	-0.29964766	0.27240697	10.119919	0.32136822	0.0	5.375	13.5	-50.8125	-1.0879833	1.5308008	0.8329813
1277319577037	-0.23154591	0.313268	10.119919	0.3207636	0.0	5.375	13.75	-50.8125	-0.90514874	1.5323203	0.6365082
1277319577077	-0.27240697	0.27240697	10.079058	0.27976704	0.0	5.625	13.5	-50.5625	-1.0646825	1.5325924	0.7853982
1277319577117	-0.27240697	0.27240697	10.147159	0.34781933	0.0	5.875	13.5	-50.8125	-1.0803409	1.5328476	0.7853982
1277319577147	-0.27240697	0.23154591	10.119919	0.319582	0.0	5.625	14.25	-50.3125	-1.1370405	1.5354826	0.8663023
1277319577237	-0.27240697	0.27240697	10.038197	0.23893642	0.0	5.375	14.75	-50.3125	-1.0295823	1.5324367	0.7853982
1277319577267	-0.27240697	0.27240697	10.119919	0.3205986	0.0	5.375	14.5	-50.5625	-1.0335832	1.5327457	0.7853982
1277319577297	-0.29964766	0.27240697	10.079058	0.2805395	0.0	5.625	14.25	-51.3125	-1.089711	1.5306386	0.8329812
1277319577337	-0.27240697	0.313268	10.079058	0.2809534	0.0	6.125	13.75	-51.3125	-1.0156152	1.5296298	0.7157436
1277319577377	-0.27240697	0.14982383	10.079058	0.2772007	0.0	6.125	14.0	-51.5625	-1.3781232	1.5399618	1.0679531
1277319577407	-0.3405087	0.27240697	10.079058	0.2818365	0.0	5.875	14.0	-51.0625	-1.1599458	1.5275587	0.8960554
1277319577447	-0.23154591	0.27240697	10.079058	0.2787466	0.0	6.125	14.5	-50.8125	-1.0075065	1.5353394	0.70449406
1277319577477	-0.27240697	0.313268	10.079058	0.2809534	0.0	5.875	14.5	-50.5625	-0.9896268	1.5296298	0.7157436
1277319577517	-0.23154591	0.27240697	10.147159	0.34680462	0.0	5.875	14.25	-50.5625	-0.9985248	1.5355773	0.704494
1277319577557	-0.27240697	0.313268	10.119919	0.3217802	0.0	6.125	14.25	-50.5625	-1.008705	1.5297967	0.7157436
1277319577597	-0.29964766	0.27240697	10.147159	0.34858608	0.0	5.875	14.0	-50.3125	-1.1117991	1.5309082	0.8329813
1277319577637	-0.27240697	0.313268	10.147159	0.34899712	0.0	5.875	14.25	-50.5625	-0.9944367	1.5299059	0.7157436
1277319577667	-0.27240697	0.313268	10.119919	0.3217802	0.0	6.125	14.25	-50.8125	-1.00818	1.5297967	0.7157436
1277319577707	-0.29964766	0.313268	10.147159	0.34976482	0.0	5.625	14.25	-51.3125	-1.0175326	1.5280985	0.7631796
1277319577737	-0.27240697	0.27240697	10.119919	0.3205986	0.0	5.375	13.75	-51.5625	-1.0432453	1.5327457	0.7853982
1277319577777	-0.27240697	0.313268	10.18802	0.3898239	0.0	5.375	14.0	-51.5625	-0.96713674	1.530071	0.7157436
1277319577807	-0.27240697	0.27240697	10.119919	0.3205986	0.0	4.875	14.25	-51.8125	-1.0046214	1.5327457	0.7853982
1277319577837	-0.27240697	0.27240697	10.079058	0.27976704	0.0	4.875	14.5	-51.5625	-1.0013695	1.5325924	0.7853982
1277319577877	-0.23154591	0.313268	10.119919	0.3207636	0.0	4.875	14.75	-51.5625	-0.8591992	1.5323203	0.6365082
1277319577917	-0.29964766	0.27240697	10.119919	0.32136822	0.0	4.625	14.25	-51.5625	-1.0289257	1.5308008	0.8329813
1277319577957	-0.27240697	0.27240697	10.079058	0.27976704	0.0	5.125	14.25	-51.0625	-1.0208883	1.5325924	0.7853982
1277319577997	-0.27240697	0.313268	10.147159	0.34899712	0.0	5.375	14.0	-51.0625	-0.9677536	1.5299059	0.7157436
1277319578037	-0.29964766	0.313268	10.147159	0.34976482	0.0	5.125	13.5	-51.0625	-0.9990625	1.5280985	0.7631796
1277319578077	-0.29964766	0.27240697	10.147159	0.34858608	0.0	5.375	13.25	-50.8125	-1.0924649	1.5309082	0.8329813
1277319578117	-0.29964766	0.23154591	10.119919	0.3203516	0.0	4.625	13.5	-51.0625	-1.122308	1.5333936	0.9129077
1277319578157	-0.27240697	0.313268	10.079058	0.2809534	0.0	4.625	13.25	-51.0625	-0.9314636	1.5296298	0.7157436
1277319578197	-0.27240697	0.313268	10.147159	0.34899712	0.0	4.875	14.0	-51.3125	-0.93691045	1.5299059	0.7157436
1277319578237	-0.27240697	0.27240697	10.147159	0.34781933	0.0	4.875	14.5	-51.5625	-1.0020497	1.5328476	0.7853982
1277319578267	-0.29964766	0.23154591	10.119919	0.3203516	0.0	5.375	14.25	-51.5625	-1.1575831	1.5333936	0.9129077
1277319578297	-0.27240697	0.313268	10.147159	0.34899712	0.0	5.375	14.5	-52.0	-0.9583487	1.5299059	0.7157436
1277319578337	-0.23154591	0.313268	10.119919	0.3207636	0.0	5.625	14.25	-51.8125	-0.9099009	1.5323203	0.6365082
1277319578377	-0.27240697	0.27240697	10.079058	0.27976704	0.0	5.875	14.0	-51.8125	-1.0684764	1.5325924	0.7853982
1277319578407	-0.27240697	0.23154591	10.147159	0.34680462	0.0	5.625	13.75	-52.0	-1.1424476	1.5355773	0.8663023
1277319578447	-0.29964766	0.23154591	10.119919	0.3203516	0.0	5.625	14.0	-51.8125	-1.1763012	1.5333936	0.9129077
1277319578477	-0.29964766	0.23154591	10.147159	0.34757233	0.0	5.375	14.0	-51.5625	-1.1617464	1.5334941	0.9129077
1277319578507	-0.29964766	0.23154591	10.119919	0.3203516	0.0	5.125	13.75	-51.5625	-1.1496704	1.5333936	0.9129077
1277319578547	-0.29964766	0.27240697	10.079058	0.2805395	0.0	5.375	13.75	-51.3125	-1.0823495	1.5306386	0.8329812
1277319578587	-0.27240697	0.313268	10.119919	0.3217802	0.0	5.375	13.5	-51.0625	-0.97543544	1.5297967	0.7157436
1277319578627	-0.27240697	0.27240697	10.119919	0.3205986	0.0	5.625	13.5	-50.8125	-1.0645832	1.5327457	0.7853982
1277319578657	-0.29964766	0.27240697	10.119919	0.32136822	0.0	5.625	14.0	-50.5625	-1.0958278	1.5308008	0.8329813
1277319578697	-0.27240697	0.27240697	10.079058	0.27976704	0.0	5.625	14.0	-50.5625	-1.0958278	1.5308008	0.8329813
1277319578737	-0.27240697	0.27240697	10.147159	0.34781933	0.0	5.375	14.0	-50.5625	-1.0415859	1.5328476	0.7853982
1277319578767	-0.27240697	0.23154591	10.147159	0.34680462	0.0	5.375	14.0	-51.0625	-1.124691	1.5355773	0.8663023
1277319578797	-0.27240697	0.313268	10.147159	0.34899712	0.0	5.875	13.5	-51.0625	-1.006438	1.5299059	0.7157436
1277319578827	-0.27240697	0.27240697	10.119919	0.3205986	0.0	5.875	13.5	-50.5625	-1.0805879	1.5327457	0.7853982
1277319578857	-0.23154591	0.23154591	10.119919	0.31856537	0.0	6.125	13.75	-50.5625	-1.1073072	1.5384502	0.7853982
1277319578887	-0.23154591	0.27240697	10.079058	0.2787466	0.0	6.125	13.5	-50.8125	-1.0265181	1.5353394	0.70449406
1277319578927	-0.27240697	0.27240697	10.119919	0.3205986	0.0	6.125	13.75	-51.0625	-1.090031	1.5327457	0.7853982
1277319578967	-0.23154591	0.27240697	10.147159	0.34680462	0.0	6.375	13.75	-51.5625	-1.0356266	1.5355773	0.704494
1277319579007	-0.29964766	0.27240697	10.119919	0.32136822	0.0	6.625	13.5	-51.5625	-1.1631978	1.5308008	0.8329813
1277319579047	-0.27240697	0.27240697	10.147159	0.34781933	0.0	6.125	14.0	-51.3125	-1.0851411	1.5328476	0.7853982
1277319579087	-0.29964766	0.313268	10.119919	0.32254982	0.0	5.625	13.75	-51.3125	-1.0251266	1.5279841	0.7631796
1277319579127	-0.27240697	0.27240697	10.119919	0.3205986	0.0	5.125	13.5	-51.5625	-1.0316476	1.5327457	0.7853982
1277319579157	-0.27240697	0.23154591	10.038197	0.23791027	0.0	5.125	13.5	-51.5625	-1.0316476	1.5327457	0.7853982
1277319579197	-0.23154591	0.23154591	10.038197	0.23688602	0.0	5.375	13.0	-51.5625	-1.07247	1.5381877	0.7853982
1277319579237	-0.27240697	0.19068487	10.147159	0.3459549	0.0	5.375	13.25	-51.3125	-1.234387	1.5380381	0.9600704
1277319579267	-0.27240697	0.23154591	10.119919	0.319582	0.0	5.375	13.75	-50.5625	-1.1295738	1.5354826	0.8663023
1277319579297	-0.27240697	0.19068487	10.119919	0.31873035	0.0	5.125	13.75	-50.8125	-1.210364	1.5379509	0.9600704
1277319579327	-0.27240697	0.19068487	10.079058	0.27789116	0.0	5.125	13.5	-51.0625	-1.2135649	1.5378187	0.9600704
1277319579367	-0.29964766	0.27240697	10.147159	0.34858608	0.0	5.375	13.5	-51.0625	-1.0877211	1.5309082	0.8329813
1277319579397	-0.27240697	0.27240697	10.038197	0.23893642	0.0	5.375	13.5	-51.5625	-1.0464832	1.5324367	0.7853982
1277319579437	-0.29964766	0.27240697	10.147159	0.34858608	0.0	5.875	13.75	-51.5625	-1.1133232	1.5309082	0.8329813
1277319579467	-0.3405087	0.27240697	10.079058	0.2818365	0.0	5.875	14.25	-51.5625	-1.1546986	1.5275587	0.8960554
1277319579497	-0.29964766	0.23154591	10.079058	0.27951908	0.0	6.125	14.25	-51.3125	-1.2028674	1.5332409	0.9129077
1277319579537	-0.27240697	0.313268	10.079058	0.2809534	0.0	6.625	14.0	-51.3125	-1.0401647	1.5296298	0.7157436
1277319579577	-0.29964766	0.27240697	10.119919	0.32136822	0.0	6.125	13.5	-51.3125	-1.1334326	1.5308008	0.8329813
1277319579617	-0.27240697	0.27240697	10.119919	0.3205986	0.0	6.125	13.5	-50.8125	-1.0953684	1.5327457	0.7853982
1277319579647	-0.29964766	0.313268	10.079058	0.28172588	0.0	5.875	13.25	-51.3125	-1.0485986	1.5278132	0.7631796
1277319579687	-0.29964766	0.313268	10.119919	0.32254982	0.0	5.375	13.25	-51.0625	-1.0184044	1.5279841	0.7631796
1277319579727	-0.27240697	0.313268	10.119919	0.3217802	0.0	5.375	13.5	-51.0625	-0.97543544	1.5297967	0.7157436
1277319579757	-0.3405087	0.27240697	10.079058	0.2818365	0.0	5.375	13.75	-51.5625	-1.1318705	1.5275587	0.8960554
1277319579797	-0.27240697	0.313268	10.147159	0.34899712	0.0	5.125	14.25	-51.5625	-0.94802433	1.5299059	0.7157436
1277319579837	-0.27240697	0.313268	10.119919	0.3217802	0.0	5.375	14.25	-51.3125	-0.963146	1.5297967	0.7157436
1277319579867	-0.29964766	0.27240697	10.038197	0.23971176	0.0	5.375	14.5	-51.3125	-1.0705985	1.5304756	0.8329813
1277319579897	-0.23154591	0.313268	10.038197	0.23910236	0.0	5.125	14.25	-51.3125	-0.88058335	1.532007	0.6365082
1277319579937	-0.29964766	0.313268	10.119919	0.32254982	0.0	5.125	14.25	-50.8125	-0.98853946	1.5279841	0.7631796
1277319579977	-0.27240697	0.27240697	10.119919	0.3205986	0.0	5.125	14.25	-50.8125	-0.98853946	1.5279841	0.7631796
1277319580017	-0.29964766	0.27240697	10.119919	0.32136822	0.0	5.125	13.75	-50.3125	-1.0695038	1.5308008	0.8329813
1277319580057	-0.27240697	0.27240697	9.697687	-0.10131359	0.0	5.625	13.75	-49.5625	-1.0583137	1.531091	0.7853982
1277319580097	-0.14982383	0.38136974	10.460427	0.66179943	0.0	5.375	13.25	-49.8125	-0.6747714	1.5316445	0.37433365
1277319580137	-0.14982383	0.313268	10.038197	0.23755074	0.0	5.125	13.25	-50.0625	-0.73377305	1.5362161	0.44610554
1277319580167	-0.14982383	0.42223078	10.18802	0.39121628	0.0	5.125	13.25	-50.0625	-0.73377305	1.5362161	0.44610554
1277319580207	-0.14982383	0.3405087	9.997335	0.19760418	0.0	5.125	12.75	-50.5625	-0.70792776	1.533603	0.41450688
1277319580247	-0.19068487	0.3405087	10.119919	0.32079124	0.0	5.125	13.25	-50.5625	-0.7829946	1.5322506	0.51048833
1277319580287	-0.19068487	0.3405087	10.038197	0.23913002	0.0	4.875	13.75	-50.5625	-0.7587771	1.531938	0.5104883
1277319580322	-0.23154591	0.3405087	10.147159	0.3488598	0.0	4.625	13.75	-50.5625	-0.81863725	1.5302383	0.5971767
1277319580357	-0.19068487	0.3405087	10.147159	0.34801102	0.0	4.375	14.0	-51.0625	-0.7248827	1.5323544	0.5104883
1277319580387	-0.19068487	0.38136974	10.079058	0.28142262	0.0	4.625	13.75	-50.8125	-0.6937265	1.5285181	0.4636476
1277319580427	-0.19068487	0.3405087	10.119919	0.32079124	0.0	4.625	13.0	-51.0625	-0.7547711	1.5322506	0.51048833
1277319580507	-0.14982383	0.38136974	10.147159	0.34877777	0.0	4.375	13.0	-51.0625	-0.6128249	1.5304387	0.37433362
1277319580547	-0.19068487	0.38136974	10.119919	0.3222475	0.0	4.625	13.0	-51.0625	-0.7047571	1.5286876	0.4636476
1277319580587	-0.19068487	0.38136974	10.147159	0.3494625	0.0	4.625	13.25	-51.0625	-0.7011755	1.5288025	0.4636476
1277319580627	-0.19068487	0.38136974	10.119919	0.3222475	0.0	4.625	13.5	-50.8125	-0.69766504	1.5286876	0.4636476
1277319580767	-0.14982383	0.313268	10.079058	0.27838707	0.0	4.875	13.75	-51.0625	-0.70858765	1.5363578	0.44610554
1277319580827	-0.14982383	0.3405087	10.119919	0.32010365	0.0	4.375	13.0	-51.5625	-0.6552005	1.534053	0.41450688
1277319580897	-0.19068487	0.3405087	10.038197	0.23913002	0.0	4.875	13.25	-51.3125	-0.7654035	1.531938	0.5104883
1277319580927	-0.19068487	0.3405087	10.079058	0.27996063	0.0	4.875	13.25	-51.3125	-0.7654035	1.531938	0.5104883
1277319580967	-0.19068487	0.3405087	10.119919	0.32079124	0.0	4.875	13.0	-51.3125	-0.77026147	1.5322506	0.51048833
1277319581007	-0.19068487	0.38136974	10.147159	0.3494625	0.0	4.375	12.75	-50.8125	-0.6932828	1.5288025	0.4636476
1277319581077	-0.19068487	0.3405087	10.079058	0.27996063	0.0	4.375	12.75	-51.3125	-0.7417123	1.5320947	0.51048833
1277319581177	-0.14982383	0.38136974	10.079058	0.2807331	0.0	4.375	13.75	-50.8125	-0.6016944	1.5301648	0.37433362
1277319581217	-0.10896278	0.3405087	10.079058	0.2787466	0.0	4.375	13.75	-50.8125	-0.6016944	1.5301648	0.37433362
1277319581277	-0.10896278	0.3405087	10.119919	0.319582	0.0	4.125	13.75	-50.3125	-0.53797686	1.5354826	0.30970296
1277319581307	-0.10896278	0.313268	10.119919	0.3187027	0.0	3.875	13.75	-50.5625	-0.54911107	1.5380327	0.33473682
1277319581347	-0.14982383	0.3405087	10.079058	0.27927017	0.0	4.125	13.75	-50.8125	-0.62934613	1.5339055	0.41450688
1277319581387	-0.19068487	0.38136974	10.119919	0.3222475	0.0	4.375	13.5	-51.0625	-0.6818379	1.5286876	0.4636476
1277319581427	-0.14982383	0.3405087	10.147159	0.34732533	0.0	4.375	13.25	-51.3125	-0.6518979	1.5341504	0.41450688
1277319581467	-0.14982383	0.3405087	10.119919	0.32010365	0.0	4.625	13.25	-51.3125	-0.6674154	1.534053	0.41450688
1277319581497	-0.14982383	0.3405087	10.079058	0.27927017	0.0	4.375	13.5	-50.8125	-0.64837056	1.5339055	0.41450688
1277319581537	-0.19068487	0.3405087	10.079058	0.27996063	0.0	4.125	14.0	-50.5625	-0.7098925	1.5320947	0.51048833
1277319581577	-0.19068487	0.3405087	10.147159	0.34801102	0.0	3.875	14.0	-50.5625	-0.69507295	1.5323544	0.5104883
1277319581617	-0.14982383	0.3405087	10.147159	0.34732533	0.0	3.625	14.0	-51.0625	-0.59553796	1.5341504	0.41450688
1277319581677	-0.14982383	0.3405087	10.119919	0.32010365	0.0	3.875	13.0	-51.3125	-0.6232985	1.534053	0.41450688
1277319581717	-0.14982383	0.38136974	10.119919	0.32156086	0.0	4.375	13.0	-51.3125	-0.61224043	1.530328	0.37433362
1277319581747	-0.14982383	0.38136974	10.147159	0.34877777	0.0	4.375	12.5	-51.0625	-0.62075967	1.5304387	0.37433362
1277319581807	-0.10896278	0.38136974	10.119919	0.32103825	0.0	4.375	13.0	-51.0625	-0.52954	1.5316231	0.27829966
1277319581847	-0.19068487	0.38136974	10.079058	0.28142262	0.0	4.125	13.0	-51.0625	-0.6725638	1.5285181	0.4636476
1277319581887	-0.19068487	0.38136974	10.18802	0.39028835	0.0	4.375	13.5	-50.8125	-0.68282413	1.5289675	0.4636476
1277319581927	-0.14982383	0.3405087	10.147159	0.34732533	0.0	4.875	13.0	-51.0625	-0.6879254	1.5341504	0.41450688
1277319581967	-0.14982383	0.3405087	10.079058	0.27927017	0.0	4.625	13.0	-50.5625	-0.6723414	1.5339055	0.41450688
1277319582007	-0.14982383	0.3405087	10.119919	0.32010365	0.0	5.125	13.25	-50.5625	-0.6995971	1.534053	0.41450688
1277319582047	-0.14982383	0.313268	10.079058	0.27838707	0.0	5.375	13.25	-50.0625	-0.7495294	1.5363578	0.44610554
1277319582087	-0.19068487	0.313268	10.119919	0.31991196	0.0	5.375	13.75	-50.3125	-0.8286394	1.5345726	0.5467889
1277319582127	-0.14982383	0.3405087	10.119919	0.32010365	0.0	5.625	13.75	-50.5625	-0.72054833	1.534053	0.41450688
1277319582157	-0.19068487	0.3405087	10.079058	0.27996063	0.0	5.375	13.25	-50.3125	-0.7985239	1.5320947	0.51048833
1277319582197	-0.19068487	0.38136974	10.079058	0.28142262	0.0	5.125	13.0	-51.3125	-0.7352747	1.5285181	0.4636476
1277319582237	-0.19068487	0.3405087	10.119919	0.32079124	0.0	5.625	12.75	-51.0625	-0.8226329	1.5322506	0.51048833
1277319582268	-0.19068487	0.313268	10.119919	0.31991196	0.0	5.625	12.5	-50.8125	-0.86736506	1.5345726	0.5467889
1277319582307	-0.14982383	0.3405087	10.119919	0.32010365	0.0	5.625	13.0	-50.8125	-0.7347256	1.534053	0.41450688
1277319582347	-0.10896278	0.3405087	10.079058	0.2787466	0.0	5.625	13.5	-50.3125	-0.6326115	1.5353394	0.30970293
1277319582387	-0.14982383	0.3405087	10.079058	0.27927017	0.0	4.625	13.75	-50.5625	-0.6603539	1.5339055	0.41450688
1277319582427	-0.14982383	0.313268	10.119919	0.31922436	0.0	4.375	13.75	-50.5625	-0.6788973	1.5364966	0.44610554
1277319582457	-0.14982383	0.3405087	10.119919	0.32010365	0.0	4.125	13.5	-50.8125	-0.63304627	1.534053	0.41450688
1277319582487	-0.14982383	0.313268	10.079058	0.27838707	0.0	4.125	13.0	-51.0625	-0.67317486	1.5363578	0.44610554
1277319582527	-0.14982383	0.3405087	10.079058	0.27927017	0.0	4.375	12.75	-50.8125	-0.66001165	1.5339055	0.41450688
1277319582567	-0.14982383	0.3405087	10.119919	0.32010365	0.0	4.125	12.75	-50.8125	-0.6439841	1.534053	0.41450688
1277319582647	-0.10896278	0.3405087	10.079058	0.2787466	0.0	3.625	12.75	-51.0625	-0.519162	1.5353394	0.30970293
1277319582677	-0.10896278	0.38136974	10.079058	0.2802086	0.0	3.625	13.0	-51.0625	-0.48158002	1.5314652	0.27829966
1277319582717	-0.14982383	0.3405087	10.079058	0.27927017	0.0	3.625	13.25	-51.3125	-0.6035771	1.5339055	0.41450688
1277319582747	-0.14982383	0.313268	10.119919	0.31922436	0.0	4.375	13.75	-51.0625	-0.6782135	1.5364966	0.44610554
1277319582847	-0.19068487	0.3405087	10.079058	0.27996063	0.0	4.375	14.25	-51.3125	-0.7207074	1.5320947	0.51048833
1277319582887	-0.14982383	0.3405087	10.119919	0.32010365	0.0	4.375	13.75	-51.3125	-0.6443165	1.534053	0.41450688
1277319582927	-0.19068487	0.313268	10.079058	0.27907753	0.0	4.125	13.75	-51.5625	-0.7494553	1.5344263	0.5467888
1277319582967	-0.14982383	0.3405087	10.079058	0.27927017	0.0	4.625	14.25	-51.5625	-0.65158916	1.5339055	0.41450688
1277319583007	-0.14982383	0.3405087	10.119919	0.32010365	0.0	5.375	14.0	-51.3125	-0.7002984	1.534053	0.41450688
1277319583087	-0.10896278	0.3405087	10.079058	0.2787466	0.0	6.375	14.0	-51.3125	-0.6643245	1.5353394	0.30970293
1277319583127	-0.19068487	0.3405087	10.079058	0.27996063	0.0	5.625	13.25	-51.3125	-0.812036	1.5320947	0.51048833
1277319583157	-0.10896278	0.313268	10.079058	0.2778635	0.0	5.375	13.5	-51.3125	-0.6440937	1.5379001	0.33473682
1277319583197	-0.14982383	0.38136974	10.079058	0.2807331	0.0	4.875	13.75	-51.0625	-0.63140035	1.5301648	0.37433362
1277319583237	-0.14982383	0.3405087	10.119919	0.32010365	0.0	4.625	13.25	-51.0625	-0.6677832	1.534053	0.41450688
1277319583277	-0.14982383	0.38136974	10.119919	0.32156086	0.0	4.625	13.5	-51.0625	-0.62049	1.530328	0.37433362
1277319583307	-0.19068487	0.38136974	10.079058	0.28142262	0.0	4.625	13.25	-51.3125	-0.7001465	1.5285181	0.4636476
1277319583347	-0.19068487	0.38136974	10.119919	0.3222475	0.0	4.375	13.25	-51.3125	-0.6848829	1.5286876	0.4636476
1277319583387	-0.19068487	0.3405087	10.119919	0.32079124	0.0	4.375	13.5	-51.3125	-0.7310575	1.5322506	0.51048833
1277319583427	-0.14982383	0.3405087	10.119919	0.32010365	0.0	4.875	13.75	-51.0625	-0.67508835	1.534053	0.41450688
1277319583457	-0.14982383	0.3405087	10.079058	0.27927017	0.0	4.875	13.5	-51.3125	-0.6785019	1.5339055	0.41450688
1277319583487	-0.14982383	0.38136974	10.079058	0.2807331	0.0	5.375	13.25	-51.3125	-0.66949713	1.5301648	0.37433362
1277319583627	-0.19068487	0.3405087	10.119919	0.32079124	0.0	5.125	13.0	-51.0625	-0.786499	1.5322506	0.51048833
1277319583657	-0.19068487	0.3405087	9.997335	0.19829941	0.0	4.875	13.0	-51.0625	-0.7696084	1.5317802	0.51048833
1277319583687	-0.14982383	0.38136974	10.038197	0.23990536	0.0	4.375	13.5	-51.0625	-0.60458213	1.5300008	0.37433362
1277319583727	-0.14982383	0.38136974	10.119919	0.32156086	0.0	4.125	13.75	-51.3125	-0.5860805	1.530328	0.37433362
1277319583757	-0.14982383	0.3405087	10.079058	0.27927017	0.0	4.375	14.0	-51.3125	-0.64051104	1.5339055	0.41450688
1277319583797	-0.14982383	0.3405087	10.119919	0.32010365	0.0	4.625	14.5	-51.3125	-0.6486839	1.534053	0.41450688
1277319583867	-0.14982383	0.3405087	10.079058	0.27927017	0.0	4.625	13.75	-51.0625	-0.65964437	1.5339055	0.41450688
1277319583897	-0.19068487	0.38136974	10.038197	0.24059772	0.0	4.375	13.5	-50.5625	-0.6819935	1.5283463	0.4636476
1277319583937	-0.14982383	0.38136974	10.079058	0.2807331	0.0	4.375	13.75	-50.8125	-0.6016944	1.5301648	0.37433362
1277319583977	-0.14982383	0.3405087	10.079058	0.27927017	0.0	4.625	14.0	-50.5625	-0.6565973	1.5339055	0.41450688
1277319584017	-0.10896278	0.38136974	10.079058	0.2802086	0.0	4.875	14.25	-50.0625	-0.54089946	1.5314652	0.27829966
1277319584057	-0.14982383	0.3405087	10.079058	0.27927017	0.0	5.125	14.5	-50.8125	-0.67804456	1.5339055	0.41450688
1277319584097	-0.14982383	0.38136974	10.079058	0.2807331	0.0	4.875	14.0	-50.3125	-0.6286317	1.5301648	0.37433362
1277319584137	-0.10896278	0.313268	10.079058	0.2778635	0.0	4.625	13.5	-50.8125	-0.59896415	1.5379001	0.33473682
1277319584167	-0.19068487	0.313268	10.119919	0.31991196	0.0	4.375	13.5	-50.8125	-0.77008224	1.5345726	0.5467889
1277319584207	-0.14982383	0.3405087	10.119919	0.32010365	0.0	4.375	13.5	-50.8125	-0.77008224	1.5345726	0.5467889
1277319584247	-0.14982383	0.38136974	10.079058	0.2807331	0.0	4.375	13.5	-51.3125	-0.6045177	1.5301648	0.37433362
1277319584277	-0.14982383	0.38136974	10.18802	0.38960552	0.0	4.375	14.0	-51.3125	-0.59830827	1.5306001	0.37433362
1277319584337	-0.14982383	0.3405087	10.228881	0.42899323	0.0	4.125	14.0	-51.5625	-0.62603223	1.5344445	0.41450685
1277319584377	-0.10896278	0.23154591	10.310603	0.50712776	0.0	4.125	14.25	-51.5625	-0.66829455	1.5459845	0.43984258
1277319584408	-0.19068487	0.14982383	9.466142	-0.33740234	0.0	4.375	14.25	-51.5625	-1.1228845	1.5451807	0.90482706
1277319584447	-0.23154591	0.27240697	10.18802	0.38764095	0.0	4.375	14.0	-51.5625	-0.9101398	1.5357181	0.70449406
1277319584487	-0.23154591	0.23154591	10.079058	0.27772522	0.0	5.125	14.25	-51.8125	-1.0351529	1.5383215	0.7853982
1277319584527	-0.23154591	0.27240697	10.079058	0.2787466	0.0	5.375	14.25	-51.5625	-0.9665141	1.5353394	0.70449406
1277319584557	-0.23154591	0.23154591	10.079058	0.27772522	0.0	5.125	14.0	-51.3125	-1.0399787	1.5383215	0.7853982
1277319584587	-0.27240697	0.27240697	10.119919	0.3205986	0.0	5.125	14.25	-51.3125	-1.0207988	1.5327457	0.7853982
1277319584627	-0.27240697	0.27240697	10.079058	0.27976704	0.0	4.875	14.0	-51.3125	-1.0086583	1.5325924	0.7853982
1277319584657	-0.23154591	0.27240697	10.119919	0.319582	0.0	4.875	13.75	-51.8125	-0.9437536	1.5354826	0.70449406
1277319584687	-0.23154591	0.27240697	10.147159	0.34680462	0.0	5.125	13.5	-51.8125	-0.9636172	1.5355773	0.704494
1277319584727	-0.23154591	0.23154591	9.997335	0.19604683	0.0	5.625	13.75	-51.8125	-1.0733924	1.5380527	0.7853982
1277319584757	-0.23154591	0.23154591	10.079058	0.27772522	0.0	5.625	14.0	-51.5625	-1.0701201	1.5383215	0.7853982
1277319584787	-0.19068487	0.23154591	10.147159	0.34494114	0.0	5.125	14.5	-51.3125	-0.9486511	1.5412451	0.68892443
1277319584817	-0.19068487	0.27240697	10.079058	0.27789116	0.0	5.125	15.0	-51.5625	-0.8589051	1.5378187	0.61072594
1277319584847	-0.14982383	0.23154591	10.147159	0.34425545	0.0	4.625	14.5	-51.3125	-0.81644106	1.5436245	0.5743048
1277319584887	-0.10896278	0.23154591	10.18802	0.38458252	0.0	4.625	14.25	-51.0625	-0.698746	1.545686	0.4398426
1277319584917	-0.19068487	0.27240697	10.147159	0.3459549	0.0	5.125	14.0	-50.5625	-0.87642074	1.5380381	0.61072594
1277319584957	0.08172209	0.08172209	10.18802	0.38202477	0.0	4.875	13.75	-50.0625	0.42852822	1.5594549	-0.7853982
1277319584997	-0.040861044	0.27240697	10.228881	0.4259386	0.0	4.375	14.75	-50.3125	-0.40284425	1.5438735	0.14888994
1277319585037	-0.14982383	0.14982383	10.147159	0.34272003	0.0	4.125	14.75	-50.3125	-1.0004277	1.5499194	0.7853982
1277319585077	-0.19068487	0.23154591	10.147159	0.34494114	0.0	3.875	14.25	-50.0625	-0.87750787	1.5412451	0.68892443
1277319585117	-0.14982383	0.19068487	10.119919	0.31617355	0.0	3.875	14.25	-50.3125	-0.8692272	1.5468401	0.66596925
1277319585147	-0.19068487	0.23154591	10.119919	0.31771278	0.0	4.125	13.75	-50.3125	-0.89919704	1.5411665	0.68892443
1277319585177	-0.14982383	0.19068487	10.079058	0.27532387	0.0	3.625	13.75	-50.5625	-0.8590631	1.5467433	0.66596925
1277319585247	-0.14982383	0.14982383	10.038197	0.23378181	0.0	3.625	14.0	-51.3125	-0.97676647	1.5496923	0.7853982
1277319585277	-0.19068487	0.19068487	10.119919	0.31686115	0.0	3.625	14.0	-50.8125	-0.9620528	1.544154	0.7853982
1277319585307	-0.14982383	0.23154591	10.119919	0.31702614	0.0	4.125	14.25	-50.3125	-0.79053754	1.54355	0.5743049
1277319585337	-0.14982383	0.19068487	10.079058	0.27532387	0.0	3.875	14.25	-50.5625	-0.86869186	1.5467433	0.66596925
1277319585377	-0.14982383	0.23154591	10.079058	0.2761793	0.0	4.375	14.5	-50.5625	-0.8018476	1.543443	0.5743048
1277319585409	-0.14982383	0.19068487	10.119919	0.31617355	0.0	4.375	14.25	-50.8125	-0.89997107	1.5468401	0.66596925
1277319585447	-0.19068487	0.19068487	10.147159	0.34409142	0.0	4.375	14.25	-51.0625	-1.0064518	1.5442257	0.7853982
1277319585477	-0.19068487	0.19068487	10.119919	0.31686115	0.0	4.625	14.0	-50.8125	-1.0260115	1.544154	0.7853982
1277319585517	-0.14982383	0.19068487	10.119919	0.31617355	0.0	4.625	14.25	-50.5625	-0.9157705	1.5468401	0.66596925
1277319585557	-0.14982383	0.19068487	10.079058	0.27532387	0.0	4.625	14.5	-50.0625	-0.9122481	1.5467433	0.66596925
1277319585597	-0.19068487	0.14982383	10.119919	0.31617355	0.0	5.375	14.25	-50.5625	-1.1916478	1.5468401	0.90482706
1277319585667	-0.19068487	0.19068487	10.079058	0.27601433	0.0	5.125	14.0	-50.3125	-1.0577298	1.5440468	0.7853982
1277319585697	-0.14982383	0.19068487	10.079058	0.27532387	0.0	5.375	13.75	-50.8125	-0.9703751	1.5467433	0.66596925
1277319585737	-0.10896278	0.23154591	10.119919	0.31650352	0.0	4.875	14.0	-50.8125	-0.7180398	1.5455157	0.43984258
1277319585767	-0.14982383	0.19068487	10.147159	0.34340572	0.0	4.625	14.25	-50.8125	-0.9156321	1.5469024	0.66596925
1277319585807	-0.14982383	0.23154591	10.119919	0.31702614	0.0	4.625	14.5	-50.8125	-0.81688786	1.54355	0.5743049
1277319585837	-0.14982383	0.19068487	10.079058	0.27532387	0.0	4.375	14.5	-50.8125	-0.89608055	1.5467433	0.66596925
1277319585877	-0.10896278	0.23154591	10.079058	0.27565575	0.0	4.125	14.75	-50.8125	-0.6609711	1.5454097	0.43984258
1277319585917	-0.14982383	0.19068487	10.079058	0.27532387	0.0	4.375	14.5	-51.3125	-0.8954894	1.5467433	0.66596925
1277319585957	-0.10896278	0.19068487	10.119919	0.3156519	0.0	4.375	14.5	-51.0625	-0.7617857	1.5490962	0.51914614
1277319585987	-0.14982383	0.14982383	10.147159	0.34272003	0.0	4.875	15.0	-51.0625	-1.0413489	1.5499194	0.7853982
1277319586027	-0.14982383	0.19068487	10.119919	0.31617355	0.0	4.625	14.75	-50.3125	-0.90842503	1.5468401	0.66596925
1277319586067	-0.19068487	0.19068487	10.119919	0.31686115	0.0	4.375	14.75	-50.3125	-1.0004944	1.544154	0.7853982
1277319586107	-0.10896278	0.14982383	10.119919	0.3149643	0.0	4.375	14.5	-50.3125	-0.8752188	1.5524937	0.6287963
1277319586147	-0.10896278	0.19068487	10.147159	0.34288502	0.0	4.125	14.25	-50.5625	-0.7506987	1.5491539	0.51914614
1277319586177	-0.10896278	0.23154591	10.119919	0.31650352	0.0	4.875	14.5	-50.8125	-0.7095937	1.5455157	0.43984258
1277319586217	-0.14982383	0.14982383	10.079058	0.27463436	0.0	4.875	14.5	-50.8125	-0.7095937	1.5455157	0.43984258
1277319586247	-0.10896278	0.19068487	10.079058	0.2748003	0.0	4.875	15.0	-50.5625	-0.78415024	1.5490085	0.5191461
1277319586277	-0.14982383	0.19068487	10.119919	0.31617355	0.0	4.375	14.75	-50.3125	-0.8933627	1.5468401	0.66596925
1277319586317	-0.14982383	0.14982383	10.119919	0.3154869	0.0	3.875	14.25	-50.8125	-0.99071866	1.5498595	0.7853982
1277319586347	-0.14982383	0.14982383	10.147159	0.34272003	0.0	4.125	14.75	-50.5625	-1.0001507	1.5499194	0.7853982
1277319586387	-0.14982383	0.19068487	10.147159	0.34340572	0.0	4.125	14.5	-51.0625	-0.88080513	1.5469024	0.66596925
1277319586537	-0.14982383	0.23154591	10.147159	0.34425545	0.0	4.625	14.25	-51.0625	-0.8205211	1.5436245	0.5743048
1277319586577	-0.14982383	0.19068487	10.119919	0.31617355	0.0	4.875	14.25	-51.0625	-0.93053824	1.5468401	0.66596925
1277319586617	-0.14982383	0.23154591	10.119919	0.31702614	0.0	4.875	14.0	-50.5625	-0.84029526	1.54355	0.5743049
1277319586647	-0.14982383	0.19068487	10.079058	0.27532387	0.0	4.625	14.25	-50.3125	-0.9158274	1.5467433	0.66596925
1277319586677	-0.14982383	0.14982383	10.147159	0.34272003	0.0	4.625	14.0	-50.5625	-1.042675	1.5499194	0.7853982
1277319586707	-0.14982383	0.19068487	10.119919	0.31617355	0.0	4.375	14.25	-50.0625	-0.9008721	1.5468401	0.66596925
1277319586777	-0.14982383	0.19068487	10.079058	0.27532387	0.0	4.625	14.5	-50.8125	-0.91135275	1.5467433	0.66596925
1277319586807	-0.10896278	0.19068487	10.119919	0.3156519	0.0	4.625	14.75	-50.5625	-0.7735053	1.5490962	0.51914614
1277319586837	-0.08172209	0.19068487	10.079058	0.27454185	0.0	4.875	14.75	-50.8125	-0.6817679	1.5502185	0.4048918
1277319586877	-0.19068487	0.19068487	10.119919	0.31686115	0.0	4.875	14.75	-50.5625	-1.0303292	1.544154	0.7853982
1277319586907	-0.14982383	0.23154591	10.119919	0.31702614	0.0	4.625	14.5	-50.3125	-0.8175038	1.54355	0.5743049
1277319586987	-0.14982383	0.19068487	10.147159	0.34340572	0.0	5.125	14.25	-50.5625	-0.94656426	1.5469024	0.66596925
1277319587027	-0.19068487	0.23154591	10.147159	0.34494114	0.0	4.625	14.5	-50.3125	-0.9200821	1.5412451	0.68892443
1277319587067	-0.19068487	0.19068487	10.079058	0.27601433	0.0	4.625	14.25	-50.3125	-1.0226377	1.5440468	0.7853982
1277319587107	-0.14982383	0.19068487	10.119919	0.31617355	0.0	4.125	14.75	-49.8125	-0.8787688	1.5468401	0.66596925
1277319587147	-0.19068487	0.23154591	10.147159	0.34494114	0.0	4.125	14.75	-50.3125	-0.8865288	1.5412451	0.68892443
1277319587177	-0.19068487	0.14982383	10.119919	0.31617355	0.0	4.125	14.5	-50.8125	-1.1097088	1.5468401	0.90482706
1277319587247	-0.14982383	0.23154591	10.119919	0.31702614	0.0	5.125	14.25	-50.8125	-0.85093576	1.54355	0.5743049
1277319587277	-0.14982383	0.14982383	10.119919	0.3154869	0.0	4.875	13.75	-50.5625	-1.0627693	1.5498595	0.7853982
1277319587307	-0.19068487	0.19068487	10.147159	0.34409142	0.0	5.625	14.0	-50.3125	-1.0889809	1.5442257	0.7853982
1277319587377	-0.14982383	0.23154591	10.147159	0.34425545	0.0	5.125	14.0	-51.3125	-0.8547867	1.5436245	0.5743048
1277319587407	-0.14982383	0.19068487	10.119919	0.31617355	0.0	5.125	14.25	-51.3125	-0.94547725	1.5468401	0.66596925
1277319587477	-0.14982383	0.14982383	10.119919	0.3154869	0.0	4.875	14.0	-51.0625	-1.0577059	1.5498595	0.7853982
1277319587517	-0.10896278	0.19068487	9.997335	0.19309711	0.0	4.875	14.25	-50.0625	-0.7966608	1.5488313	0.5191461
1277319587557	-0.10896278	0.27240697	10.18802	0.3855934	0.0	4.875	14.25	-50.0625	-0.7966608	1.5488313	0.5191461
1277319587597	-0.19068487	0.23154591	10.119919	0.31771278	0.0	4.875	14.0	-50.3125	-0.9427396	1.5411665	0.68892443
1277319587637	-0.14982383	0.19068487	10.18802	0.3842554	0.0	4.625	14.25	-50.3125	-0.9164791	1.5469999	0.66596925
1277319587677	-0.14982383	0.19068487	10.147159	0.34340572	0.0	4.375	14.25	-50.8125	-0.90013415	1.5469024	0.66596925
1277319587747	-0.14982383	0.19068487	10.119919	0.31617355	0.0	4.125	14.5	-50.5625	-0.88122976	1.5468401	0.66596925
1277319587777	-0.14982383	0.23154591	10.079058	0.2761793	0.0	3.875	14.0	-51.0625	-0.7770374	1.543443	0.5743048
1277319587838	-0.19068487	0.19068487	10.119919	0.31686115	0.0	4.125	14.0	-51.0625	-0.9938839	1.544154	0.7853982
1277319587877	-0.14982383	0.23154591	10.119919	0.31702614	0.0	4.125	14.0	-51.0625	-0.9938839	1.544154	0.7853982
1277319587907	-0.10896278	0.23154591	10.119919	0.31650352	0.0	4.625	14.5	-51.0625	-0.6944537	1.5455157	0.43984258
1277319587947	-0.10896278	0.19068487	10.119919	0.3156519	0.0	4.625	14.0	-50.8125	-0.7854284	1.5490962	0.51914614
1277319587987	-0.14982383	0.19068487	10.079058	0.27532387	0.0	4.125	14.25	-50.8125	-0.884115	1.5467433	0.66596925
1277319588027	-0.10896278	0.23154591	10.147159	0.34373474	0.0	4.375	14.25	-50.8125	-0.68357116	1.5455817	0.43984258
1277319588067	-0.08172209	0.23154591	10.079058	0.27539825	0.0	4.125	14.0	-50.5625	-0.5797238	1.5464379	0.33929265
1277319588107	-0.10896278	0.23154591	10.147159	0.34373474	0.0	4.375	14.0	-50.5625	-0.6876834	1.5455817	0.43984258
1277319588177	-0.10896278	0.23154591	10.119919	0.31650352	0.0	4.875	13.75	-51.3125	-0.72192097	1.5455157	0.43984258
1277319588217	-0.14982383	0.23154591	10.119919	0.31702614	0.0	4.875	13.75	-51.3125	-0.72192097	1.5455157	0.43984258
1277319588277	-0.10896278	0.19068487	10.119919	0.3156519	0.0	4.125	14.0	-51.0625	-0.7538154	1.5490962	0.51914614
1277319588317	-0.14982383	0.19068487	10.147159	0.34340572	0.0	3.875	14.25	-50.5625	-0.8690916	1.5469024	0.66596925
1277319588357	-0.14982383	0.23154591	10.119919	0.31702614	0.0	4.125	14.25	-50.5625	-0.79023063	1.54355	0.5743049
1277319588397	-0.10896278	0.27240697	10.147159	0.3447485	0.0	4.125	13.5	-50.5625	-0.617284	1.5418937	0.38050637
1277319588437	-0.10896278	0.23154591	10.119919	0.31650352	0.0	4.375	13.75	-50.5625	-0.6915251	1.5455157	0.43984258
1277319588477	-0.10896278	0.19068487	10.119919	0.3156519	0.0	4.875	13.5	-51.0625	-0.8098676	1.5490962	0.51914614
1277319588507	-0.10896278	0.23154591	10.119919	0.31650352	0.0	4.375	14.0	-50.8125	-0.6872884	1.5455157	0.43984258
1277319588547	-0.14982383	0.23154591	10.147159	0.34425545	0.0	4.625	14.25	-50.8125	-0.820834	1.5436245	0.5743048
1277319588587	-0.14982383	0.19068487	10.147159	0.34340572	0.0	4.625	14.25	-51.0625	-0.91533035	1.5469024	0.66596925
1277319588640	-0.14982383	0.23154591	10.119919	0.31702614	0.0	4.625	14.25	-51.0625	-0.91533035	1.5469024	0.66596925
1277319588677	-0.14982383	0.27240697	10.119919	0.31804276	0.0	4.875	13.75	-51.3125	-0.76863134	1.5400858	0.5028432
1277319588727	-0.14982383	0.19068487	10.079058	0.27532387	0.0	4.625	14.0	-51.0625	-0.91889834	1.5467433	0.66596925
1277319588767	-0.14982383	0.23154591	10.079058	0.2761793	0.0	4.625	14.0	-51.0625	-0.91889834	1.5467433	0.66596925
1277319588819	-0.08172209	0.23154591	10.119919	0.316247	0.0	4.625	14.0	-50.8125	-0.61055136	1.5465385	0.33929265
1277319588857	-0.10896278	0.23154591	10.147159	0.34373474	0.0	4.625	13.5	-50.8125	-0.71140784	1.5455817	0.43984258
1277319588888	-0.14982383	0.19068487	10.147159	0.34340572	0.0	4.375	13.0	-51.3125	-0.9195798	1.5469024	0.66596925
1277319588928	-0.10896278	0.23154591	10.119919	0.31650352	0.0	4.375	12.75	-51.3125	-0.70792586	1.5455157	0.43984258
1277319588967	-0.14982383	0.23154591	10.147159	0.34425545	0.0	4.125	12.75	-51.0625	-0.8121676	1.5436245	0.5743048
1277319589047	-0.10896278	0.23154591	10.147159	0.34373474	0.0	4.875	13.25	-50.8125	-0.73187244	1.5455817	0.43984258
1277319589127	-0.14982383	0.23154591	10.147159	0.34425545	0.0	5.125	13.5	-50.0625	-0.8655122	1.5436245	0.5743048
1277319589157	-0.14982383	0.19068487	10.18802	0.3842554	0.0	4.875	13.75	-49.8125	-0.9410957	1.5469999	0.66596925
1277319589197	-0.10896278	0.23154591	10.147159	0.34373474	0.0	4.625	14.0	-50.0625	-0.7036483	1.5455817	0.43984258
1277319589237	-0.10896278	0.23154591	10.119919	0.31650352	0.0	3.875	14.5	-50.3125	-0.6498346	1.5455157	0.43984258
1277319589277	-0.10896278	0.19068487	10.079058	0.2748003	0.0	4.125	14.75	-50.5625	-0.7432675	1.5490085	0.5191461
1277319589317	-0.14982383	0.19068487	10.147159	0.34340572	0.0	4.375	14.25	-50.8125	-0.90013415	1.5469024	0.66596925
1277319589347	-0.14982383	0.23154591	10.18802	0.38510132	0.0	4.625	14.25	-50.3125	-0.8217114	1.5437322	0.5743049
1277319589387	-0.14982383	0.27240697	10.147159	0.34527016	0.0	4.875	14.0	-50.5625	-0.7656934	1.5401675	0.5028432
1277319589417	-0.10896278	0.27240697	10.147159	0.3447485	0.0	4.875	13.75	-50.8125	-0.6596841	1.5418937	0.38050637
1277319589487	-0.10896278	0.23154591	10.18802	0.38458252	0.0	4.375	14.25	-50.8125	-0.6837745	1.545686	0.4398426
1277319589527	-0.14982383	0.23154591	10.147159	0.34425545	0.0	4.625	14.75	-50.5625	-0.81368923	1.5436245	0.5743048
1277319589567	-0.19068487	0.23154591	10.119919	0.31771278	0.0	4.125	14.5	-50.3125	-0.88940537	1.5411665	0.68892443
1277319589607	-0.14982383	0.23154591	10.147159	0.34425545	0.0	3.875	14.5	-50.3125	-0.77203953	1.5436245	0.5743048
1277319589647	-0.14982383	0.23154591	10.18802	0.38510132	0.0	4.125	14.5	-50.3125	-0.7875936	1.5437322	0.5743049
1277319589707	-0.10896278	0.23154591	10.378705	0.5752096	0.0	4.125	13.75	-50.5625	-0.67702454	1.5461435	0.43984258
1277319589747	-0.19068487	0.23154591	10.228881	0.4266281	0.0	4.125	14.0	-50.5625	-0.89625686	1.541478	0.6889244
1277319589777	-0.29964766	0.313268	9.80665	0.0095767975	0.0	4.375	14.0	-50.5625	-0.94293356	1.5266215	0.7631796
1277319589817	-0.14982383	0.19068487	10.18802	0.3842554	0.0	5.125	14.5	-50.5625	-0.9424985	1.5469999	0.66596925
1277319589847	-0.23154591	0.27240697	10.18802	0.38764095	0.0	5.125	14.75	-50.5625	-0.9468613	1.5357181	0.70449406
1277319589877	-0.23154591	0.23154591	10.119919	0.31856537	0.0	5.375	14.5	-50.8125	-1.0483539	1.5384502	0.7853982
1277319589917	-0.14982383	0.19068487	9.956474	0.15277672	0.0	5.375	14.25	-51.0625	-0.95986736	1.5464453	0.66596925
1277319589957	-0.19068487	0.23154591	10.310603	0.5083151	0.0	4.875	14.0	-51.0625	-0.9430297	1.5417129	0.6889244
1277319589997	-0.23154591	0.23154591	10.269742	0.46831036	0.0	5.375	13.75	-51.0625	-1.0618167	1.5389236	0.7853982
1277319590037	-0.19068487	0.19068487	9.997335	0.19432163	0.0	5.125	13.5	-51.0625	-1.0648508	1.5438293	0.7853982
1277319590077	-0.040861044	0.27240697	10.119919	0.3170166	0.0	5.125	13.5	-50.8125	-0.46860364	1.5435851	0.14888994
1277319590117	0.7627395	0.9942854	10.119919	0.39056206	0.0	5.375	13.25	-50.5625	0.18874387	1.4475936	-0.65437025
1277319590157	-0.27240697	0.14982383	10.147159	0.34527016	0.0	5.125	13.75	-50.0625	-1.323328	1.5401675	1.0679531
1277319590197	-1.4573772	-0.46309182	10.119919	0.42815113	0.0	5.375	14.25	-49.3125	-1.7336733	1.4208246	1.8784633
1277319590237	0.61291564	0.0	10.691973	0.9028759	0.0	5.625	13.75	-49.3125	1.0203851	1.5135335	-1.5707964
1277319590267	-0.42223078	-0.46309182	11.958665	2.1684237	0.0	6.375	14.25	-49.5625	-2.760688	1.5184405	2.4023156
1277319590307	-2.7240696	0.8036005	12.721405	3.2279377	0.0	7.875	14.0	-49.3125	-1.137692	1.3511423	1.283933
1277319590347	-1.7570249	0.38136974	7.5865335	-2.0099797	0.0	12.0625	13.25	-48.5625	-1.4132729	1.338099	1.3570575
1277319590387	-4.903325	0.42223078	9.343558	0.75379276	0.0	17.3125	13.0	-46.625	-1.0941784	1.0859993	1.4848971
1277319590427	-6.3198414	1.7570249	10.800936	2.8301115	0.0	23.75	12.0	-43.6875	-1.2544519	1.0250177	1.2996272
1277319590467	-3.718355	0.0	10.147159	1.0003376	0.0	31.1875	11.25	-38.75	-2.5273175	1.2195488	1.5707964
1277319590507	-5.9793324	0.6946377	-0.23154591	-3.7826524	0.0	37.625	11.25	-31.8125	-0.43748555	-0.03844672	1.4551417
1277319590547	-10.337844	-0.6946377	0.8036005	0.58562183	0.0	43.0625	11.5	-25.4375	-0.3724551	0.07740401	1.6378891
1277319590587	-9.425281	2.3018389	4.099725	0.7262564	0.0	47.0	11.0	-19.25	-1.5261203	0.3997957	1.3312653
1277319590627	-9.888372	2.5606253	4.4810944	1.3475828	0.0	49.25	9.8125	-16.0625	-1.7277151	0.41341543	1.317409
1277319590657	-10.269742	1.7978859	4.0180025	1.3667259	0.0	49.75	8.3125	-15.5625	-1.7237885	0.3678446	1.3974863
1277319590687	-9.915613	2.3699405	4.140586	1.1970062	0.0	50.0	6.3125	-15.3125	-1.768592	0.38579068	1.3361866
1277319590717	-9.615966	2.6014864	5.2165933	1.4382315	0.0	50.25	4.3125	-15.8125	-2.0029163	0.4824018	1.3065829
1277319590747	-9.152874	2.4516625	5.6252036	1.2128172	0.0	49.75	3.5625	-16.8125	-2.1028855	0.53574145	1.3090829
1277319590777	-8.853226	2.4108016	5.434519	0.85756874	0.0	48.5	2.375	-19.5	-1.99287	0.5347234	1.3049349
1277319590817	-7.1234417	1.7297841	7.668256	0.8017292	0.0	45.8125	2.125	-24.4375	-2.4299963	0.8079164	1.3325773
1277319590847	-3.759216	-1.4982382	11.182305	2.0853796	0.0	41.5625	2.875	-29.625	2.7045982	1.2235674	1.9500527
1277319590887	-3.568531	0.61291564	8.390134	-0.66857433	0.0	37.125	3.8125	-34.5625	-2.6619854	1.1633885	1.4007002
1277319590927	-2.3018389	-0.29964766	9.084772	-0.4300127	0.0	32.875	5.0625	-38.75	-3.1072924	1.3206376	1.7002459
1277319590967	-2.6832085	0.23154591	8.430995	-0.9559498	0.0	29.6875	5.5625	-40.4375	-2.658066	1.2616034	1.4847151
1277319591007	-1.879608	1.0351465	8.812365	-0.73679733	0.0	26.6875	5.8125	-42.4375	-2.0765235	1.3319457	1.067397
1277319591047	-1.1168685	0.9942854	8.430995	-1.2440758	0.0	24.0	5.3125	-44.375	-1.8826063	1.395261	0.84339756
1277319591087	-1.607201	0.95342433	8.390134	-1.210927	0.0	21.5	5.5625	-45.375	-1.9018348	1.3516454	1.0353768
1277319591127	-0.9942854	1.0760075	9.343558	-0.34893036	0.0	19.0	6.0625	-46.375	-1.6347086	1.4152645	0.745945
1277319591157	-0.95342433	1.1168685	10.18802	0.4866562	0.0	16.8125	5.8125	-47.125	-1.5530163	1.4276448	0.7066142
1277319591187	-0.7218784	1.334794	10.56939	0.87112045	0.0	15.0625	6.5625	-47.375	-1.2547145	1.4281969	0.4957651
1277319591227	-0.6946377	1.4982382	10.528529	0.8506088	0.0	13.8125	6.0625	-47.625	-1.1322134	1.4152106	0.43413588
1277319591257	-1.1168685	1.0760075	10.419566	0.7277012	0.0	12.3125	5.5625	-47.8125	-1.4060746	1.423039	0.8040295
1277319591297	-1.1441092	0.7627395	9.615966	-0.092868805	0.0	11.8125	5.3125	-47.625	-1.5772512	1.428763	0.9827937
1277319591337	-1.4165162	0.84446156	8.240311	-1.4029398	0.0	10.8125	4.8125	-47.625	-1.3028038	1.3732762	1.0332097
1277319591377	-1.1441092	0.46309182	6.851035	-2.8453193	0.0	9.875	5.3125	-47.8125	-1.4065264	1.3925489	1.1861917
1277319591407	-1.0760075	0.61291564	6.851035	-2.8446002	0.0	9.875	5.5625	-47.8125	-1.2932177	1.3919764	1.0530144
1277319591447	-1.334794	-0.14982383	8.308413	-1.3903656	0.0	9.875	6.8125	-47.8125	-2.0306249	1.4105184	1.6825733
1277319591477	-1.6889231	-0.7627395	9.724928	0.09327221	0.0	11.0625	7.8125	-47.125	-2.5973327	1.3824954	1.9949907
1277319591517	-1.56634	-1.4165162	10.419566	0.8247795	0.0	12.5625	9.0625	-46.375	2.8592906	1.3708234	2.3060083
1277319591557	-1.9477097	-1.8387469	10.760075	1.2818022	0.0	14.3125	10.75	-45.375	2.8329782	1.326822	2.3274255
1277319591597	-2.2201166	-1.334794	12.026767	2.4959393	0.0	16.0625	12.0	-44.625	-2.9454606	1.3586447	2.1121175
1277319591637	-2.4925237	-0.6946377	12.14935	2.615181	0.0	17.5625	12.75	-43.875	-2.5284646	1.3609565	1.8425884
1277319591667	-2.8738933	-0.27240697	11.223166	1.7818327	0.0	18.25	13.75	-43.1875	-2.1655045	1.3190379	1.6653007
1277319591707	-3.1463003	0.14982383	11.032481	1.6666794	0.0	18.5	14.0	-42.6875	-1.9198185	1.292687	1.5232133
1277319591737	-3.1463003	0.50395286	10.882658	1.5329008	0.0	18.75	13.75	-42.4375	-1.7940699	1.2859614	1.4119723
1277319591767	-3.0237172	0.61291564	10.528529	1.1646061	0.0	18.5	13.5	-42.1875	-1.7442609	1.285743	1.3708034
1277319591807	-2.7921712	0.8036005	9.915613	0.5258894	0.0	19.0	12.0	-42.6875	-1.708909	1.2857518	1.2905649
1277319591847	-1.9477097	0.84446156	9.425281	-0.14525223	0.0	18.75	11.0	-43.1875	-1.7414201	1.3492587	1.1616923
1277319591887	-1.4982382	0.84446156	9.302697	-0.34631157	0.0	18.5	10.0625	-43.6875	-1.7398772	1.3879857	1.057544
1277319591927	-1.2666923	0.88532263	9.847511	0.1613884	0.0	18.0	8.5625	-44.625	-1.7315906	1.415131	0.96079236
1277319591967	-0.9942854	0.7627395	9.888372	0.16081047	0.0	17.5625	7.5625	-44.875	-1.7841425	1.4447396	0.9164261
1277319592007	-0.50395286	0.92618364	9.80665	0.05652237	0.0	17.3125	6.5625	-45.125	-1.4445394	1.4636873	0.4983158
1277319592047	-0.0	0.88532263	9.425281	-0.33988094	0.0	17.0625	5.5625	-45.625	-1.0492269	1.4771394	0.0
1277319592087	0.10896278	1.1441092	10.882658	1.1365261	0.0	16.3125	5.0625	-45.875	-0.9458851	1.465579	-0.094951704
1277319592127	-0.8036005	1.5390993	10.119919	0.46113205	0.0	14.8125	4.3125	-46.125	-1.2628982	1.4008821	0.48118967
1277319592167	-1.2666923	1.879608	9.956474	0.4045601	0.0	13.5625	3.8125	-46.875	-1.1431459	1.3469611	0.5930025
1277319592207	-0.9942854	2.0294318	8.812365	-0.70912457	0.0	11.3125	3.5625	-47.125	-0.8654694	1.3197582	0.45556152
1277319592247	-0.88532263	1.879608	8.19945	-1.3480635	0.0	9.625	3.8125	-47.625	-0.75111973	1.3226281	0.4401915
1277319592277	-1.1168685	1.879608	7.6273947	-1.8720756	0.0	8.125	4.0625	-48.0625	-0.62298185	1.2916315	0.536146
1277319592317	-1.0760075	1.5390993	7.5456724	-2.0308037	0.0	6.875	3.8125	-48.3125	-0.62325454	1.3268771	0.6101318
1277319592347	-1.1168685	1.4573772	7.9679036	-1.6299248	0.0	6.875	3.8125	-48.8125	-0.66901684	1.34431	0.6538865
1277319592387	-1.334794	1.2666923	9.084772	-0.53738594	0.0	6.625	3.375	-48.8125	-0.7679505	1.3709465	0.81157017
1277319592419	-1.4573772	1.1168685	10.378705	0.7332201	0.0	7.625	3.125	-48.0625	-1.0289403	1.3956958	0.9169099
1277319592457	-2.2201166	1.334794	10.147159	0.66595364	0.0	8.375	4.0625	-47.625	-0.84967107	1.3208438	1.0294751
1277319592497	-2.5333846	0.95342433	9.507003	0.07819462	0.0	8.875	5.0625	-46.625	-0.88053423	1.2934141	1.2108477
1277319592537	-2.5333846	0.84446156	8.894087	-0.52031994	0.0	9.875	6.5625	-46.125	-0.97934705	1.279113	1.2490457
1277319592577	-2.2609777	0.3405087	9.234595	-0.29320145	0.0	9.125	8.0625	-46.375	-1.2070324	1.3280792	1.4213173
1277319592617	-1.920469	-0.19068487	10.419566	0.79013824	0.0	8.625	9.5625	-46.625	-1.6716613	1.3876516	1.6697627
1277319592657	-1.7297841	0.040861044	10.95076	1.2799616	0.0	7.625	10.5625	-47.125	-1.5641271	1.4140877	1.5471786
1277319592697	-1.3756552	-0.29964766	10.800936	1.08566	0.0	6.375	12.0	-48.0625	-1.807109	1.4411762	1.7852681
1277319592727	-1.4165162	-0.50395286	10.651112	0.9500532	0.0	6.125	13.25	-48.3125	-1.882339	1.4305643	1.9126015
1277319592757	-1.334794	-0.7218784	10.56939	0.87112045	0.0	5.875	13.75	-48.5625	-2.0377347	1.4281969	2.0665615
1277319592787	-0.88532263	-0.84446156	9.997335	0.26527214	0.0	5.625	14.75	-49.0625	-2.4490564	1.4490215	2.3325768
1277319592817	-1.0760075	-0.42223078	9.724928	-0.013270378	0.0	5.875	14.75	-49.0625	-1.9775509	1.4524937	1.9447383
1277319592848	-1.4165162	-0.5720546	9.697687	0.010624886	0.0	5.875	15.0	-50.0625	-1.8327676	1.414552	1.9546139
1277319592887	-2.5606253	-0.53119355	9.847511	0.3821888	0.0	6.125	15.25	-50.5625	-1.2739124	1.3112241	1.7753419
1277319592927	-1.2666923	-0.27240697	10.991621	1.2610712	0.0	5.625	15.0	-51.3125	-1.7603432	1.4534612	1.7826239
1277319592997	-0.6946377	-0.95342433	12.258313	2.5082912	0.0	3.4375	14.5	-52.0	-2.5567381	1.4748604	2.5119474
1277319593037	-0.95342433	-0.42223078	10.61025	0.85471535	0.0	2.1875	13.25	-52.0	-1.768052	1.4728352	1.9876944
1277319593077	-1.0760075	0.3405087	9.697687	-0.04351139	0.0	0.6875	11.75	-52.25	-0.9077959	1.4549389	1.2643118
1277319593117	-1.4165162	0.08172209	9.656827	-0.046142578	0.0	0.6875	11.25	-52.0	-0.98234963	1.4249103	1.5131679
1277319593157	-1.7570249	0.313268	10.18802	0.5365124	0.0	2.1875	11.0	-52.25	-0.9055954	1.3973765	1.3943558
1277319593197	-1.56634	0.7218784	10.991621	1.319457	0.0	2.4375	11.5	-52.5	-0.81957436	1.4151564	1.1389401
1277319593237	-1.4165162	0.50395286	10.079058	0.3839283	0.0	2.6875	11.75	-52.75	-0.91693467	1.4227183	1.2289912
1277319593277	-1.3756552	0.14982383	9.80665	0.09714985	0.0	2.6875	11.25	-53.0	-1.091345	1.4306146	1.462313
1277319593317	-1.6889231	0.08172209	9.956474	0.2923851	0.0	2.9375	11.25	-53.0	-1.050651	1.4025722	1.522447
1277319593348	-1.56634	0.14982383	9.615966	-0.06279755	0.0	3.1875	11.5	-53.0	-1.0650315	1.4086012	1.4754343
1277319593387	-1.4982382	0.14982383	9.997335	0.3034382	0.0	3.4375	11.75	-53.25	-1.1281337	1.4213085	1.4711276
1277319593417	-1.1849703	0.23154591	10.038197	0.3038969	0.0	3.1875	12.0	-53.5	-1.1484191	1.4510925	1.3778255
1277319593457	-1.4982382	0.42223078	10.147159	0.45920753	0.0	2.6875	12.0	-53.25	-0.95249057	1.4185805	1.2961024
1277319593487	-1.525479	0.42223078	9.997335	0.3152113	0.0	2.4375	12.0	-53.25	-0.9269289	1.413774	1.3007708
1277319593517	-1.4165162	0.313268	10.119919	0.41672516	0.0	2.4375	11.75	-53.0	-1.001651	1.4284114	1.3531457
1277319593557	-1.1849703	0.23154591	10.18802	0.45266342	0.0	2.6875	11.25	-53.0	-1.1083765	1.4528366	1.3778255
1277319593597	-1.0351465	0.313268	10.378705	0.628252	0.0	2.4375	11.0	-52.75	-1.0586474	1.466966	1.276927
1277319593637	-1.0760075	0.23154591	9.915613	0.1698618	0.0	2.1875	11.0	-52.75	-1.0799214	1.4602481	1.3588387
1277319593667	-0.9125633	0.040861044	10.079058	0.31371784	0.0	1.9375	11.5	-53.0	-1.2876065	1.4804118	1.5260501
1277319593707	-0.84446156	-0.08172209	10.038197	0.26733494	0.0	1.6875	12.75	-52.75	-1.4480921	1.4864795	1.6672701
1277319593747	-1.1441092	-0.19068487	9.888372	0.1495161	0.0	2.1875	13.25	-53.0	-1.4248722	1.4540313	1.735945
1277319593777	-1.1849703	0.14982383	10.147159	0.41056252	0.0	2.6875	13.25	-52.5	-1.206571	1.4536273	1.4450269
1277319593817	-1.334794	0.10896278	9.956474	0.23948956	0.0	3.1875	13.0	-52.25	-1.2180785	1.4370905	1.4893442
1277319593848	-1.607201	-0.3405087	10.147159	0.4726429	0.0	3.1875	12.75	-52.25	-1.348987	1.410284	1.7795736
1277319593888	-1.7570249	-0.38136974	10.269742	0.6192875	0.0	2.9375	12.75	-52.0	-1.2851869	1.3974816	1.7845352
1277319593927	-1.56634	-0.38136974	9.956474	0.27949047	0.0	2.9375	13.25	-52.5	-1.3699454	1.4102751	1.8096275
1277319593967	-0.84446156	-0.38136974	10.378705	0.61333466	0.0	2.6875	14.0	-52.5	-1.8634006	1.481755	1.9949907
1277319594007	-0.84446156	-0.19068487	10.691973	0.92031384	0.0	3.4375	14.25	-52.25	-1.7406265	1.4900032	1.7928783
1277319594047	-2.0294318	-0.6537767	9.302697	-0.2627411	0.0	3.875	16.0	-52.0	-1.3440299	1.3454916	1.8824462
1277319594087	-1.7297841	-1.0760075	9.302697	-0.28351402	0.0	4.125	16.75	-51.3125	-1.660847	1.3552154	2.1272695
1277319594127	-1.1849703	-0.5720546	10.378705	0.65513325	0.0	4.875	17.75	-50.3125	-1.9597698	1.4446875	2.020556
1277319594157	-1.8387469	-1.0351465	10.228881	0.6376076	0.0	5.625	18.4375	-50.0625	-1.8311175	1.3673615	2.0835373
1277319594187	-2.5606253	-0.7218784	10.732834	1.2510004	0.0	6.375	17.9375	-49.5625	-1.4908364	1.3278158	1.8455799
1277319594227	-2.5333846	-0.84446156	11.495573	1.995017	0.0	7.125	17.9375	-49.0625	-1.6389419	1.3425448	1.8925469
1277319594257	-2.1792557	-1.2666923	11.604536	2.068489	0.0	7.625	18.1875	-48.8125	-1.9696814	1.3569063	2.0973148
1277319594287	-1.2258313	-2.3018389	11.985906	2.4596891	0.0	7.125	19.1875	-48.3125	-2.863123	1.356555	2.6522498
1277319594327	-0.10896278	-2.9556155	12.4489975	2.9888601	0.0	6.375	19.6875	-47.625	2.547735	1.3375413	3.104743
1277319594367	-0.27240697	-1.6889231	11.182305	1.5057602	0.0	4.625	19.9375	-47.125	3.035447	1.418986	2.9816794
1277319594407	-0.5720546	-0.7627395	9.425281	-0.33327007	0.0	1.6875	19.4375	-46.375	-2.4238293	1.4699836	2.4980915
1277319594447	-1.7570249	-0.88532263	7.5456724	-2.0086951	0.0	-1.0625	18.9375	-44.875	-1.345009	1.3157341	2.03754
1277319594477	-0.38136974	-1.4165162	6.0882955	-3.5441184	0.0	-5.0	19.6875	-43.4375	-2.1869392	1.3343561	2.878598
1277319594517	2.0294318	-2.3018389	6.4424243	-2.670693	0.0	-9.75	20.6875	-40.6875	1.9220767	1.126263	-2.419005
1277319594557	2.4108016	-3.568531	10.61025	1.6442795	0.0	-14.6875	21.9375	-38.0	3.1307673	1.1852264	-2.5474498
1277319594597	1.4573772	-3.1054392	7.8180795	-1.2690821	0.0	-19.125	22.4375	-35.75	-2.5537803	1.1573129	-2.7028067
1277319594637	3.8273177	-4.2904096	8.812365	0.71541023	0.0	-22.375	22.1875	-34.0625	-2.897248	0.99271613	-2.4131796
1277319594667	4.1814466	-3.8681788	8.62168	0.52682304	0.0	-24.125	22.4375	-33.5625	3.1317992	0.98694324	-2.317297
1277319594707	2.2201166	-2.7921712	8.812365	-0.29965782	0.0	-24.625	21.9375	-33.8125	-2.8296914	1.1861603	-2.4698331
1277319594747	5.6252036	-3.173541	10.841797	2.8131294	0.0	-25.8125	20.1875	-35.0625	2.6817193	1.033531	-2.0844495
1277319594777	4.399372	-1.56634	10.269742	1.4749937	0.0	-25.8125	18.4375	-37.25	2.5271194	1.1440214	-1.9128393
1277319594817	4.0180025	-0.9125633	10.800936	1.7535114	0.0	-25.3125	15.75	-39.5	2.468938	1.2063576	-1.7941264
1277319594857	2.7921712	-0.53119355	11.413852	1.9557648	0.0	-23.875	14.25	-41.1875	2.5868602	1.3267424	-1.7587937
1277319594897	2.0294318	-1.56634	12.9529505	3.3975515	0.0	-20.875	14.5	-42.1875	-3.065397	1.3754056	-2.2281117
1277319594937	3.1054392	-3.3642259	11.182305	2.2766323	0.0	-16.9375	14.75	-42.4375	-2.6521025	1.1821849	-2.3961732
1277319594977	1.6889231	-3.5957718	9.234595	0.24619961	0.0	-11.6875	15.75	-42.6875	-1.771675	1.1645352	-2.70248
1277319595017	0.14982383	-0.9125633	9.997335	0.23336601	0.0	-7.5	14.25	-43.6875	-2.714455	1.4785566	-2.9788654
1277319595057	0.46309182	0.7218784	12.680544	2.9028645	0.0	-5.25	9.5625	-44.375	0.8631821	1.5032637	-0.5703833
1277319595097	-0.38136974	2.2609777	9.888372	0.34408188	0.0	-5.25	3.375	-45.125	0.31249973	1.3429434	0.1671018
1277319595137	0.42223078	2.152015	8.730643	-0.8047848	0.0	-7.25	-3.8125	-45.125	0.815182	1.3246987	-0.19374149
1277319595167	0.53119355	2.6423476	9.302697	-0.121385574	0.0	-9.75	-10.0625	-43.875	1.4540635	1.2887937	-0.19838661
1277319595207	0.6946377	2.2609777	9.80665	0.28120995	0.0	-10.9375	-13.0	-42.6875	2.2348096	1.3341254	-0.29807556
1277319595247	0.42223078	1.0760075	9.997335	0.25728416	0.0	-11.9375	-15.75	-41.6875	2.7785633	1.455689	-0.37394193
1277319595277	-0.29964766	0.53119355	9.275456	-0.51116467	0.0	-11.9375	-17.75	-41.4375	1.915089	1.5051384	0.513606
1277319595317	-0.9942854	-0.14982383	9.112013	-0.6393261	0.0	-10.5	-18.4375	-41.9375	0.7567464	1.4608908	1.7203561
1277319595351	-1.7978859	-0.46309182	9.384419	-0.24034595	0.0	-9.0	-19.1875	-42.1875	0.651275	1.3754829	1.8228923
1277319595387	-4.2495484	-2.1383946	11.563675	2.6973486	0.0	-7.25	-19.6875	-41.9375	0.44389153	1.1805047	2.0370047
1277319595417	-3.1054392	-3.445948	10.991621	2.1237335	0.0	-6.0	-21.1875	-41.4375	0.27622616	1.1714445	2.4081228
1277319595457	-2.9147544	2.9147544	6.0882955	-2.4541726	0.0	-5.75	-22.4375	-40.6875	0.9914468	0.97563916	0.7853982
1277319595497	5.9793324	1.3075534	8.580819	0.7333956	0.0	-6.0	-23.9375	-40.9375	-0.979607	0.9512052	-1.3555065
1277319595537	0.92618364	2.8738933	8.894087	-0.4140005	0.0	-6.5	-24.4375	-40.9375	-3.0204258	1.2435154	-0.31176516
1277319595577	0.3405087	2.8738933	13.021052	3.5321283	0.0	-7.75	-24.6875	-40.4375	2.851464	1.352096	-0.11793361
1277319595617	-4.2495484	2.4108016	11.917805	3.0737495	0.0	-10.25	-24.9375	-40.4375	1.1428041	1.181738	1.0547622
1277319595657	-2.4925237	1.7978859	8.580819	-0.69207287	0.0	-11.9375	-25.375	-39.6875	1.2709581	1.2268732	0.9459101
1277319595697	-0.6537767	2.2609777	10.147159	0.6098881	0.0	-12.9375	-25.125	-39.6875	2.08815	1.3428798	0.2814793
1277319595727	-0.14982383	2.152015	13.33432	3.7010403	0.0	-13.4375	-24.4375	-40.4375	2.405983	1.4104065	0.0695081
1277319595757	-0.3405087	1.9885708	9.997335	0.39222622	0.0	-11.9375	-23.1875	-41.4375	2.2332628	1.3716654	0.16958815
1277319595797	0.42223078	1.2258313	7.6954966	-2.0027018	0.0	-10.9375	-20.6875	-42.4375	2.91664	1.4038866	-0.331717
1277319595827	2.2609777	-0.3405087	7.8861814	-1.5956926	0.0	-10.25	-18.4375	-43.6875	-1.3197168	1.2885995	-1.7202754
1277319595867	2.0294318	-1.4573772	10.079058	0.5774698	0.0	-9.5	-15.75	-44.625	-0.9850045	1.3278036	-2.1935806
1277319595907	-0.10896278	-1.4165162	10.61025	0.8982935	0.0	-9.75	-13.25	-44.875	-0.41438326	1.4376887	3.0648208
1277319595947	-0.53119355	-1.4165162	8.921328	-0.7579613	0.0	-9.75	-11.25	-45.375	-0.23801576	1.4028187	2.782822
1277319595987	1.1441092	-2.3018389	6.782933	-2.552987	0.0	-9.5	-9.5625	-45.625	-0.5630248	1.208554	-2.6803148
1277319596027	2.5333846	-2.6832085	8.308413	-0.7155905	0.0	-9.5	-8.5625	-45.875	-0.60853696	1.1528151	-2.3849072
1277319596067	1.6480621	-2.6423476	9.275456	-0.022366524	0.0	-8.5	-8.3125	-46.125	-0.5964315	1.2468778	-2.5839205
1277319596107	0.6946377	-2.4516625	9.234595	-0.22693634	0.0	-7.5	-8.8125	-46.375	-0.47860572	1.3015591	-2.8654957
1277319596147	0.6537767	-2.3018389	10.61025	1.0700817	0.0	-7.0	-9.8125	-46.125	-0.493811	1.3489819	-2.8648567
1277319596177	1.0760075	-2.2609777	9.915613	0.42023563	0.0	-6.25	-10.5625	-46.375	-0.5148652	1.3234409	-2.6974072
1277319596217	0.8036005	-1.879608	8.853226	-0.7204895	0.0	-6.75	-11.5	-46.125	-0.53514373	1.3438756	-2.7375758
1277319596257	1.5390993	-0.88532263	6.891896	-2.6897092	0.0	-7.75	-12.5	-45.375	-0.9349222	1.3186494	-2.0927968
1277319596297	2.5333846	-1.1168685	9.915613	0.48824215	0.0	-10.25	-13.5	-44.375	-1.1119195	1.2985098	-1.9860237
1277319596337	4.7535014	-2.0294318	13.143636	4.316718	0.0	-12.1875	-15.25	-42.9375	-1.0474203	1.1961316	-1.9743041
1277319596367	1.879608	0.08172209	10.038197	0.40633106	0.0	-12.9375	-16.75	-42.4375	-1.9042344	1.3855238	-1.5273454
1277319596437	2.1792557	0.14982383	13.6748295	4.041547	0.0	-13.4375	-18.1875	-41.9375	-1.9986758	1.4123956	-1.5021544
1277319596467	0.46309182	0.5720546	12.489859	2.704875	0.0	-12.9375	-19.1875	-42.4375	-3.0435936	1.5119363	-0.6805212
1277319596507	0.84446156	0.3405087	12.176591	2.4039364	0.0	-13.1875	-18.9375	-42.4375	-2.4761565	1.496159	-1.1875122
1277319596547	2.7921712	0.38136974	16.04477	6.4837246	0.0	-15.9375	-17.9375	-41.4375	-2.1748018	1.3969297	-1.435051
1277319596587	4.2495484	0.27240697	18.496431	9.173626	0.0	-21.375	-15.5	-39.0	-2.3157482	1.3445177	-1.5067813
1277319596627	3.990762	-0.19068487	7.8180795	-1.0268488	0.0	-27.0625	-11.25	-34.5625	-2.131352	1.0983593	-1.6185416
1277319596667	5.284695	-3.5276701	0.14982383	-3.4509516	0.0	-32.75	-6.3125	-30.375	-0.6662393	0.023575332	-2.1593935
1277319596697	7.273266	-4.4810944	0.42223078	-1.2533541	0.0	-36.5	-1.625	-27.125	-0.6759143	0.04938476	-2.1229734
1277319596778	6.2108784	-1.3075534	-5.6660647	-1.2984781	0.0	-37.0	1.875	-27.125	-0.1290342	-0.728774	-1.7782925
1277319596817	2.6014864	0.38136974	-4.2495484	-4.8094673	0.0	-31.0625	2.125	-31.8125	0.15384895	-1.0167239	-1.4252363
1277319596852	-1.920469	2.3018389	5.7477865	-3.3240805	0.0	-22.375	-0.875	-37.0	0.54560834	1.0900552	0.69532
1277319596887	0.61291564	1.4573772	18.428331	8.689377	0.0	-14.1875	-6.5625	-41.6875	2.2169228	1.4852129	-0.39810458
1277319596927	1.8387469	0.3405087	17.774553	8.066002	0.0	-6.5	-12.75	-44.375	-1.9112767	1.4659747	-1.3876855
1277319596967	0.27240697	-0.50395286	15.050485	5.254733	0.0	-5.5	-17.5	-43.875	-0.739084	1.5327504	-2.646041
1277319597007	0.46309182	-0.8036005	13.021052	3.2473927	0.0	-7.5	-19.9375	-43.4375	-0.78150105	1.4996865	-2.6188035
1277319597047	0.9942854	-0.46309182	11.182305	1.4293194	0.0	-9.75	-19.9375	-42.9375	-1.4023807	1.4730219	-2.0066733
1277319597087	0.27240697	-0.10896278	10.119919	0.31752014	0.0	-11.1875	-19.6875	-42.6875	-1.6525079	1.5418135	-1.9513026
1277319597127	1.3075534	0.0	9.152874	-0.5608511	0.0	-11.6875	-19.1875	-42.9375	-1.849848	1.428899	-1.5707964
1277319597157	2.5606253	0.0	8.539958	-0.8910637	0.0	-10.9375	-19.4375	-43.1875	-1.4719759	1.279486	-1.5707964
1277319597187	3.255263	0.040861044	9.043911	-0.19464016	0.0	-9.5	-19.6875	-43.4375	-1.2948055	1.2252688	-1.5582447
1277319597227	3.759216	-0.040861044	9.507003	0.41668034	0.0	-8.75	-19.6875	-43.6875	-1.1809449	1.194228	-1.5816655
1277319597257	3.990762	-0.19068487	9.275456	0.29268837	0.0	-8.5	-20.1875	-43.4375	-1.107691	1.1640733	-1.6185416
1277319597287	4.2086873	-0.38136974	9.00305	0.1388712	0.0	-8.5	-20.1875	-42.6875	-1.0445516	1.1319361	-1.6611644
1277319597327	3.990762	-0.53119355	8.853226	-0.08101654	0.0	-8.5	-20.6875	-42.4375	-1.050848	1.1440036	-1.7031243
1277319597370	3.405087	-0.53119355	9.425281	0.22892189	0.0	-8.75	-20.9375	-42.1875	-1.1676421	1.2202556	-1.725549
1277319597407	3.3778462	-0.42223078	10.079058	0.83174896	0.0	-8.5	-21.4375	-42.1875	-1.2256284	1.245082	-1.6951513
1277319597437	3.718355	-0.29964766	10.310603	1.1580429	0.0	-8.5	-22.1875	-42.1875	-1.2309079	1.2236453	-1.6512086
1277319597467	3.5957718	-0.23154591	10.528529	1.3213825	0.0	-8.75	-22.6875	-42.1875	-1.2865838	1.2410569	-1.6351014
1277319597507	3.445948	-0.08172209	10.460427	1.207058	0.0	-8.75	-23.4375	-42.4375	-1.3421447	1.2524822	-1.5945073
1277319597547	3.5276701	0.040861044	10.61025	1.3747425	0.0	-8.75	-24.1875	-41.9375	-1.3795282	1.2497962	-1.5592139
1277319597587	3.486809	0.3405087	10.56939	1.3282404	0.0	-8.75	-24.4375	-42.4375	-1.4507459	1.2507273	-1.4734488
1277319597627	2.6832085	0.27240697	10.038197	0.5875406	0.0	-9.0	-24.1875	-41.9375	-1.5761971	1.3083211	-1.4696201
1277319597657	2.070293	0.23154591	9.466142	-0.1139946	0.0	-9.25	-23.9375	-41.6875	-1.6852531	1.3541806	-1.4594171
1277319597687	2.2201166	0.23154591	9.847511	0.29067707	0.0	-9.0	-23.1875	-41.9375	-1.6521782	1.3478907	-1.4668776
1277319597727	2.7240696	0.19068487	10.228881	0.7804613	0.0	-8.75	-22.4375	-41.6875	-1.5338205	1.3099169	-1.5009103
1277319597757	2.9556155	0.0	9.80665	0.43571568	0.0	-8.25	-21.9375	-41.9375	-1.3815107	1.2780656	-1.5707964
1277319597787	3.1463003	-0.10896278	9.656827	0.35038662	0.0	-7.75	-21.1875	-42.1875	-1.2803473	1.2556543	-1.6054145
1277319597857	3.486809	-0.27240697	10.119919	0.90058136	0.0	-8.0	-20.9375	-42.4375	-1.2200589	1.2380476	-1.648763
1277319597898	3.1463003	-0.53119355	9.193735	-0.07494259	0.0	-7.75	-20.1875	-42.9375	-1.1286669	1.2367384	-1.7380502
1277319597937	0.23154591	-0.53119355	9.384419	-0.4043579	0.0	-7.0	-19.6875	-43.4375	-0.6735463	1.5091286	-2.730528
1277319597978	-3.255263	-0.38136974	11.182305	1.8460808	0.0	-6.25	-19.6875	-43.4375	0.74597186	1.2856823	1.6874195
1277319598017	-2.7240696	-0.23154591	14.410328	4.8607187	0.0	-6.75	-19.1875	-43.4375	0.8497594	1.3833072	1.6555924
1277319598057	-2.4108016	0.0	12.9529505	3.36874	0.0	-10.5	-19.1875	-42.4375	0.81489056	1.3867818	1.5707964
1277319598097	3.990762	0.7627395	6.469665	-2.1669827	0.0	-15.1875	-17.9375	-40.6875	-1.1759402	1.0100372	-1.3819476
1277319598137	16.04477	-0.08172209	9.847511	9.019257	0.0	-19.125	-17.0	-39.6875	-0.62162876	0.5504643	-1.5758897
1277319598167	19.463476	-0.19068487	13.525005	13.895439	0.0	-20.125	-16.0	-40.1875	-0.6432036	0.6072667	-1.5805931
1277319598207	19.57244	1.6889231	12.4489975	13.45083	0.0	-15.4375	-13.75	-41.6875	-0.43900856	0.5648256	-1.4847187
1277319598247	19.531578	5.6252036	-1.3075534	10.560852	0.0	-4.5	-10.75	-43.6875	-0.20331289	-0.06424221	-1.2903795
1277319598287	13.947236	10.419566	-15.28203	13.358694	0.0	9.625	-7.8125	-42.6875	-0.3801554	-0.720411	-0.9291729
1277319598327	-5.202973	15.4046135	-7.5865335	8.135717	0.0	21.75	-8.8125	-39.25	-0.40023038	-0.43656364	0.32572407
1277319598367	-18.38747	9.888372	13.715691	15.173325	0.0	27.9375	-14.5	-35.5	-0.037244055	0.58124804	1.0773852
1277319598407	-7.3141265	6.1291566	16.04477	8.861441	0.0	26.1875	-22.6875	-33.0625	3.0974083	1.0342431	0.8733168
1277319598447	-8.19945	6.2789803	9.275456	4.0746565	0.0	18.5	-29.875	-33.3125	1.3474597	0.73178357	0.91727185
1277319598487	-7.9270425	4.440233	10.56939	4.1312723	0.0	9.125	-32.8125	-35.0625	1.3803289	0.86073047	1.0602034
1277319598517	-1.8387469	3.990762	11.836082	2.8187218	0.0	1.6875	-32.0625	-36.5	2.4798696	1.2153287	0.43175828
1277319598557	2.1792557	3.255263	10.923519	1.7980537	0.0	-4.75	-29.625	-37.0	-2.3809588	1.2264638	-0.58993125
1277319598597	3.0645783	2.3018389	10.119919	1.0147572	0.0	-10.0	-27.875	-37.0	-2.122821	1.2087554	-0.9265845
1277319598637	1.0351465	1.2666923	11.372991	1.6833868	0.0	-12.9375	-27.375	-36.75	-2.844419	1.4279393	-0.6851437
1277319598667	0.7218784	1.1849703	11.563675	1.8399734	0.0	-14.1875	-26.625	-36.75	-3.0737038	1.4513763	-0.54715335
1277319598707	1.607201	1.3075534	10.310603	0.7100668	0.0	-13.6875	-26.875	-37.0	-2.5878637	1.3724884	-0.887842
1277319598747	2.7649305	1.3756552	9.425281	0.11167526	0.0	-12.1875	-26.875	-37.75	-2.0630076	1.2541643	-1.1091211
1277319598777	2.7240696	1.2258313	9.915613	0.54915047	0.0	-10.25	-26.125	-38.25	-1.9659145	1.2781842	-1.1479424
1277319598807	2.4925237	1.0760075	9.724928	0.2901163	0.0	-9.5	-26.125	-38.75	-1.9455973	1.298562	-1.1632695
1277319598837	2.7240696	1.0760075	9.275456	-0.07975769	0.0	-8.5	-26.375	-39.25	-1.7984674	1.2649381	-1.1946077
1277319598886	3.1463003	0.95342433	9.152874	-0.08125496	0.0	-7.75	-26.875	-39.5	-1.611792	1.2259614	-1.2765617
1277319598927	3.255263	0.88532263	9.193735	-0.013525009	0.0	-7.25	-27.125	-39.5	-1.5561178	1.2191148	-1.3052524
1277319598967	2.982856	0.84446156	9.084772	-0.20750237	0.0	-6.25	-27.625	-39.25	-1.5763128	1.2419467	-1.2949107
1277319599007	3.5957718	0.84446156	9.00305	-0.07538128	0.0	-6.0	-27.875	-39.5	-1.4284489	1.1814755	-1.340128
1277319599047	3.2961242	0.7218784	9.043911	-0.15378189	0.0	-6.25	-27.625	-39.5	-1.4716905	1.213696	-1.3551922
1277319599087	2.7240696	0.88532263	9.384419	0.0051631927	0.0	-6.5	-27.625	-39.6875	-1.6731936	1.2745563	-1.2565644
1277319599127	2.2609777	1.1168685	9.847511	0.35862827	0.0	-6.75	-27.375	-39.9375	-1.913909	1.3201003	-1.1119796
1277319599157	1.879608	1.3756552	10.119919	0.57786274	0.0	-7.25	-27.375	-39.6875	-2.1848772	1.3445724	-0.93899053
1277319599187	1.607201	1.5390993	10.419566	0.84789276	0.0	-7.25	-27.625	-39.6875	-2.3752139	1.3603888	-0.8070398
1277319599227	1.3756552	1.6889231	10.61025	1.0248919	0.0	-7.5	-28.125	-39.25	-2.5583808	1.3683107	-0.68352985
1277319599257	1.2258313	1.7297841	10.651112	1.0534134	0.0	-7.75	-28.125	-39.25	-2.6647468	1.374315	-0.6165154
1277319599287	1.56634	1.6889231	10.18802	0.63852215	0.0	-7.5	-28.125	-39.0	-2.4509497	1.3484409	-0.74775904
1277319599327	2.152015	1.6889231	9.656827	0.23017883	0.0	-7.75	-27.875	-38.75	-2.1760855	1.2947452	-0.9053864
1277319599367	1.9477097	1.6480621	9.697687	0.22105217	0.0	-7.5	-27.625	-39.0	-2.2408533	1.313532	-0.86853933
1277319599407	2.152015	1.607201	9.724928	0.2823782	0.0	-7.25	-27.875	-39.0	-2.1312697	1.3013229	-0.9293236
1277319599447	2.4108016	1.4982382	9.425281	0.036753654	0.0	-7.5	-28.125	-38.75	-2.0008237	1.2782841	-1.0147402
1277319599477	2.3699405	1.3075534	9.084772	-0.32723045	0.0	-7.25	-28.375	-38.75	-1.9358153	1.2812306	-1.0666304
1277319599517	2.4516625	1.1849703	8.812365	-0.5831709	0.0	-7.0	-28.375	-38.5	-1.8500787	1.271104	-1.1205708
1277319599557	2.4108016	1.2258313	9.302697	-0.11878109	0.0	-6.75	-28.125	-38.75	-1.8869605	1.2878671	-1.1003921
1277319599597	2.4516625	1.3075534	9.724928	0.3074274	0.0	-6.0	-28.125	-38.75	-1.8859911	1.2924967	-1.0808389
1277319599637	2.6014864	1.4573772	9.997335	0.6259136	0.0	-5.5	-28.125	-39.0	-1.8651363	1.2809289	-1.0601486
1277319599667	2.4108016	1.4573772	10.147159	0.7242918	0.0	-5.5	-28.375	-39.6875	-1.9305524	1.299994	-1.0270602
1277319599707	2.2609777	1.4573772	10.147159	0.69100666	0.0	-5.25	-28.875	-39.25	-1.9814676	1.3116604	-0.99824196
1277319599747	2.2201166	1.4982382	10.310603	0.84615135	0.0	-5.75	-28.875	-39.25	-2.0351782	1.3166455	-0.97715205
1277319599777	2.4925237	1.4982382	9.888372	0.5004978	0.0	-6.0	-28.875	-39.0	-1.9327953	1.2847624	-1.0295737
1277319599817	2.4108016	1.5390993	9.656827	0.26484966	0.0	-6.0	-28.625	-38.75	-1.9617386	1.2828431	-1.0026062
1277319599867	1.9885708	1.5390993	9.80665	0.3172636	0.0	-6.25	-28.375	-39.0	-2.1405275	1.319786	-0.91212845
1277319599908	2.4516625	1.5390993	9.615966	0.23557472	0.0	-6.0	-28.375	-39.25	-1.9372233	1.2783911	-1.010202
1277319599947	2.4925237	1.6480621	9.425281	0.080952644	0.0	-5.75	-28.625	-39.5	-1.9261643	1.2637889	-0.98658633
1277319599987	1.9477097	1.607201	9.888372	0.3990631	0.0	-5.5	-28.625	-39.5	-2.1438818	1.3207684	-0.8808923
1277319600024	2.152015	1.56634	9.425281	-0.012748718	0.0	-5.5	-28.625	-39.5	-2.1438818	1.3207684	-0.8808923
1277319600068	2.4108016	1.607201	9.534244	0.15813065	0.0	-5.5	-28.875	-39.25	-1.9472302	1.2757686	-0.98279375
1277319600097	2.2609777	1.607201	9.765789	0.34547997	0.0	-5.25	-29.125	-38.75	-2.0114527	1.2940328	-0.95282996
1277319600127	2.1111538	1.6889231	9.724928	0.28709316	0.0	-5.75	-29.125	-38.5	-2.1132376	1.2996368	-0.89605534
1277319600157	2.1111538	1.7570249	9.507003	0.089167595	0.0	-5.75	-28.875	-38.75	-2.1162279	1.289546	-0.87669295
1277319600188	1.9885708	1.7570249	9.275456	-0.1590786	0.0	-6.0	-28.125	-39.25	-2.1599605	1.2921519	-0.8471378
1277319600228	1.9477097	1.7978859	9.302697	-0.13369083	0.0	-6.25	-27.625	-39.5	-2.196864	1.2932184	-0.8253768
1277319600267	2.152015	1.8387469	9.615966	0.21726894	0.0	-6.25	-27.875	-39.5	-2.1322045	1.2845201	-0.86373585
1277319600307	2.3018389	1.7978859	9.507003	0.1388998	0.0	-6.5	-27.875	-39.5	-2.0657701	1.2727268	-0.9077082
1277319600347	2.5333846	1.9885708	8.62168	-0.6030731	0.0	-7.0	-28.125	-39.25	-1.9786241	1.2132972	-0.9053021
1277319600387	2.6832085	1.9477097	9.466142	0.22335625	0.0	-8.5	-28.625	-38.75	-2.0547752	1.2338911	-0.94290614
1277319600417	2.3699405	2.1111538	10.038197	0.72135925	0.0	-9.5	-28.625	-37.75	-2.3031642	1.2645609	-0.8430849
1277319600457	2.4516625	2.152015	9.534244	0.27023506	0.0	-10.9375	-29.375	-36.5	-2.3368118	1.2411283	-0.8503952
1277319600487	2.982856	2.4108016	9.234595	0.19270706	0.0	-12.4375	-30.375	-35.75	-2.2535725	1.177156	-0.8910637
1277319600527	3.2961242	2.4108016	9.847511	0.85401917	0.0	-13.1875	-31.125	-35.0625	-2.2278721	1.1776899	-0.9393026
1277319600567	3.5957718	2.6423476	9.724928	0.8931532	0.0	-13.9375	-32.0625	-34.8125	-2.2054405	1.1406109	-0.93706286
1277319600607	3.486809	2.8738933	9.275456	0.510869	0.0	-14.4375	-32.5625	-33.8125	-2.2851572	1.1174822	-0.8814613
1277319600647	3.336985	2.8738933	9.084772	0.28927994	0.0	-14.6875	-32.5625	-32.8125	-2.3472912	1.1194141	-0.85982186
1277319600677	2.7649305	2.6423476	10.18802	1.0755644	0.0	-15.1875	-32.3125	-32.3125	-2.5658627	1.2116816	-0.8080643
1277319600717	3.486809	2.8738933	9.575105	0.78106594	0.0	-15.9375	-32.0625	-32.0625	-2.398028	1.1298771	-0.8814614
1277319600757	3.5957718	2.7921712	8.962189	0.24554443	0.0	-16.4375	-31.875	-32.3125	-2.331634	1.1007899	-0.91054034
1277319600797	3.486809	2.6832085	9.043911	0.25067425	0.0	-16.4375	-32.3125	-32.5625	-2.3434055	1.1180205	-0.9149119
1277319600837	3.3778462	2.7240696	9.302697	0.45836735	0.0	-15.6875	-32.8125	-32.3125	-2.3681614	1.1343331	-0.89213383
1277319600877	3.2961242	2.7649305	9.234595	0.3809414	0.0	-15.1875	-33.0625	-32.3125	-2.3748605	1.134813	-0.8728153
1277319600917	3.445948	2.7649305	8.962189	0.18535805	0.0	-14.1875	-33.0625	-33.0625	-2.2576094	1.1127898	-0.894611
1277319600957	3.5957718	2.5333846	9.00305	0.2134552	0.0	-13.4375	-32.5625	-32.8125	-2.1488438	1.1163371	-0.9570263
1277319600997	3.5276701	2.6014864	9.112013	0.30477715	0.0	-13.4375	-32.5625	-33.3125	-2.1800249	1.122438	-0.93537456
1277319601037	3.173541	2.5606253	9.466142	0.5004349	0.0	-12.4375	-32.5625	-34.0625	-2.251338	1.1640456	-0.89188224
1277319601077	3.0237172	2.5606253	9.534244	0.5181484	0.0	-12.4375	-32.3125	-33.5625	-2.3105142	1.1769278	-0.8681357
1277319601117	2.6832085	2.7649305	9.575105	0.51454544	0.0	-12.4375	-32.8125	-34.3125	-2.4573486	1.1882383	-0.77039933
1277319601157	1.8387469	2.8738933	11.114203	1.8194313	0.0	-11.6875	-32.3125	-34.3125	-2.8098164	1.2729529	-0.5691787
1277319601187	0.5720546	3.0237172	12.408136	2.9774008	0.0	-11.4375	-32.3125	-34.5625	2.9317153	1.3276906	-0.18697928
1277319601227	-1.525479	3.173541	13.252599	3.9057465	0.0	-10.5	-32.5625	-34.8125	2.1383896	1.311102	0.44807795
1277319601267	-2.9556155	3.1054392	12.340035	3.2568827	0.0	-9.5	-31.625	-35.3125	1.704695	1.2364256	0.7606841
1277319601307	-0.9942854	2.7240696	11.264028	1.8246641	0.0	-8.25	-30.875	-36.75	2.2939875	1.318824	0.34997484
1277319601347	2.152015	2.2609777	11.141444	1.7637854	0.0	-6.5	-29.875	-38.0	-2.3241353	1.2976372	-0.76071185
1277319601387	4.2086873	1.56634	9.915613	1.0784702	0.0	-4.0	-27.875	-39.9375	-1.4023734	1.1455394	-1.2145106
1277319601417	4.630918	2.7649305	9.193735	0.8523836	0.0	-1.0625	-26.125	-41.9375	-1.185272	1.0402484	-1.0325422
1277319601457	5.6660647	3.1463003	9.234595	1.4752483	0.0	1.4375	-24.1875	-43.1875	-0.9318837	0.95885086	-1.063902
1277319601487	6.0474343	2.8330324	7.7772183	0.44433308	0.0	3.4375	-21.4375	-44.125	-0.71151507	0.861285	-1.1326907
1277319601547	3.990762	2.070293	6.932757	-1.5437565	0.0	4.125	-19.4375	-45.125	-0.76092875	0.9954849	-1.0922446
1277319601587	3.9090397	1.56634	8.281172	-0.51623535	0.0	4.375	-17.5	-45.875	-0.76510316	1.1003528	-1.1896893
1277319601627	2.5333846	1.334794	8.962189	-0.39811516	0.0	4.625	-15.5	-46.625	-0.9559588	1.2615376	-1.0858753
1277319601657	2.7921712	0.95342433	8.308413	-0.98990726	0.0	4.125	-14.0	-47.125	-0.7651223	1.2295698	-1.2417467
1277319601687	3.9499009	0.5720546	7.668256	-1.1619349	0.0	4.375	-12.75	-47.625	-0.50066537	1.0909059	-1.4269688
1277319601727	4.440233	0.313268	7.9679036	-0.6796951	0.0	4.125	-12.0	-47.375	-0.44123155	1.061336	-1.5003608
1277319601757	3.9090397	0.19068487	8.730643	-0.23893929	0.0	3.625	-11.5	-47.375	-0.48425803	1.1493816	-1.5220544
1277319601797	3.1054392	0.040861044	9.343558	0.0395422	0.0	2.9375	-11.5	-47.375	-0.5806085	1.2498947	-1.5576392
1277319601837	3.990762	0.3405087	9.507003	0.5096102	0.0	1.6875	-11.75	-47.625	-0.55488276	1.172067	-1.4856783
1277319601877	3.9090397	0.84446156	10.501288	1.430376	0.0	0.6875	-12.0	-47.625	-0.66288114	1.2069236	-1.358038
1277319601917	3.336985	0.88532263	10.732834	1.4677896	0.0	-0.8125	-12.5	-47.8125	-0.83078516	1.2595794	-1.3114645
1277319601957	3.7864566	1.1849703	3.718355	-4.369043	0.0	-1.5625	-12.5	-48.3125	-0.3471904	0.75298786	-1.2675018
1277319601997	4.0588636	1.0351465	10.337844	1.3475828	0.0	-1.5625	-13.5	-48.0625	-0.75269663	1.1858245	-1.3210858
1277319602037	3.7864566	1.6480621	11.495573	2.4081583	0.0	-1.8125	-14.5	-48.0625	-0.93704164	1.2259215	-1.1602744
1277319602077	4.6036777	0.7218784	9.00305	0.33089733	0.0	-1.3125	-14.75	-48.0625	-0.6497164	1.0931722	-1.4152582
1277319602117	4.6036777	-0.040861044	9.00305	0.3052454	0.0	-0.8125	-15.0	-47.8125	-0.616788	1.0980968	-1.5796719
1277319602157	3.990762	-0.08172209	9.765789	0.74339676	0.0	-0.8125	-14.25	-48.3125	-0.67563003	1.1827846	-1.5912713
1277319602187	4.2086873	-0.040861044	9.112013	0.23045635	0.0	-0.5625	-13.5	-48.8125	-0.592134	1.1380862	-1.5805048
1277319602227	3.8681788	0.0	8.921328	-0.082818985	0.0	-0.3125	-13.0	-48.8125	-0.5968497	1.1616744	-1.5707964
1277319602267	3.445948	0.08172209	9.534244	0.33154678	0.0	-0.0625	-13.0	-48.5625	-0.67718923	1.2238867	-1.5470854
1277319602307	3.568531	0.08172209	9.425281	0.2718916	0.0	0.4375	-13.0	-48.3125	-0.646303	1.2087752	-1.5478996
1277319602347	3.445948	0.10896278	9.466142	0.26778603	0.0	1.4375	-13.25	-48.0625	-0.65210307	1.221518	-1.5391864
1277319602387	3.0237172	0.19068487	9.534244	0.1974001	0.0	1.6875	-13.5	-47.625	-0.7285431	1.2631152	-1.5078167
1277319602417	3.568531	-0.10896278	9.507003	0.34861374	0.0	2.6875	-13.25	-47.375	-0.5925726	1.2115583	-1.6013212
1277319602457	3.7864566	-0.38136974	9.466142	0.3958273	0.0	2.9375	-13.5	-46.875	-0.5495074	1.1885463	-1.6711773
1277319602487	3.718355	-0.38136974	9.425281	0.33275414	0.0	3.4375	-13.0	-46.875	-0.5255863	1.1932433	-1.6730031
1277319602527	2.8738933	-0.27240697	9.384419	0.0117406845	0.0	4.375	-13.25	-47.375	-0.5851248	1.2723691	-1.6653007
1277319602567	2.5333846	-1.2258313	9.80665	0.395854	0.0	5.375	-13.75	-47.625	-0.40293425	1.291321	-2.0214577
1277319602607	2.4925237	-1.879608	9.384419	0.08339119	0.0	7.125	-13.25	-47.625	-0.22094375	1.2496547	-2.2169151
1277319602647	1.6480621	-2.5606253	8.771504	-0.52159786	0.0	8.875	-13.0	-47.125	0.014087361	1.2366508	-2.5697176
1277319602687	1.0760075	-3.3642259	7.8861814	-1.1656046	0.0	11.8125	-12.25	-46.375	0.22476308	1.1497017	-2.8320367
1277319602727	0.08172209	-3.9090397	5.6252036	-2.956089	0.0	15.0625	-11.25	-45.875	0.39380383	0.9633887	-3.1206899
1277319602757	-0.7627395	-4.0588636	5.47538	-2.9483752	0.0	18.5	-10.5625	-44.625	0.55554354	0.9245687	2.9558396
1277319602787	-1.3756552	-4.3312707	5.5162406	-2.659536	0.0	23.0	-9.3125	-43.4375	0.70465285	0.88168865	2.8340592
1277319602847	-3.5957718	-3.9090397	6.2789803	-1.5825539	0.0	26.9375	-7.5625	-41.1875	0.974633	0.86869335	2.3979125
1277319602887	-5.09401	-3.718355	7.668256	0.12195778	0.0	31.6875	-4.3125	-36.75	1.3258666	0.882516	2.2013392
1277319602917	-6.0882955	-4.4810944	7.1234417	0.58040714	0.0	36.375	-0.375	-31.3125	1.4411497	0.75570214	2.2052886
1277319602957	-8.349273	-4.7535014	7.273266	2.243517	0.0	39.8125	4.0625	-25.6875	1.6703799	0.64798635	2.0883598
1277319602997	-9.956474	-4.903325	8.730643	4.314189	0.0	42.3125	8.8125	-20.75	2.296324	0.6665534	2.0284066
1277319603037	-10.56939	-5.407278	8.539958	4.81804	0.0	42.8125	12.25	-16.3125	2.5306995	0.62357503	2.0436792
1277319603077	-10.378705	-5.325556	7.6954966	4.1683187	0.0	42.3125	15.5	-13.875	2.7408671	0.58315814	2.0448873
1277319603117	-10.337844	-5.597963	7.014479	3.8831682	0.0	41.5625	17.25	-11.375	2.8040023	0.5379616	2.0670917
1277319603157	-10.760075	-4.862464	7.0553403	3.94837	0.0	41.0625	18.1875	-8.9375	3.1197324	0.5385927	1.995228
1277319603197	-9.765789	-2.6423476	6.851035	2.4117508	0.0	42.0625	18.1875	-6.9375	-2.819456	0.5952485	1.835041
1277319603237	-9.80665	-1.3075534	4.0180025	0.8715725	0.0	43.0625	16.75	-3.5	-2.4672782	0.38577804	1.7033479
1277319603277	-9.80665	-0.9125633	2.7240696	0.4121418	0.0	44.3125	13.75	1.4375	-2.523724	0.2698372	1.6635847
1277319603317	-10.419566	0.10896278	-2.7921712	0.9810953	0.0	45.5625	8.5625	8.3125	-1.1784811	-0.26180872	1.5603392
1277319603357	-8.19945	2.9147544	-1.0760075	-1.0382662	0.0	44.5625	1.875	15.9375	-2.142576	-0.123024546	1.2292464
1277319603397	-5.8567495	1.6480621	-1.2258313	-3.6001787	0.0	42.0625	-5.5625	23.3125	-2.7483783	-0.19881576	1.2964942
1277319603431	-3.2961242	2.070293	-1.7297841	-5.5472255	0.0	37.125	-13.75	29.0	-2.4963253	-0.4181904	1.0099715
1277319603467	-5.325556	4.0180025	-4.440233	-1.7928152	0.0	29.6875	-22.4375	31.6875	3.1361878	-0.58724654	0.9244369
1277319603507	-9.302697	4.4810944	-3.9090397	1.2342272	0.0	22.25	-29.625	32.9375	2.4147363	-0.36189973	1.121897
1277319603547	-5.134871	5.8567495	-4.0180025	-1.0423613	0.0	16.5625	-35.8125	33.1875	2.3985655	-0.47625217	0.719817
1277319603587	-4.7943625	5.706926	-4.944186	-0.86238384	0.0	13.0625	-38.8125	33.1875	1.9853145	-0.5856932	0.69871575
1277319603627	-3.7864566	8.894087	-4.9850473	1.0695953	0.0	12.3125	-38.8125	34.1875	2.824499	-0.47612956	0.40248662
1277319603667	-3.9090397	7.3141265	-5.8976107	0.36973667	0.0	12.8125	-36.8125	35.875	2.4230585	-0.61816263	0.49082682
1277319603707	-3.2961242	9.80665	-5.202973	1.7737532	0.0	13.3125	-32.8125	37.625	-3.02012	-0.46597177	0.3242485
1277319603747	-2.7240696	10.079058	-5.6660647	2.0724173	0.0	14.0625	-29.375	39.375	-2.8448365	-0.4972142	0.26396373
1277319603777	-3.3642259	9.915613	-7.164303	2.8805332	0.0	15.5625	-25.875	40.3125	-2.772565	-0.6000554	0.3270981
1277319603817	-2.2609777	7.4639506	-5.325556	-0.362916	0.0	16.5625	-23.9375	40.8125	-2.6835835	-0.5991307	0.29413328
1277319603857	-3.214402	5.7477865	-4.5219555	-1.8180637	0.0	17.8125	-23.4375	41.0625	-2.909174	-0.6017088	0.5099109
1277319603897	-4.1814466	5.597963	-4.140586	-1.6846962	0.0	18.0	-24.6875	40.5625	3.123327	-0.53495425	0.64155173
1277319603937	-3.2961242	5.012288	-5.5162406	-1.6570263	0.0	17.3125	-27.125	39.5625	3.081911	-0.743503	0.58170545
1277319603977	-3.445948	6.3607025	-8.471856	1.3336115	0.0	17.5625	-30.375	37.625	-0.40985566	-0.8640396	0.4964917
1277319604017	-2.4516625	11.727119	-5.09401	3.2119875	0.0	17.5625	-33.8125	35.1875	-2.6236424	-0.4020285	0.20609099
1277319604057	-1.9885708	11.604536	-1.3756552	2.0471296	0.0	18.5	-36.8125	32.1875	-2.7282457	-0.11631412	0.16971312
1277319604097	-3.2961242	10.460427	0.23154591	1.1632442	0.0	20.75	-38.8125	29.25	-2.8783789	0.021108966	0.3052556
1277319604137	-1.879608	8.812365	-0.08172209	-0.7956915	0.0	22.5	-40.5	26.5625	-2.663467	-0.009069312	0.21014318
1277319604167	-2.8738933	7.164303	0.040861044	-2.0873127	0.0	23.75	-42.25	23.3125	-2.8798647	0.0052933604	0.38148934
1277319604197	-4.2495484	6.66035	1.1849703	-1.8177156	0.0	24.0	-43.0	21.375	3.0400696	0.14887577	0.5679192
1277319604247	-7.6954966	6.851035	1.7297841	0.6408138	0.0	22.5	-44.75	19.375	2.5386443	0.16633572	0.8433855
1277319604287	-6.1700177	6.8237944	0.38136974	-0.59911346	0.0	19.5	-43.6875	16.0625	2.4504035	0.041431155	0.7351261
1277319604327	1.334794	15.363752	5.6252036	6.6088753	0.0	19.0	-45.1875	13.375	-2.4472206	0.3497637	-0.08666182
1277319604367	-5.434519	8.049625	3.5957718	0.54999256	0.0	19.75	-46.375	10.625	2.8023221	0.35457808	0.5938368
1277319604407	-1.920469	11.876944	3.1054392	2.6188774	0.0	21.0	-46.625	8.9375	-2.5773132	0.2526019	0.1603097
1277319604447	-4.399372	9.043911	1.4573772	0.35557175	0.0	21.0625	-45.0625	9.75	3.0956516	0.14390747	0.45274556
1277319604477	-4.7126403	9.343558	0.08172209	0.6584215	0.0	20.5625	-44.5625	11.1875	2.9949791	0.007809112	0.46714002
1277319604517	-0.95342433	9.343558	0.23154591	-0.41172028	0.0	18.8125	-44.3125	13.4375	-2.3683524	0.024648333	0.10168885
1277319604557	-7.205164	0.84446156	-0.95342433	-2.4897847	0.0	15.375	-42.3125	16.125	1.8912979	-0.13067661	1.4541264
1277319604597	-5.5571017	6.891896	-1.4165162	-0.84081936	0.0	13.625	-42.0625	18.125	2.1948185	-0.15865526	0.67858523
1277319604637	-5.284695	8.539958	0.19068487	0.23801231	0.0	12.875	-41.8125	20.3125	2.6592586	0.018984841	0.5541428
1277319604667	-5.202973	8.117727	-0.84446156	-0.12772751	0.0	12.875	-41.0625	22.0625	2.5890558	-0.08735855	0.5699794
1277319604697	-3.486809	7.668256	-2.3018389	-1.0740423	0.0	12.625	-39.8125	23.0	2.724557	-0.2667432	0.42676133
1277319604737	-3.636633	8.281172	-1.56634	-0.6275253	0.0	12.125	-39.3125	24.25	2.8703654	-0.17148073	0.4137901
1277319604777	-2.6832085	7.3141265	-1.879608	-1.7923517	0.0	11.625	-39.3125	24.5	2.959016	-0.23673692	0.35160896
1277319604817	-4.3312707	10.119919	-2.7240696	1.5332451	0.0	10.6875	-39.4375	24.375	2.7539663	-0.24259247	0.40440437
1277319604857	-4.671779	9.847511	-0.7218784	1.116724	0.0	10.5	-39.9375	24.375	2.8025458	-0.06613386	0.4429686
1277319604887	-1.56634	9.765789	-0.46309182	0.094789505	0.0	10.0	-40.1875	23.625	-2.9810312	-0.04678722	0.15903601
1277319604917	-10.528529	8.049625	-5.202973	4.4312334	0.0	9.0	-40.4375	23.375	1.935266	-0.37409642	0.91804576
1277319604957	-6.2789803	7.5865335	-2.1792557	0.27949047	0.0	8.25	-40.1875	22.875	2.2162235	-0.21778183	0.6913737
1277319605013	-8.471856	6.891896	-3.759216	1.7433395	0.0	7.0	-40.9375	22.4375	1.954593	-0.3315125	0.88787484
1277319605047	-8.240311	6.0201936	-2.4108016	0.6794081	0.0	6.5	-41.1875	22.6875	2.0499704	-0.2319805	0.9398413
1277319605077	1.6889231	11.536434	0.27240697	1.8559389	0.0	8.0	-40.6875	22.6875	-2.6120677	0.023359455	-0.1453664
1277319605118	2.7921712	13.102775	-0.8036005	3.6144037	0.0	9.5	-40.1875	23.375	-2.4444716	-0.059911944	-0.20995721
1277319605157	0.88532263	8.689782	-1.3756552	-0.96422195	0.0	11.4375	-39.1875	23.375	-2.4131138	-0.15620887	-0.10153055
1277319605197	-2.6014864	6.742072	-1.3756552	-2.450313	0.0	13.25	-38.5625	21.8125	3.0319228	-0.18811017	0.3682564
1277319605237	-9.112013	7.7772183	-1.0760075	2.221305	0.0	13.75	-39.25	20.0625	2.246256	-0.089578636	0.8642665
1277319605267	-8.662541	9.234595	-0.5720546	2.867916	0.0	13.0	-39.75	18.125	2.3175976	-0.045149397	0.7534456
1277319605297	-7.9679036	7.5456724	-0.14982383	1.168189	0.0	12.0	-40.75	17.125	2.2326217	-0.013651998	0.8126083
1277319605337	-5.6660647	7.504812	-0.23154591	-0.4002638	0.0	9.5625	-41.25	17.625	2.3397932	-0.024618305	0.6466877
1277319605397	-9.193735	6.3198414	-2.7240696	1.6775007	0.0	5.5625	-41.25	18.625	1.9266518	-0.23948517	0.9685719
1277319605427	-2.2609777	7.5865335	-1.9885708	-1.6444244	0.0	2.125	-41.75	19.0625	2.28621	-0.24610786	0.289644
1277319605467	3.8681788	11.304889	-0.50395286	2.1523333	0.0	-0.375	-41.75	19.3125	-2.5001945	-0.04215259	-0.32968116
1277319605507	-2.0294318	10.528529	-0.95342433	0.95799255	0.0	-1.375	-42.5	19.5625	2.6055233	-0.08868621	0.19042009
1277319605547	-0.27240697	8.539958	-1.0351465	-1.199873	0.0	-0.625	-41.75	19.5625	3.0066414	-0.12056295	0.031887118
1277319605577	-0.19068487	8.390134	-2.3426998	-1.093502	0.0	2.125	-41.5	20.0625	-2.9977212	-0.27221912	0.022723362
1277319605617	-1.607201	9.80665	-0.27240697	0.13456154	0.0	3.8125	-40.5	19.5625	2.9915712	-0.02740522	0.16244477
1277319605657	0.95342433	8.921328	-0.53119355	-0.8188095	0.0	3.8125	-39.75	19.3125	-2.7002738	-0.059135813	-0.10646613
1277319605697	-9.765789	8.349273	-1.7570249	3.161316	0.0	3.8125	-39.75	18.8125	2.0594685	-0.13590764	0.86343485
1277319605737	-6.6331096	10.651112	-0.53119355	2.7522707	0.0	1.875	-39.5	18.625	2.2975001	-0.042308737	0.5569885
1277319605777	-8.539958	10.419566	0.3405087	3.6697807	0.0	-0.625	-39.5	19.3125	2.2371275	0.02526967	0.6865831
1277319605817	-2.8330324	6.851035	-1.7297841	-2.1938381	0.0	-3.125	-39.25	19.3125	2.1155276	-0.2292222	0.392106
1277319605857	-0.19068487	10.691973	-3.336985	1.395587	0.0	-6.0625	-39.5	20.3125	2.4179618	-0.3024769	0.017832505
1277319605897	0.19068487	7.4639506	-2.5333846	-1.9221745	0.0	-7.625	-39.125	22.3125	2.479628	-0.32711568	-0.02554189
1277319605938	2.9147544	10.61025	-2.9147544	1.5761881	0.0	-9.875	-38.625	23.25	-3.0838277	-0.25895	-0.26809767
1277319605977	0.19068487	12.367276	-3.1054392	2.945982	0.0	-9.625	-38.375	24.75	2.5883434	-0.24598685	-0.015417281
1277319606017	2.152015	5.8567495	-2.7513103	-2.9873838	0.0	-7.625	-37.875	24.75	-2.4574537	-0.4152966	-0.35212794
1277319606057	-5.012288	11.645397	0.38136974	2.877346	0.0	-5.5625	-38.4375	23.75	2.45422	0.030071532	0.4064435
1277319606097	-4.8216033	7.205164	-2.070293	-0.89326954	0.0	-2.625	-38.6875	23.5	2.156751	-0.2344088	0.5897456
1277319606137	-9.80665	3.9499009	-1.9885708	0.9509754	0.0	-1.875	-38.4375	22.8125	2.0755641	-0.18592148	1.1878976
1277319606167	-2.8330324	9.765789	0.27240697	0.36541462	0.0	-3.375	-38.6875	21.5625	2.5848393	0.02678311	0.2823475
1277319606207	4.7943625	13.633968	-0.95342433	4.6771345	0.0	-5.5	-39.8125	19.625	-2.7006245	-0.06587465	-0.3381425
1277319606247	2.7649305	6.6331096	-0.08172209	-2.6198802	0.0	-8.5	-40.0625	17.1875	-2.7167299	-0.01137143	-0.3949369
1277319606287	2.4925237	4.630918	-0.53119355	-4.520797	0.0	-10.6875	-41.0625	14.9375	-2.388383	-0.10066335	-0.49376598
1277319606327	6.0201936	9.084772	0.6537767	1.111373	0.0	-12.4375	-41.8125	13.5	-2.4687743	0.059916347	-0.58522964
1277319606367	2.070293	9.384419	-1.2258313	-0.11871433	0.0	-15.0	-40.5	12.375	2.4295495	-0.12687182	-0.21713169
1277319606407	-10.760075	13.593107	0.313268	7.532608	0.0	-16.75	-40.25	11.125	1.8639623	0.018067962	0.6695876
1277319606437	-1.7978859	14.750836	0.88532263	5.0796976	0.0	-18.4375	-39.75	10.1875	2.0626855	0.059507232	0.12128542
1277319606477	-0.08172209	13.0619135	2.3426998	3.4639378	0.0	-19.9375	-38.8125	9.4375	2.2447777	0.17746325	0.0062564355
1277319606507	-3.2961242	10.991621	0.313268	1.672823	0.0	-20.1875	-39.0625	8.6875	1.8736221	0.027292794	0.2913431
1277319606547	-4.4810944	9.302697	1.4573772	0.62140465	0.0	-19.6875	-39.75	8.4375	1.9054309	0.14021441	0.44889945
1277319606578	0.9942854	10.923519	1.1849703	1.2258482	0.0	-18.9375	-40.25	8.4375	2.2733443	0.10761484	-0.09077231
1277319606617	-0.0	7.668256	-3.3642259	-1.4328718	0.0	-17.5	-41.0	8.9375	1.1285112	-0.41343492	0.0
1277319606667	2.152015	6.66035	-0.95342433	-2.7426252	0.0	-15.0	-41.0	9.4375	2.6928003	-0.13538218	-0.31252006
1277319606697	0.50395286	6.932757	-0.23154591	-2.8517456	0.0	-13.1875	-41.25	10.0625	2.2762923	-0.033298615	-0.07256392
1277319606737	0.19068487	7.246025	-1.2666923	-2.4482703	0.0	-11.4375	-41.5	11.0	1.909443	-0.17300457	-0.026309717
1277319606777	0.040861044	8.499097	-1.525479	-1.1716394	0.0	-10.6875	-41.25	12.25	1.9968917	-0.17759416	-0.0048076557
1277319606817	2.5333846	15.28203	1.4165162	5.7485743	0.0	-11.9375	-40.75	14.25	2.8652885	0.091190025	-0.16428135
1277319606867	-1.3075534	12.408136	-3.0237172	3.0313568	0.0	-13.9375	-39.75	15.4375	1.8939285	-0.23776239	0.10499123
1277319606907	2.5606253	8.962189	-0.9125633	-0.441267	0.0	-15.6875	-38.3125	16.6875	2.7944114	-0.097594894	-0.27829966
1277319606947	1.7570249	8.076866	-0.84446156	-1.497859	0.0	-17.1875	-37.8125	16.9375	2.538782	-0.10181051	-0.2142007
1277319606990	1.56634	9.765789	-0.53119355	0.09820843	0.0	-18.125	-37.5625	16.9375	2.461446	-0.053655338	-0.159036
1277319607027	-2.9147544	6.469665	-0.84446156	-2.6606388	0.0	-19.125	-37.3125	16.9375	1.9675487	-0.11844922	0.42329153
1277319607067	-3.6774938	7.0553403	-3.636633	-1.0586853	0.0	-18.625	-37.8125	16.9375	1.7181071	-0.4287254	0.4804913
1277319607107	-1.334794	17.434046	-0.8036005	7.6968746	0.0	-15.4375	-38.0625	17.4375	2.2808933	-0.045926925	0.07641342
1277319607147	2.3426998	13.402422	0.10896278	3.7994156	0.0	-11.6875	-38.3125	18.1875	2.8819327	0.008008483	-0.17304845
1277319607177	-0.61291564	11.454713	-1.9885708	1.835537	0.0	-7.75	-38.8125	18.1875	2.4296205	-0.17164896	0.053456746
1277319607217	-1.9885708	7.9679036	-1.6480621	-1.4306126	0.0	-5.75	-39.25	17.9375	2.1730037	-0.19805136	0.24457641
1277319607257	-2.3426998	6.66035	-0.95342433	-2.6822186	0.0	-7.5	-39.25	17.6875	2.1416347	-0.13422732	0.33822253
1277319607287	0.23154591	9.956474	-1.1168685	0.2149458	0.0	-9.5	-39.5	16.6875	2.5270965	-0.11167817	-0.023251623
1277319607327	0.3405087	9.275456	-1.525479	-0.4004221	0.0	-10.6875	-39.5	16.6875	2.396214	-0.16289702	-0.036694244
1277319607367	-0.7218784	8.158588	-0.88532263	-1.5684786	0.0	-11.1875	-39.0625	16.4375	2.2700112	-0.107673846	0.08825098
1277319607407	-2.6014864	11.223166	-0.9942854	1.7569046	0.0	-10.9375	-38.8125	16.4375	2.172636	-0.086090714	0.22777359
1277319607437	-1.56634	7.9270425	-2.1111538	-1.4551	0.0	-10.6875	-38.5625	17.1875	1.9706302	-0.25555855	0.1950815
1277319607477	-0.38136974	12.571581	0.08172209	2.77098	0.0	-10.5	-38.3125	17.4375	2.5587902	0.006497461	0.030326562
1277319607507	-0.7627395	10.732834	-0.61291564	0.97069454	0.0	-10.25	-38.3125	17.9375	2.4546452	-0.056901447	0.070946716
1277319607547	-0.50395286	10.269742	-0.61291564	0.49370098	0.0	-10.0	-38.5625	18.1875	2.4997604	-0.05953951	0.049032286
1277319607587	-1.3075534	9.915613	-0.6946377	0.21889687	0.0	-9.75	-39.0625	18.1875	2.3817685	-0.06934232	0.13111165
1277319607627	0.313268	7.4639506	-1.4982382	-2.1873713	0.0	-9.75	-39.0625	18.1875	2.3817685	-0.06934232	0.13111165
1277319607667	0.313268	10.310603	-1.2666923	0.5861931	0.0	-10.25	-38.8125	18.1875	2.5427532	-0.122185	-0.030373748
1277319607697	-0.88532263	8.281172	-0.53119355	-1.4613657	0.0	-10.5	-38.8125	18.1875	2.3956976	-0.063695	0.10650337
1277319607727	-0.42223078	8.853226	-1.6480621	-0.79144096	0.0	-10.9375	-38.0625	18.1875	2.2842646	-0.18384293	0.047656197
1277319607757	-1.7978859	9.466142	-1.56634	-0.04480362	0.0	-11.6875	-38.0625	18.4375	2.164693	-0.16115192	0.18769251
1277319607787	-2.1111538	9.915613	-1.1849703	0.40023518	0.0	-12.4375	-37.8125	18.4375	2.1912534	-0.11635757	0.20977964
1277319607827	-1.7570249	11.686258	-0.9942854	2.0527077	0.0	-12.6875	-37.5625	18.875	2.2892404	-0.08393826	0.14923188
1277319607867	0.27240697	9.152874	-1.607201	-0.5097475	0.0	-12.6875	-37.5625	18.875	2.2892404	-0.08393826	0.14923188
1277319607907	-1.1168685	9.043911	-1.4573772	-0.5782337	0.0	-12.1875	-37.3125	19.125	2.2432592	-0.1585867	0.12287187
1277319607937	0.14982383	9.234595	-1.4165162	-0.4628439	0.0	-11.4375	-37.8125	19.125	2.4527617	-0.15218626	-0.016222768
1277319607977	-0.19068487	9.507003	-1.7978859	-0.12926102	0.0	-11.6875	-37.8125	18.875	2.3196864	-0.18686779	0.020054618
1277319608018	-1.4165162	9.615966	-1.334794	0.0043125153	0.0	-11.1875	-37.5625	18.875	2.2683902	-0.13647453	0.14625691
1277319608057	-0.9942854	9.656827	-1.4982382	0.016161919	0.0	-11.6875	-37.8125	18.4375	2.256001	-0.1531241	0.102600366
1277319608097	-0.9125633	9.615966	-1.334794	-0.055688858	0.0	-11.9375	-37.5625	18.4375	2.2820787	-0.13731962	0.09461748
1277319608137	-0.6946377	9.656827	-1.2258313	-0.047577858	0.0	-11.4375	-37.3125	18.4375	2.3430588	-0.12594208	0.071808614
1277319608167	-0.42223078	9.656827	-1.4165162	-0.037356377	0.0	-12.1875	-37.3125	18.4375	2.3228645	-0.14550973	0.04369572
1277319608197	-0.3405087	9.575105	-1.4165162	-0.12134743	0.0	-12.1875	-37.3125	18.6875	2.3407974	-0.14678068	0.0355469
1277319608237	-0.14982383	9.615966	-1.3756552	-0.09162712	0.0	-12.1875	-37.0625	18.875	2.3829095	-0.14207834	0.015579476
1277319608267	0.10896278	9.384419	-1.3756552	-0.3213129	0.0	-12.4375	-37.0625	18.875	2.4065096	-0.14554293	-0.011610509
1277319608297	0.50395286	9.466142	-1.334794	-0.23359013	0.0	-12.1875	-37.5625	19.125	2.4999743	-0.13988812	-0.0531872
1277319608337	0.53119355	9.724928	-1.2666923	0.014801025	0.0	-12.1875	-37.3125	19.625	2.533861	-0.12933226	-0.054567624
