#timestamp	accel_x	accel_y	accel_z	accel_mag	temperature	mag_x	mag_y	mag_z	azimuth	pitch	roll
1277225588811	4.4810944	0.8036005	9.084772	0.35499668	0.0	-5.625	-16.9375	-56.75	-0.72206044	1.1062515	-1.3933512
1277225588841	4.5628166	0.8036005	8.921328	0.24596977	0.0	-5.125	-15.6875	-57.0	-0.6444511	1.0918108	-1.3964647
1277225588881	4.6036777	0.84446156	8.894087	0.2438097	0.0	-5.625	-14.4375	-56.75	-0.60112196	1.0863723	-1.3893812
1277225588911	4.5219555	0.92618364	8.662541	0.008925438	0.0	-6.375	-13.9375	-57.0	-0.58153987	1.0812157	-1.3687712
1277225588942	4.4810944	0.9942854	8.62168	-0.039245605	0.0	-6.875	-14.1875	-56.75	-0.6009515	1.0815753	-1.3524492
1277225588981	4.5628166	0.7627395	8.689782	0.037809372	0.0	-7.125	-14.1875	-57.0	-0.6054997	1.0815938	-1.4051636
1277225589021	4.7943625	0.42223078	9.043911	0.43817902	0.0	-7.125	-13.6875	-57.75	-0.58120644	1.0817434	-1.4829547
1277225589051	4.8216033	0.38136974	9.084772	0.485404	0.0	-7.375	-13.1875	-57.5	-0.5697423	1.0815722	-1.4918646
1277225589081	4.671779	0.27240697	9.00305	0.34000587	0.0	-7.125	-12.9375	-57.5	-0.5691399	1.0914407	-1.5125532
1277225589121	4.6036777	0.10896278	8.730643	0.06400585	0.0	-7.625	-12.6875	-57.0	-0.56821096	1.0854316	-1.5471321
1277225589161	4.5219555	0.14982383	8.499097	-0.17829704	0.0	-8.375	-12.375	-56.5	-0.5715472	1.0816102	-1.5376759
1277225589191	4.5628166	0.46309182	8.580819	-0.07709694	0.0	-9.125	-12.375	-56.75	-0.5733053	1.0799484	-1.4696501
1277225589221	4.7126403	0.3405087	8.812365	0.19248486	0.0	-9.375	-12.125	-56.75	-0.5702061	1.0786331	-1.4986674
1277225589251	4.862464	0.42223078	8.921328	0.36251545	0.0	-8.875	-11.375	-57.0	-0.51339257	1.0701907	-1.4841789
1277225589291	4.862464	0.42223078	8.812365	0.26705837	0.0	-8.875	-11.875	-56.75	-0.53043175	1.0649992	-1.4841789
1277225589321	4.8216033	0.53119355	8.962189	0.38407326	0.0	-8.375	-12.6875	-56.25	-0.57030827	1.0746967	-1.4610693
1277225589351	4.862464	0.6946377	9.275456	0.68907166	0.0	-8.875	-12.9375	-56.25	-0.5984357	1.0837879	-1.4288993
1277225589381	4.7535014	0.9942854	8.730643	0.18377113	0.0	-9.375	-14.1875	-55.5	-0.629791	1.0631711	-1.3646001
1277225589421	4.630918	1.1849703	8.158588	-0.350852	0.0	-9.625	-14.6875	-56.25	-0.60167694	1.0408087	-1.320289
1277225589462	4.7535014	1.2666923	8.076866	-0.3495865	0.0	-10.375	-14.9375	-56.0	-0.5975658	1.0237343	-1.3103722
1277225589501	5.053149	1.2258313	8.539958	0.1917429	0.0	-9.875	-15.1875	-55.75	-0.6112845	1.0238816	-1.3328061
1277225589541	5.09401	1.2258313	9.043911	0.6453314	0.0	-9.625	-14.4375	-56.5	-0.59793085	1.0457127	-1.3346447
1277225589582	4.9850473	0.46309182	9.193735	0.66187	0.0	-9.625	-13.4375	-56.25	-0.62275964	1.0721418	-1.478166
1277225589621	4.903325	0.27240697	8.662541	0.15108204	0.0	-9.125	-12.9375	-56.75	-0.5682722	1.0550627	-1.5152978
1277225589663	4.7535014	0.23154591	8.308413	-0.2317295	0.0	-9.625	-12.125	-56.75	-0.5415735	1.0506098	-1.5221242
1277225589701	4.862464	0.08172209	8.240311	-0.2383194	0.0	-9.625	-11.625	-57.0	-0.5095074	1.0376391	-1.5539912
1277225589741	4.7126403	0.313268	8.62168	0.023939133	0.0	-9.375	-12.125	-57.0	-0.55583197	1.0696362	-1.50442
1277225589781	4.7535014	0.53119355	9.112013	0.4844494	0.0	-9.375	-11.625	-56.75	-0.5542346	1.0874109	-1.4595102
1277225589821	4.6036777	0.92618364	8.771504	0.14276981	0.0	-9.125	-12.375	-56.75	-0.5528113	1.0792618	-1.3722631
1277225589851	3.9090397	1.2666923	9.275456	0.3382597	0.0	-9.625	-13.1875	-56.75	-0.721037	1.1537678	-1.2574314
1277225589891	3.9090397	0.84446156	8.076866	-0.793911	0.0	-9.375	-12.6875	-56.75	-0.6209595	1.111041	-1.358038
1277225589941	5.47538	-0.3405087	6.851035	-1.0298386	0.0	-10.375	-12.375	-57.0	-0.4325634	0.8955989	-1.6329054
1277225589981	6.4424243	0.42223078	7.7772183	0.3011799	0.0	-11.625	-12.375	-57.25	-0.40515524	0.8779407	-1.5053508
1277225590021	4.944186	0.53119355	11.454713	2.6808472	0.0	-12.625	-12.6875	-56.75	-0.85284144	1.1612324	-1.4637688
1277225590051	5.284695	1.0760075	8.240311	0.04162407	0.0	-13.375	-12.9375	-56.25	-0.51518553	0.9912777	-1.3699337
1277225590081	5.47538	0.92618364	8.771504	0.57491493	0.0	-12.625	-13.9375	-56.0	-0.587523	1.0063999	-1.4032283
1277225590121	5.706926	0.3405087	9.956474	1.6744795	0.0	-10.125	-13.9375	-56.0	-0.6262103	1.0495583	-1.5112011
1277225590151	4.2904096	0.6946377	9.384419	0.5353737	0.0	-5.375	-13.4375	-56.75	-0.62801147	1.1370711	-1.4102844
1277225590191	3.173541	1.3756552	8.921328	-0.23827076	0.0	-0.8125	-14.4375	-57.0	-0.72605157	1.200931	-1.1617681
1277225590231	2.9556155	1.920469	8.349273	-0.74385643	0.0	4.1875	-14.6875	-56.75	-0.68319535	1.1713313	-0.99458313
1277225590271	2.1111538	2.4925237	9.615966	0.34896088	0.0	7.5	-16.1875	-56.5	-0.971064	1.2433363	-0.7027466
1277225590311	1.6889231	3.5276701	8.812365	-0.165349	0.0	9.25	-17.9375	-55.25	-0.9594963	1.1530913	-0.4465153
1277225590351	1.2258313	3.8681788	9.466142	0.4925394	0.0	11.0	-18.6875	-54.25	-1.107696	1.165829	-0.30688962
1277225590391	0.19068487	3.3778462	9.234595	0.028183937	0.0	12.0	-19.9375	-53.75	-1.537662	1.2196183	-0.05639176
1277225590421	-0.27240697	4.3312707	8.812365	0.016378403	0.0	14.0	-20.1875	-53.0	-1.2267406	1.1131904	0.062810354
1277225590461	-0.19068487	4.7943625	8.853226	0.2631998	0.0	14.75	-20.4375	-52.25	-1.1384145	1.0741417	0.039751776
1277225590501	1.2666923	2.7649305	8.894087	-0.4069624	0.0	15.0625	-20.4375	-52.0	-1.3416382	1.2413168	-0.42959267
1277225590541	1.1441092	3.1463003	8.921328	-0.2778368	0.0	15.3125	-20.1875	-52.25	-1.3182303	1.2117931	-0.348771
1277225590572	1.2666923	3.0237172	9.343558	0.095342636	0.0	14.5	-19.9375	-52.75	-1.3200427	1.2333518	-0.39670864
1277225590611	1.3756552	2.9147544	9.466142	0.19315338	0.0	14.0	-19.4375	-53.75	-1.276986	1.2426232	-0.4409672
1277225590652	1.3075534	3.255263	9.302697	0.1355133	0.0	13.5	-19.1875	-54.0	-1.2244401	1.2101852	-0.38194832
1277225590692	1.5390993	3.0237172	9.302697	0.09546375	0.0	12.25	-18.4375	-54.5	-1.1574069	1.2210678	-0.47082883
1277225590731	1.6889231	3.1463003	9.193735	0.0562315	0.0	11.0	-17.4375	-54.75	-1.0474632	1.20032	-0.49264973
1277225590771	2.152015	1.9885708	8.730643	-0.5974312	0.0	10.25	-16.4375	-55.0	-0.9344337	1.2469956	-0.82485133
1277225590801	2.2609777	2.0294318	8.730643	-0.5624771	0.0	9.0	-15.4375	-55.75	-0.8651652	1.2359118	-0.8393141
1277225590841	1.9885708	2.6423476	8.962189	-0.25378418	0.0	8.75	-14.9375	-55.5	-0.88947815	1.2172984	-0.6451486
1277225590881	1.7978859	2.4516625	9.152874	-0.16205883	0.0	9.0	-14.1875	-55.5	-0.92923063	1.2501004	-0.6327488
1277225590921	1.7570249	2.3018389	9.234595	-0.12866783	0.0	8.75	-13.6875	-55.5	-0.9338082	1.2669272	-0.65196747
1277225590963	2.2201166	1.3756552	10.038197	0.565752	0.0	8.5	-13.1875	-55.25	-0.8357328	1.316257	-1.0160664
1277225591003	2.070293	2.5333846	9.915613	0.6347828	0.0	8.25	-12.9375	-55.75	-0.8457861	1.2520883	-0.68514377
1277225591041	1.4573772	3.0645783	10.310603	1.0480318	0.0	8.25	-12.125	-55.75	-0.8833138	1.2528394	-0.4439015
1277225591071	1.4573772	2.7921712	10.501288	1.1567993	0.0	8.25	-12.125	-56.0	-0.93951094	1.2794056	-0.48105395
1277225591106	1.56634	2.5333846	9.575105	0.22101593	0.0	9.25	-12.6875	-56.0	-0.9242563	1.2692174	-0.553752
1277225591141	1.7978859	1.920469	8.539958	-0.8706846	0.0	9.5	-12.6875	-55.75	-0.8479789	1.2719741	-0.752443
1277225591181	2.1792557	0.7218784	9.084772	-0.436306	0.0	9.5	-13.4375	-56.0	-0.7086396	1.3232797	-1.250922
1277225591222	1.4165162	1.3075534	9.302697	-0.3063135	0.0	10.5	-14.4375	-55.5	-1.0909333	1.3664633	-0.8253768
1277225591271	0.23154591	4.2495484	9.152874	0.28727722	0.0	12.0	-15.6875	-54.5	-0.9403914	1.1355598	-0.054433353
1277225591311	-0.88532263	5.053149	9.507003	0.9961834	0.0	14.25	-17.9375	-53.25	-0.96523935	1.0759615	0.1734418
1277225591370	-1.0351465	4.0588636	10.038197	1.0704498	0.0	17.8125	-20.9375	-51.25	-1.8179432	1.1754788	0.24971049
1277225591413	-0.3405087	4.2904096	8.771504	-0.036140442	0.0	20.8125	-24.1875	-48.75	-1.6581956	1.1146417	0.07919907
1277225591451	-0.38136974	5.6660647	7.3549876	-0.51441765	0.0	23.8125	-27.9375	-45.75	-1.3622493	0.91329217	0.06720633
1277225591481	-0.38136974	5.2165933	7.205164	-0.9031296	0.0	26.625	-31.4375	-42.25	-1.6581019	0.9428724	0.07297722
1277225591511	-1.2666923	5.053149	7.1234417	-0.98155785	0.0	28.125	-34.1875	-38.5	-2.0376632	0.93935996	0.24561274
1277225591549	-2.5606253	5.6252036	7.273266	-0.26201248	0.0	29.625	-35.9375	-35.6875	-2.3172367	0.86643666	0.4271746
1277225591581	-2.5333846	6.1700177	7.273266	0.061862946	0.0	30.875	-36.1875	-33.6875	-2.1894174	0.8286467	0.38960734
1277225591621	-2.6423476	6.510526	6.510526	-0.22772026	0.0	32.375	-35.9375	-32.1875	-1.987583	0.74731475	0.38554597
1277225591693	-3.255263	6.469665	6.1291566	-0.3187704	0.0	34.375	-35.6875	-30.6875	-2.0244036	0.7023307	0.46617073
1277225591736	-2.6832085	8.539958	5.407278	0.65132046	0.0	37.4375	-34.6875	-28.4375	-1.5144311	0.5433992	0.30442795
1277225591778	-4.4810944	8.240311	9.656827	3.6557884	0.0	40.1875	-33.4375	-26.1875	-2.280244	0.7999429	0.49807194
1277225591812	-6.4015636	7.0553403	5.7886477	1.3408289	0.0	43.4375	-29.9375	-24.9375	-1.9891325	0.5460067	0.73685336
1277225591841	-4.862464	4.5219555	3.636633	-2.2358685	0.0	46.75	-23.9375	-23.9375	-1.796137	0.5010549	0.8216667
1277225591871	-4.2904096	2.7240696	2.1111538	-4.303457	0.0	48.5	-17.1875	-23.6875	-1.345399	0.3937167	1.0050949
1277225591912	-5.5162406	-1.0760075	5.134871	-2.1939235	0.0	50.0	-9.125	-24.1875	2.2201402	0.74030274	1.763439
1277225591961	-5.706926	-3.5957718	5.243834	-1.2628584	0.0	49.75	-1.875	-24.6875	1.7719067	0.66081387	2.1330342
1277225591991	-8.158588	-0.7627395	5.6660647	0.15571022	0.0	49.5	4.125	-25.4375	3.0733807	0.60498196	1.6640146
1277225592021	-9.043911	-0.9125633	7.8861814	2.2273417	0.0	49.25	8.625	-25.9375	-2.8705287	0.7146134	1.6713595
1277225592051	-7.6546354	-1.7978859	9.112013	2.2289057	0.0	48.5	11.625	-26.1875	-3.1305833	0.8588491	1.8014902
1277225592082	-8.076866	-0.5720546	8.349273	1.8240585	0.0	49.0	13.1875	-25.1875	-2.6527143	0.80072993	1.6415045
1277225592111	-9.888372	0.6537767	7.164303	2.4217825	0.0	48.75	13.4375	-24.6875	-2.0179827	0.6259563	1.5047767
1277225592141	-9.084772	0.84446156	6.3607025	1.3156128	0.0	48.75	14.1875	-24.6875	-1.9185895	0.608807	1.4781091
1277225592171	-6.701211	-0.38136974	6.4424243	-0.5030756	0.0	48.5	15.1875	-25.4375	-2.4751637	0.76490384	1.6276456
1277225592211	-5.9793324	-1.334794	6.5922484	-0.8071041	0.0	47.5	16.1875	-26.1875	-2.8582246	0.8220003	1.7904298
1277225592261	-7.014479	-1.334794	6.8237944	0.07002735	0.0	46.5	17.4375	-26.9375	-2.6096954	0.7627329	1.7588394
1277225592291	-6.932757	-1.4165162	6.66035	-0.08914566	0.0	45.75	18.4375	-26.4375	-2.5750637	0.75514895	1.7723444
1277225592321	-6.5922484	-2.0294318	6.66035	-0.21829224	0.0	45.25	18.9375	-25.9375	-2.837561	0.7679038	1.8694404
1277225592361	-6.4015636	-2.6014864	6.891896	-0.04724598	0.0	44.9375	19.9375	-24.9375	-3.0507586	0.7840883	1.9567931
1277225592391	-6.973618	-2.3426998	6.851035	0.24602509	0.0	44.4375	21.1875	-24.1875	-2.778267	0.749829	1.8948888
1277225592431	-7.164303	-2.2201166	6.932757	0.40703106	0.0	43.6875	21.9375	-24.4375	-2.6444702	0.74608856	1.871298
1277225592471	-6.742072	-2.3426998	7.164303	0.30626297	0.0	43.1875	23.1875	-24.4375	-2.7159288	0.7872728	1.9052197
1277225592511	-6.6331096	-2.2609777	7.43671	0.41170597	0.0	42.4375	23.9375	-25.1875	-2.669993	0.8150786	1.8993077
1277225592551	-6.742072	-2.3699405	7.246025	0.37063026	0.0	42.4375	24.4375	-25.9375	-2.6317253	0.79231465	1.9088203
1277225592591	-6.0882955	-2.2201166	6.6331096	-0.5333338	0.0	42.1875	24.9375	-26.4375	-2.6299868	0.79703885	1.9204651
1277225592621	-6.2108784	-2.1111538	6.510526	-0.564414	0.0	41.9375	24.4375	-26.9375	-2.5513492	0.7816225	1.8984562
1277225592651	-6.469665	-2.3018389	6.891896	-0.07765961	0.0	41.6875	24.6875	-26.9375	-2.5773437	0.7872111	1.9126195
1277225592691	-6.428804	-2.982856	7.3958488	0.4366665	0.0	41.4375	24.9375	-27.1875	-2.8267457	0.80671316	2.0052176
1277225592731	-6.5922484	-3.8273177	8.008764	1.2498598	0.0	40.9375	25.4375	-27.6875	-3.050475	0.8100887	2.096813
1277225592771	-6.0474343	-4.0588636	8.19945	1.160428	0.0	40.1875	25.9375	-28.1875	3.0911787	0.8445044	2.161911
1277225592811	-5.8567495	-3.568531	8.117727	0.820364	0.0	39.1875	25.9375	-30.1875	-3.0346484	0.8692988	2.1180277
1277225592841	-4.862464	-2.8738933	8.281172	0.21735191	0.0	37.4375	25.4375	-31.9375	-2.9951499	0.97221226	2.1045988
1277225592871	-3.9499009	-2.6832085	8.430995	-0.11732674	0.0	35.4375	25.1875	-33.9375	-3.0979242	1.0554712	2.1675012
1277225592911	-3.718355	-2.7240696	8.471856	-0.16201115	0.0	33.375	25.6875	-35.6875	-3.091563	1.0725052	2.2030685
1277225592951	-3.445948	-2.3426998	8.662541	-0.19403172	0.0	31.625	25.9375	-36.9375	-2.966118	1.1224463	2.1678648
1277225592991	-3.173541	-1.9885708	8.62168	-0.40669537	0.0	29.875	26.1875	-38.5	-2.8440294	1.1610061	2.130552
1277225593031	-3.636633	-1.4573772	9.112013	0.11190891	0.0	29.375	25.6875	-40.0	-2.5198944	1.1647335	1.9519483
1277225593071	-3.336985	-1.9885708	9.084772	0.07378292	0.0	28.125	24.9375	-41.25	-2.7644625	1.1667329	2.1082091
1277225593111	-3.2961242	-1.4165162	9.084772	-0.03915119	0.0	27.625	24.1875	-42.25	-2.5535383	1.194691	1.9766852
1277225593151	-3.5957718	-0.61291564	8.771504	-0.30693722	0.0	27.625	23.1875	-43.0	-2.1621149	1.1767007	1.7396282
1277225593191	-1.8387469	-2.2201166	8.471856	-0.8577814	0.0	27.125	22.9375	-43.5	2.8247542	1.2428187	2.4498792
1277225593231	-3.173541	-1.9477097	8.008764	-0.9745922	0.0	27.875	21.6875	-44.5	-2.8513572	1.1355909	2.121253
1277225593261	-4.140586	-0.3405087	10.460427	1.4486122	0.0	28.875	19.6875	-45.0	-2.164062	1.1927326	1.6528485
1277225593301	-3.6774938	-0.84446156	10.18802	1.057641	0.0	29.875	18.4375	-45.25	-2.5110686	1.2161022	1.796513
1277225593341	-4.0180025	-0.14982383	9.152874	0.190444	0.0	31.125	16.1875	-45.25	-2.1956	1.1568818	1.6080672
1277225593381	-4.5628166	1.1441092	9.112013	0.4479618	0.0	32.125	14.9375	-44.75	-1.745311	1.0942339	1.3251154
1277225593411	-4.630918	0.53119355	8.812365	0.16256905	0.0	32.125	14.9375	-44.5	-1.879533	1.0842594	1.4565896
1277225593441	-4.2086873	0.19068487	8.471856	-0.34505653	0.0	32.375	14.1875	-44.25	-2.0775225	1.1093158	1.5255198
1277225593481	-3.9090397	-0.040861044	8.662541	-0.30286694	0.0	32.625	13.9375	-43.75	-2.2886286	1.1468762	1.5812489
1277225593521	-5.407278	0.3405087	9.275456	0.9352627	0.0	33.125	13.4375	-43.5	-1.9333442	1.0421345	1.507907
1277225593561	-4.2086873	-0.14982383	8.853226	-0.0028190613	0.0	34.125	11.375	-43.0	-2.4668024	1.1267886	1.60638
1277225593601	-4.2086873	1.6889231	8.240311	-0.40089512	0.0	35.6875	10.375	-42.5	-1.7914134	1.0676968	1.1891745
1277225593641	-4.630918	2.1792557	7.5456724	-0.68898964	0.0	36.9375	8.625	-41.5	-1.6270319	0.9747982	1.1309537
1277225593681	-4.7535014	1.334794	7.1234417	-1.1394205	0.0	38.9375	6.875	-40.25	-1.9257007	0.96470726	1.2970438
1277225593721	-7.5865335	2.2201166	8.894087	2.092475	0.0	40.9375	4.625	-38.5	-1.7459664	0.84422606	1.2861062
1277225593761	-7.6546354	2.1111538	8.771504	2.025075	0.0	42.4375	1.875	-36.4375	-1.9689164	0.83508664	1.3016858
1277225593801	-5.8567495	0.84446156	7.8861814	0.052684784	0.0	44.1875	-0.875	-34.9375	-2.7737036	0.92707783	1.4275972
1277225593841	-5.6252036	1.3756552	7.4639506	-0.3596449	0.0	44.9375	-3.375	-34.1875	-2.6603596	0.91095	1.3309517
1277225593881	-5.5571017	2.7649305	7.3549876	-0.18261433	0.0	45.25	-4.625	-33.6875	-2.1644595	0.86984825	1.1091114
1277225593921	-5.8567495	3.759216	7.273266	0.2598095	0.0	45.75	-6.375	-33.1875	-1.9344014	0.80744725	1.0001644
1277225593961	-6.0201936	3.568531	6.973618	0.0730505	0.0	45.75	-7.375	-32.9375	-1.9668561	0.78362685	1.0357172
1277225593991	-6.0474343	2.6423476	7.246025	-0.0057144165	0.0	46.0	-8.375	-32.4375	-2.403072	0.83205956	1.1588585
1277225594031	-5.9793324	2.070293	7.5456724	0.040973663	0.0	46.75	-9.125	-32.4375	-2.7301989	0.87297344	1.2374737
1277225594071	-6.2108784	2.2609777	7.8180795	0.43099594	0.0	47.0	-9.125	-32.1875	-2.6864269	0.86896306	1.2216733
1277225594111	-5.6252036	2.5333846	7.205164	-0.32111645	0.0	47.0	-8.875	-32.4375	-2.4742088	0.86269027	1.1476405
1277225594151	-5.175732	2.4516625	7.1234417	-0.6665039	0.0	47.0	-8.125	-32.1875	-2.4568007	0.89363974	1.1284221
1277225594199	-5.407278	2.7921712	7.246025	-0.34410572	0.0	46.5	-7.875	-31.6875	-2.3452194	0.8722201	1.0941365
1277225594241	-5.8567495	2.5606253	7.3549876	-0.062207222	0.0	46.0	-7.625	-31.9375	-2.4262645	0.85533065	1.1586299
1277225594271	-5.6252036	2.8738933	7.246025	-0.19379139	0.0	45.75	-7.875	-31.9375	-2.3037035	0.85380256	1.0984701
1277225594301	-5.706926	3.2961242	7.3549876	0.06904125	0.0	45.75	-9.125	-32.4375	-2.215256	0.8401702	1.047036
1277225594331	-5.7477865	3.445948	7.504812	0.25485134	0.0	45.75	-9.875	-33.4375	-2.192367	0.84187573	1.0307254
1277225594371	-6.0201936	3.5276701	7.082581	0.13569069	0.0	45.75	-10.625	-33.4375	-2.1165216	0.7928631	1.0407547
1277225594411	-5.938472	3.636633	7.3958488	0.35155392	0.0	46.0	-10.625	-33.6875	-2.1368914	0.8154973	1.0213197
1277225594451	-5.706926	3.8681788	7.273266	0.21493721	0.0	45.25	-10.875	-33.6875	-2.0463061	0.81213826	0.97512263
1277225594491	-5.706926	3.636633	7.3141265	0.15781403	0.0	44.9375	-10.625	-33.1875	-2.1283	0.8242241	1.0034497
1277225594531	-5.597963	2.7649305	7.273266	-0.22111797	0.0	44.9375	-10.625	-32.9375	-2.4561985	0.8614309	1.1120267
1277225594571	-5.5162406	2.8330324	7.014479	-0.44407082	0.0	44.6875	-10.625	-32.4375	-2.3985217	0.846859	1.0963436
1277225594611	-5.366417	3.336985	7.014479	-0.36542034	0.0	45.5	-9.875	-31.9375	-2.1924279	0.83748555	1.0144817
1277225594651	-5.407278	1.8387469	6.973618	-0.792717	0.0	46.0	-9.625	-31.6875	-2.7997818	0.88457966	1.2430127
1277225594691	-5.134871	3.214402	7.7363577	0.019361496	0.0	45.5	-9.625	-31.6875	-2.3194163	0.9064736	1.0114821
1277225594731	-5.5162406	3.5957718	7.5865335	0.238945	0.0	45.25	-9.625	-32.1875	-2.1752996	0.85597444	0.9931204
1277225594771	-5.7477865	5.09401	6.701211	0.38610268	0.0	44.9375	-10.125	-31.6875	-1.6894122	0.7174277	0.8456268
1277225594801	-5.6660647	3.9499009	7.0553403	0.066740036	0.0	44.9375	-11.125	-31.6875	-2.0552433	0.7960255	0.96200895
1277225594841	-5.7886477	3.0237172	7.0553403	-0.19264317	0.0	45.75	-11.375	-31.1875	-2.4129977	0.8239878	1.0894266
1277225594881	-5.7886477	2.4516625	6.973618	-0.41780376	0.0	46.25	-12.375	-30.4375	-2.720683	0.8371765	1.170172
1277225594921	-5.597963	1.2258313	6.782933	-0.9270086	0.0	46.25	-12.6875	-30.1875	2.9964151	0.8692958	1.3552209
1277225594961	-6.0201936	3.255263	5.5162406	-1.016407	0.0	46.5	-12.375	-29.4375	-2.091584	0.6783913	1.0751027
1277225595001	-5.434519	10.147159	6.0474343	3.1960526	0.0	46.75	-13.9375	-28.6875	-1.3053128	0.48373693	0.49169746
1277225595041	-6.4015636	4.099725	6.2789803	0.053032875	0.0	47.5	-14.4375	-27.4375	-2.1743178	0.69038475	1.0011814
1277225595081	-6.1291566	4.4810944	5.9793324	-0.14232445	0.0	47.75	-15.6875	-27.4375	-2.0478914	0.66708875	0.93949413
1277225595121	-5.7886477	4.5628166	6.0882955	-0.2465725	0.0	48.5	-16.6875	-26.9375	-2.1075876	0.69040024	0.90327024
1277225595161	-5.9793324	4.630918	6.3607025	0.07547283	0.0	48.5	-16.9375	-26.6875	-2.161384	0.6992678	0.9118065
1277225595201	-5.5571017	4.671779	5.829509	-0.4958992	0.0	48.25	-17.6875	-26.4375	-2.0738676	0.67654794	0.87173426
1277225595241	-5.6660647	4.671779	5.5571017	-0.5973511	0.0	48.5	-17.6875	-25.4375	-2.0566123	0.6477866	0.88128245
1277225595281	-6.2108784	4.5628166	5.938472	-0.07732582	0.0	48.0	-17.6875	-24.9375	-2.1971889	0.65652555	0.9371924
1277225595321	-6.1700177	4.7535014	5.6660647	-0.17497444	0.0	48.0	-17.9375	-24.6875	-2.101103	0.6289229	0.9143544
1277225595361	-6.2789803	5.134871	5.7886477	0.15833569	0.0	48.5	-18.1875	-24.9375	-2.0289955	0.61983234	0.88530314
1277225595391	-6.0201936	5.5162406	5.434519	0.0017967224	0.0	48.5	-18.4375	-24.6875	-1.8817979	0.58723956	0.829054
1277225595431	-5.175732	5.434519	4.4810944	-1.0658035	0.0	47.5	-19.4375	-25.6875	-1.6636598	0.53828156	0.76101273
1277225595471	-3.8681788	5.243834	5.47538	-1.2954588	0.0	46.25	-19.9375	-28.4375	-1.810812	0.69882077	0.6355581
1277225595511	-3.1463003	5.407278	7.504812	-0.036283493	0.0	42.6875	-20.1875	-32.4375	-1.8995537	0.8758995	0.5269775
1277225595551	-2.6014864	5.366417	7.3549876	-0.3376484	0.0	38.6875	-21.4375	-37.75	-1.7387329	0.889479	0.45139083
1277225595591	-1.920469	5.325556	7.0553403	-0.7607908	0.0	34.375	-21.6875	-42.5	-1.5071951	0.89458984	0.3460989
1277225595631	-1.4573772	5.243834	8.771504	0.5161905	0.0	29.375	-21.4375	-46.5	-1.5582906	1.0154504	0.2710808
1277225595671	-1.3756552	4.903325	9.112013	0.6319227	0.0	24.8125	-21.6875	-49.25	-1.573617	1.0611508	0.2735238
1277225595711	-1.3756552	5.6252036	8.349273	0.35433865	0.0	21.0625	-21.4375	-51.0	-1.0988417	0.9643855	0.23984468
1277225595751	-0.9942854	6.0882955	8.240311	0.48697186	0.0	18.0625	-21.6875	-52.0	-0.8861823	0.9281721	0.16188191
1277225595791	-0.42223078	6.0474343	7.8589406	0.11870575	0.0	16.3125	-21.9375	-52.0	-0.82824326	0.9137577	0.06970669
1277225595831	-0.14982383	6.469665	8.008764	0.48991776	0.0	15.8125	-22.4375	-51.75	-0.80188674	0.8911723	0.023153758
1277225595871	-0.5720546	6.973618	6.932757	0.043310165	0.0	16.0625	-22.9375	-51.5	-0.6254896	0.78078324	0.08184799
1277225595911	0.42223078	6.973618	6.1700177	-0.4857731	0.0	16.8125	-24.1875	-50.5	-0.6803804	0.7234264	-0.060473055
1277225595981	-1.1849703	8.19945	5.597963	0.1919651	0.0	16.8125	-27.4375	-49.0	-0.48633486	0.5942335	0.14352459
1277225596011	-0.23154591	7.9270425	7.668256	1.2248392	0.0	16.5625	-31.6875	-46.25	-0.9620499	0.7685928	0.029201316
1277225596051	0.3405087	8.008764	5.706926	0.033332825	0.0	15.3125	-36.1875	-43.75	-0.84139043	0.61869574	-0.04249142
1277225596091	0.313268	8.281172	4.4810944	-0.385602	0.0	13.5	-39.75	-42.0	-0.6865529	0.49569952	-0.037810918
1277225596131	0.38136974	8.117727	4.0588636	-0.7227459	0.0	13.25	-41.75	-40.5	-0.70449686	0.4632068	-0.04694535
1277225596171	-0.040861044	8.349273	4.7535014	-0.19895554	0.0	13.0	-43.0	-39.75	-0.7681629	0.51755846	0.0048939255
1277225596211	-0.95342433	8.62168	3.8681788	-0.3090086	0.0	14.0	-44.0	-38.75	-0.49169067	0.4194715	0.110137016
1277225596251	-0.42223078	9.043911	3.214402	-0.1992054	0.0	15.3125	-45.25	-36.9375	-0.5958291	0.34115323	0.046652872
1277225596291	-0.27240697	9.00305	2.7921712	-0.37662697	0.0	16.3125	-46.75	-34.4375	-0.66702753	0.30060047	0.030247958
1277225596331	-0.19068487	9.80665	3.486809	0.6031809	0.0	17.8125	-47.25	-32.6875	-0.8492731	0.34155586	0.019441994
1277225596371	-2.7513103	9.152874	2.2609777	0.014594078	0.0	18.8125	-48.25	-30.9375	-0.22269236	0.23229653	0.29200277
1277225596411	-1.4982382	8.499097	1.0760075	-1.1096878	0.0	19.5625	-49.25	-29.6875	-0.43534753	0.12404005	0.17448935
1277225596451	0.8036005	10.378705	2.7649305	0.96405697	0.0	19.8125	-49.5	-29.9375	-0.9556569	0.25961488	-0.077273645
1277225596491	-2.3426998	9.956474	2.7240696	0.7782526	0.0	19.0625	-50.25	-29.4375	-0.4460953	0.26028323	0.23109065
1277225596531	-0.53119355	8.471856	2.1111538	-1.0595655	0.0	18.3125	-50.0	-28.6875	-0.7733004	0.24376203	0.062618986
1277225596571	-0.42223078	9.615966	1.8387469	-0.007361412	0.0	17.5625	-50.0	-28.4375	-0.6949485	0.18875979	0.043881163
1277225596611	-1.7978859	9.534244	1.1849703	-0.03227806	0.0	16.5625	-50.5	-27.1875	-0.32399872	0.121531315	0.18638277
1277225596651	-0.14982383	8.539958	1.4982382	-1.1349688	0.0	16.3125	-51.25	-26.4375	-0.73241293	0.17364499	0.01754206
1277225596691	-0.29964766	10.528529	2.0294318	0.91987324	0.0	16.0625	-52.25	-25.9375	-0.7544315	0.19034486	0.028452862
1277225596731	-1.920469	9.724928	0.92618364	0.14926529	0.0	15.5625	-52.75	-24.4375	-0.25662777	0.093163185	0.19497034
1277225596771	0.6946377	8.689782	2.1792557	-0.8208847	0.0	15.8125	-53.5	-24.1875	-1.0747509	0.24496576	-0.07976769
1277225596811	-0.84446156	10.038197	0.84446156	0.3023367	0.0	15.8125	-53.25	-23.6875	-0.53485197	0.083633184	0.083927214
1277225596851	-0.6946377	9.343558	1.0760075	-0.3757229	0.0	15.3125	-53.0	-23.1875	-0.5916912	0.114342496	0.07420751
1277225596891	0.313268	8.962189	1.4982382	-0.71469307	0.0	15.3125	-53.25	-23.6875	-0.863151	0.16554226	-0.034940183
1277225596931	-0.7218784	9.466142	0.92618364	-0.26795197	0.0	15.0625	-53.0	-23.1875	-0.5521917	0.09725071	0.07611168
1277225596971	-0.5720546	9.152874	0.7627395	-0.6042528	0.0	15.0625	-53.5	-22.6875	-0.5735405	0.08298007	0.06241881
1277225597012	-0.38136974	9.384419	0.50395286	-0.40097427	0.0	15.8125	-54.5	-22.1875	-0.6157409	0.05360532	0.040616255
1277225597051	-0.6946377	10.378705	0.50395286	0.6074753	0.0	16.5625	-54.75	-20.9375	-0.61506695	0.048410185	0.066829465
1277225597091	-1.1849703	10.732834	-0.19068487	0.993083	0.0	16.5625	-55.25	-19.4375	-0.47071883	-0.01765736	0.10996075
1277225597131	-0.0	8.771504	0.50395286	-1.0206804	0.0	16.3125	-55.75	-17.6875	-0.845504	0.057390317	0.0
1277225597171	0.27240697	8.921328	-0.27240697	-0.87700844	0.0	16.0625	-56.0	-15.9375	-0.7893963	-0.030510657	-0.030524869
1277225597221	-0.6537767	10.038197	-1.1441092	0.317667	0.0	15.8125	-57.0	-14.4375	-0.5241146	-0.113247976	0.06503705
1277225597252	0.53119355	8.390134	0.08172209	-1.3993206	0.0	16.3125	-58.0	-13.1875	-1.0061327	0.009720491	-0.0632273
1277225597291	0.50395286	8.19945	-0.10896278	-1.5910063	0.0	17.0625	-58.0	-12.375	-1.0031655	-0.01326323	-0.061384577
1277225597331	-0.29964766	9.234595	-1.1441092	-0.4966278	0.0	17.3125	-57.75	-11.875	-0.6834574	-0.123201504	0.032437
1277225597371	-0.7218784	9.724928	-0.9942854	-0.0044088364	0.0	17.5625	-56.75	-12.125	-0.638563	-0.10160925	0.074093804
1277225597401	-1.607201	10.310603	-0.95342433	0.6719303	0.0	17.5625	-56.0	-12.375	-0.46026772	-0.09111394	0.15463404
1277225597441	-1.920469	10.119919	-0.88532263	0.53185844	0.0	18.3125	-56.0	-12.9375	-0.39929834	-0.0857385	0.1875411
1277225597481	-0.7627395	8.962189	-0.42223078	-0.80215836	0.0	19.5625	-55.5	-13.4375	-0.74306667	-0.04690833	0.084901795
1277225597521	-0.27240697	9.724928	-0.6946377	-0.05314064	0.0	20.5625	-55.5	-12.9375	-0.84393334	-0.0712796	0.028003883
1277225597551	-0.14982383	8.894087	-0.23154591	-0.90828896	0.0	21.5625	-55.0	-12.6875	-0.9705399	-0.026024124	0.016843738
1277225597581	-0.50395286	8.499097	0.3405087	-1.285819	0.0	22.0625	-54.75	-12.125	-1.086602	0.039972555	0.05922553
1277225597611	-1.2666923	9.152874	-0.23154591	-0.5636406	0.0	22.3125	-55.0	-12.125	-0.82092106	-0.025053542	0.13751933
1277225597641	-1.4165162	10.147159	-0.6946377	0.46242332	0.0	21.8125	-55.25	-13.4375	-0.67876536	-0.06769535	0.13870099
1277225597681	0.19068487	9.343558	0.27240697	-0.45717716	0.0	21.5625	-55.5	-14.6875	-1.0479567	0.0291402	-0.020405332
1277225597721	-1.334794	8.390134	0.19068487	-1.3088627	0.0	20.5625	-55.5	-16.4375	-0.6535347	0.022441238	0.15776874
1277225597761	-0.84446156	9.765789	1.4165162	0.09740257	0.0	19.0625	-55.0	-18.9375	-0.9281568	0.14351605	0.08625685
1277225597801	-0.14982383	9.302697	1.1849703	-0.42758942	0.0	18.5625	-53.5	-21.6875	-0.87710214	0.12668066	0.016104026
1277225597841	0.50395286	8.049625	3.173541	-1.1393671	0.0	17.0625	-51.5	-25.9375	-1.2960713	0.37487024	-0.062524155
1277225597881	1.334794	8.158588	4.630918	-0.33091068	0.0	15.5625	-49.0	-30.9375	-1.3761897	0.5106141	-0.16216926
1277225597921	1.1441092	8.19945	6.1291566	0.49415112	0.0	14.0	-46.75	-35.1875	-1.4784852	0.63728744	-0.13863975
1277225597961	1.4165162	7.6954966	8.894087	2.0395298	0.0	11.75	-45.5	-39.5	-1.86091	0.84926915	-0.18203317
1277225598001	1.334794	6.701211	6.8237944	-0.14993858	0.0	10.25	-43.5	-42.25	-1.5081575	0.7847347	-0.19661368
1277225598031	1.7297841	6.5513873	8.662541	1.1911888	0.0	9.25	-41.5	-44.75	-1.6816001	0.9069993	-0.2581422
1277225598071	1.879608	6.66035	9.234595	1.7333212	0.0	8.75	-39.25	-47.0	-1.5781714	0.9276734	-0.27505556
1277225598111	1.879608	6.3198414	7.668256	0.30648327	0.0	9.0	-35.6875	-48.5	-1.185318	0.8606205	-0.28908244
1277225598141	1.6889231	5.284695	7.43671	-0.52844334	0.0	9.0	-32.9375	-50.25	-1.2063107	0.9298403	-0.30932882
1277225598181	1.334794	4.862464	8.240311	-0.14601135	0.0	9.5	-30.4375	-51.0	-1.3575718	1.0216641	-0.26791045
1277225598221	1.334794	4.5219555	7.6954966	-0.78166103	0.0	9.5	-28.1875	-52.25	-1.20544	1.0211084	-0.2870296
1277225598251	1.5390993	4.2904096	8.049625	-0.5560875	0.0	10.25	-26.6875	-52.75	-1.2051108	1.0555611	-0.34443098
1277225598281	1.879608	4.1814466	7.7772183	-0.77877426	0.0	11.25	-25.1875	-53.25	-1.0716674	1.0381517	-0.42244756
1277225598321	2.070293	3.8681788	7.5865335	-1.0428371	0.0	11.25	-23.9375	-54.0	-1.0088004	1.0464789	-0.49141824
1277225598361	1.1441092	3.9090397	7.9270425	-0.8944349	0.0	11.75	-22.9375	-53.75	-1.1504875	1.0961583	-0.28473046
1277225598401	0.38136974	4.2904096	8.390134	-0.3754568	0.0	11.5	-22.9375	-53.5	-1.2148061	1.0965022	-0.08865588
1277225598441	0.3405087	5.053149	8.158588	-0.20389938	0.0	11.75	-23.9375	-53.25	-1.0051427	1.0152445	-0.067283735
1277225598481	0.7627395	5.8567495	8.240311	0.3316927	0.0	12.5	-25.1875	-52.0	-0.945176	0.9489199	-0.12950368
1277225598514	1.1441092	6.2789803	9.043911	1.262537	0.0	12.75	-26.9375	-51.0	-1.0650291	0.9562494	-0.18023527
1277225598551	1.334794	6.2789803	8.962189	1.2173281	0.0	13.5	-28.1875	-50.5	-1.118094	0.9492385	-0.20946321
1277225598581	0.95342433	5.8567495	8.049625	0.19369984	0.0	13.75	-28.6875	-49.5	-1.1398767	0.9355649	-0.16137512
1277225598621	0.92618364	5.6660647	8.049625	0.080643654	0.0	13.75	-28.9375	-50.0	-1.1764884	0.9512439	-0.16202857
1277225598651	0.8036005	5.325556	8.430995	0.19779873	0.0	14.25	-28.4375	-50.25	-1.2971042	1.0023243	-0.14976527
1277225598691	1.0760075	5.134871	8.853226	0.48433113	0.0	14.0	-27.9375	-51.0	-1.3215231	1.0358378	-0.20656027
1277225598731	1.1441092	4.5628166	8.117727	-0.42444515	0.0	14.0	-26.9375	-52.25	-1.2568554	1.0456008	-0.24568091
1277225598771	0.8036005	3.990762	7.7772183	-1.0284338	0.0	14.0	-24.9375	-52.75	-1.2962557	1.088577	-0.19870788
1277225598811	1.0351465	3.718355	8.730643	-0.2608757	0.0	13.25	-22.6875	-53.75	-1.3118304	1.1545378	-0.27151355
1277225598851	1.1441092	3.8273177	8.471856	-0.44023705	0.0	13.0	-19.9375	-54.5	-1.0961728	1.1301898	-0.29047707
1277225598891	0.95342433	4.372132	8.62168	-0.09284973	0.0	12.25	-18.4375	-55.0	-0.9377658	1.0920438	-0.21470726
1277225598931	1.0760075	4.9850473	8.62168	0.21042824	0.0	11.5	-18.6875	-55.0	-0.81301904	1.0366393	-0.2125856
1277225598971	1.0760075	5.597963	8.894087	0.7574291	0.0	11.25	-19.9375	-54.5	-0.78874385	1.0008276	-0.18989804
1277225599001	1.0760075	5.597963	8.812365	0.68871784	0.0	11.5	-22.4375	-53.5	-0.897751	0.9966259	-0.18989804
1277225599031	0.9942854	5.5162406	7.9679036	-0.064730644	0.0	11.75	-24.4375	-52.5	-0.91465914	0.9577494	-0.17833209
1277225599071	0.84446156	5.8567495	7.668256	-0.120744705	0.0	11.75	-25.9375	-51.5	-0.8881287	0.913574	-0.14319913
1277225599111	0.95342433	5.597963	7.8180795	-0.1439085	0.0	12.5	-27.1875	-51.25	-1.030414	0.9426111	-0.16869757
1277225599151	0.92618364	5.5571017	7.5865335	-0.3570633	0.0	11.75	-28.1875	-50.5	-1.0486208	0.9320484	-0.16514868
1277225599191	0.92618364	5.8567495	7.9270425	0.09270954	0.0	11.75	-28.9375	-50.0	-1.0841931	0.9285682	-0.1568407
1277225599231	1.0760075	5.938472	7.5865335	-0.11238766	0.0	11.75	-29.6875	-50.25	-1.0325979	0.8987989	-0.17924793
1277225599271	0.84446156	6.0201936	7.164303	-0.41074276	0.0	11.75	-30.1875	-49.75	-0.97907895	0.8671558	-0.13936222
1277225599301	0.8036005	5.9793324	7.668256	-0.04958439	0.0	12.25	-29.9375	-50.0	-1.0675031	0.90417975	-0.13359585
1277225599331	0.8036005	5.597963	7.9679036	-0.035752296	0.0	13.0	-29.6875	-49.75	-1.2156079	0.953546	-0.14257824
1277225599371	0.53119355	5.434519	8.049625	-0.0797472	0.0	14.5	-29.1875	-49.5	-1.2935197	0.9747526	-0.09743485
1277225599402	0.6946377	5.09401	8.008764	-0.28973007	0.0	15.0625	-28.6875	-49.5	-1.3341943	1.0001073	-0.1355277
1277225599441	0.5720546	5.09401	8.076866	-0.2404623	0.0	15.3125	-28.4375	-50.0	-1.3372399	1.0052836	-0.111830935
1277225599481	0.23154591	5.284695	7.8589406	-0.33328915	0.0	15.5625	-28.4375	-50.75	-1.2632097	0.97836065	-0.04378642
1277225599514	0.08172209	5.5571017	7.668256	-0.33615875	0.0	15.3125	-28.1875	-51.0	-1.136682	0.94364053	-0.014704823
1277225599551	-0.08172209	6.0882955	7.8589406	0.13502789	0.0	15.5625	-28.4375	-51.25	-1.0481128	0.9116321	0.013422012
1277225599581	-0.14982383	6.66035	8.430995	0.9387846	0.0	15.8125	-28.1875	-50.5	-1.039392	0.90206975	0.022491096
1277225599621	-0.29964766	6.3198414	8.076866	0.453269	0.0	15.0625	-28.4375	-50.25	-1.0387375	0.9062962	0.047378317
1277225599661	0.14982383	6.238119	7.7772183	0.16439342	0.0	14.75	-28.1875	-50.25	-1.0073426	0.8946344	-0.024012852
1277225599701	1.0760075	5.829509	7.5456724	-0.21091461	0.0	14.25	-27.4375	-50.25	-1.0126213	0.90488946	-0.1825251
1277225599741	1.3075534	5.284695	7.4639506	-0.56823826	0.0	14.5	-27.1875	-50.75	-1.0655583	0.9406235	-0.24255148
1277225599801	1.0351465	4.7126403	8.158588	-0.32809162	0.0	14.75	-26.6875	-51.0	-1.2698362	1.0367244	-0.21621948
1277225599841	0.88532263	4.2904096	8.580819	-0.1722393	0.0	15.0625	-25.9375	-51.5	-1.3973033	1.098757	-0.20349304
1277225599881	0.61291564	4.140586	8.853226	-0.013809204	0.0	14.75	-25.4375	-52.0	-1.4928906	1.1291538	-0.14695913
1277225599921	0.9942854	4.2495484	9.343558	0.50593185	0.0	14.0	-24.4375	-52.25	-1.3933429	1.1338186	-0.22983979
1277225599961	1.4165162	4.4810944	9.384419	0.68877983	0.0	13.5	-23.4375	-52.5	-1.2257849	1.1065146	-0.30616978
1277225600001	1.4573772	4.440233	8.580819	-0.03577137	0.0	12.5	-23.6875	-52.75	-1.1385131	1.0720928	-0.3171423
1277225600031	1.1168685	4.5219555	7.8589406	-0.67109203	0.0	12.0	-24.4375	-52.25	-1.1093749	1.0357763	-0.24214178
1277225600071	0.9942854	4.862464	7.3549876	-0.9337702	0.0	12.25	-25.9375	-52.5	-1.0296432	0.97719026	-0.20170125
1277225600111	0.9942854	5.8567495	7.6273947	-0.13880253	0.0	12.5	-27.1875	-52.0	-0.9349123	0.9090892	-0.16816412
1277225600141	0.9942854	6.4015636	7.8180795	0.3467226	0.0	12.25	-29.1875	-50.75	-0.9596129	0.8788384	-0.15408795
1277225600181	0.7627395	6.2789803	7.7363577	0.18627739	0.0	12.5	-30.4375	-50.25	-1.0334226	0.88542384	-0.12088279
1277225600221	0.7218784	5.938472	7.8589406	0.070064545	0.0	12.25	-31.6875	-48.75	-1.2297083	0.92016894	-0.12096613
1277225600261	0.92618364	5.938472	7.9679036	0.17386818	0.0	12.25	-33.4375	-47.75	-1.3492848	0.9245431	-0.15471686
1277225600301	1.1849703	6.2108784	7.6954966	0.15326118	0.0	13.0	-33.6875	-47.5	-1.2439263	0.8830004	-0.18852381
1277225600341	1.3075534	6.5922484	7.3958488	0.18664837	0.0	13.0	-34.1875	-47.25	-1.1437104	0.83319056	-0.19580574
1277225600371	1.2666923	6.851035	7.4639506	0.40372467	0.0	13.0	-34.1875	-47.5	-1.1044031	0.81981015	-0.18282603
1277225600401	1.0760075	6.6331096	7.3549876	0.15586853	0.0	12.75	-33.9375	-47.5	-1.115844	0.8304958	-0.1608168
1277225600441	0.7627395	6.1700177	7.014479	-0.43361378	0.0	12.75	-34.1875	-47.75	-1.154413	0.8455979	-0.12299629
1277225600481	0.7627395	6.2108784	6.851035	-0.52799416	0.0	12.75	-34.6875	-47.75	-1.1317227	0.83064276	-0.12219517
1277225600514	0.84446156	6.2789803	7.273266	-0.16097164	0.0	12.75	-35.4375	-47.25	-1.2466204	0.8541974	-0.13368806
1277225600551	1.0760075	6.3607025	7.273266	-0.08467865	0.0	12.75	-35.6875	-47.25	-1.2276013	0.84523433	-0.16757838
1277225600581	1.334794	6.4015636	7.082581	-0.16690731	0.0	12.25	-35.9375	-46.75	-1.1915741	0.8252644	-0.2055653
1277225600611	1.3756552	6.4015636	7.164303	-0.100997925	0.0	12.0	-35.1875	-46.75	-1.1743603	0.83033556	-0.21167448
1277225600641	1.334794	6.4424243	7.164303	-0.07969093	0.0	12.0	-34.4375	-47.5	-1.119342	0.8279419	-0.2042976
1277225600681	1.1168685	6.3607025	6.891896	-0.36185455	0.0	11.5	-34.4375	-47.25	-1.0902866	0.8178875	-0.17381696
1277225600721	0.9942854	6.3607025	6.891896	-0.37556553	0.0	12.25	-33.9375	-47.5	-1.0784001	0.81944025	-0.15506205
1277225600761	0.95342433	6.4015636	6.973618	-0.29242992	0.0	12.75	-34.1875	-47.75	-1.095847	0.8226746	-0.14784937
1277225600811	0.7627395	6.3198414	7.0553403	-0.30401897	0.0	12.75	-34.1875	-47.0	-1.1539419	0.83673775	-0.12010873
1277225600851	0.84446156	6.2108784	7.246025	-0.2257843	0.0	13.5	-34.4375	-47.75	-1.2095547	0.8576415	-0.13513625
1277225600881	0.7627395	6.2108784	7.3141265	-0.18099499	0.0	13.25	-34.6875	-47.5	-1.2411772	0.8630939	-0.12219518
1277225600921	0.6946377	6.4424243	7.273266	-0.06561661	0.0	13.25	-34.6875	-47.75	-1.1742413	0.84303075	-0.107407466
1277225600961	0.84446156	6.782933	7.205164	0.124899864	0.0	13.25	-34.9375	-48.75	-1.0687749	0.811735	-0.12386067
1277225600991	0.88532263	7.1234417	7.246025	0.39296246	0.0	13.0	-34.4375	-48.25	-1.0079995	0.7900971	-0.12364896
1277225601021	0.8036005	7.246025	7.082581	0.35768032	0.0	13.0	-34.6875	-48.5	-0.958417	0.7709368	-0.1104509
1277225601091	0.95342433	6.701211	7.246025	0.109000206	0.0	13.25	-34.9375	-47.5	-1.1299065	0.8194441	-0.1413279
1277225601121	0.9942854	6.2108784	7.273266	-0.19082928	0.0	13.5	-35.1875	-47.0	-1.259568	0.85776937	-0.1587408
1277225601151	1.1168685	5.9793324	7.43671	-0.1991291	0.0	13.25	-35.4375	-47.5	-1.3205445	0.8852146	-0.1846602
1277225601191	1.1168685	5.938472	7.3958488	-0.25618362	0.0	13.0	-34.9375	-47.25	-1.3083712	0.88576084	-0.1859018
1277225601221	0.95342433	5.938472	7.205164	-0.4210844	0.0	12.75	-34.4375	-47.5	-1.255441	0.8752218	-0.15919192
1277225601251	0.95342433	6.0201936	6.891896	-0.6061077	0.0	13.0	-34.4375	-47.0	-1.1954744	0.8466646	-0.15706657
1277225601281	0.9942854	6.3607025	6.66035	-0.54342175	0.0	13.5	-34.4375	-46.5	-1.1060985	0.8023762	-0.15506206
1277225601321	1.0760075	6.973618	6.891896	0.056785583	0.0	13.75	-35.1875	-46.0	-1.0823057	0.77362317	-0.1530896
1277225601361	1.0351465	7.3549876	7.0553403	0.43762684	0.0	13.5	-36.1875	-46.0	-1.0745826	0.75970894	-0.13982238
1277225601391	1.0351465	7.205164	7.1234417	0.37810993	0.0	13.0	-36.9375	-45.5	-1.1440179	0.7745879	-0.14269093
1277225601431	0.84446156	7.3549876	6.8237944	0.26177216	0.0	13.25	-37.1875	-45.0	-1.0902379	0.7446877	-0.11431425
1277225601471	0.8036005	7.1234417	6.701211	0.0063734055	0.0	13.25	-37.75	-44.5	-1.1442815	0.7517108	-0.11233578
1277225601501	0.88532263	7.0553403	6.510526	-0.16566563	0.0	13.25	-38.5	-43.5	-1.1795485	0.7413671	-0.124830164
1277225601531	0.95342433	7.1234417	6.0474343	-0.4138918	0.0	13.25	-39.75	-43.25	-1.1222396	0.6995064	-0.13305247
1277225601561	0.95342433	7.082581	5.8567495	-0.5668726	0.0	12.25	-41.25	-42.5	-1.1453729	0.6865371	-0.13381097
1277225601591	0.95342433	6.851035	5.5571017	-0.9338217	0.0	11.5	-42.0	-43.0	-1.113166	0.6768051	-0.1382769
1277225601621	1.0351465	6.8237944	5.706926	-0.8509426	0.0	11.75	-41.75	-43.25	-1.1430668	0.6909103	-0.1505488
1277225601651	1.0351465	7.0553403	5.938472	-0.526844	0.0	11.25	-41.0	-43.25	-1.1175548	0.69441354	-0.14567877
1277225601691	0.84446156	7.082581	6.238119	-0.33088112	0.0	11.25	-39.75	-44.0	-1.1034071	0.71858907	-0.11867054
1277225601721	0.88532263	7.164303	6.3198414	-0.21230698	0.0	11.5	-39.0	-43.75	-1.0947342	0.7190963	-0.12295084
1277225601751	1.0351465	7.205164	6.510526	-0.04074669	0.0	11.0	-39.25	-44.0	-1.1216562	0.7297172	-0.14269093
1277225601781	1.1849703	7.164303	6.742072	0.10228157	0.0	11.25	-38.75	-44.5	-1.1475607	0.7483131	-0.16391525
1277225601811	1.1849703	7.205164	6.782933	0.15962887	0.0	12.5	-39.0	-44.5	-1.1752405	0.7485653	-0.1630021
1277225601851	1.0760075	7.014479	6.66035	-0.0741806	0.0	12.75	-39.0	-44.5	-1.1910622	0.7537026	-0.15221158
1277225601891	0.8036005	6.66035	6.701211	-0.32444286	0.0	13.0	-38.5	-44.75	-1.253722	0.78484315	-0.12007398
1277225601931	0.19068487	6.4015636	6.782933	-0.4779539	0.0	13.5	-38.25	-44.75	-1.3545254	0.81409425	-0.029778428
1277225601971	0.10896278	6.891896	6.742072	-0.16478157	0.0	12.75	-38.0	-44.75	-1.1759146	0.77434725	-0.015808959
1277225602001	0.8036005	7.3549876	6.932757	0.3326168	0.0	13.0	-38.25	-45.25	-1.133371	0.7528938	-0.108827576
1277225602031	1.3756552	7.6273947	6.742072	0.46589184	0.0	13.0	-37.75	-45.0	-1.0538167	0.71593046	-0.17843887
1277225602071	1.4165162	7.504812	6.5922484	0.2822771	0.0	13.0	-37.75	-45.5	-1.0335443	0.71208596	-0.18655303
1277225602111	1.0760075	7.3141265	6.469665	0.01734066	0.0	13.25	-37.75	-45.5	-1.0402228	0.71890056	-0.14606588
1277225602141	0.6946377	7.082581	6.4015636	-0.2345295	0.0	12.75	-37.75	-45.5	-1.0434927	0.7325555	-0.09776425
1277225602181	0.61291564	6.66035	6.0882955	-0.76213455	0.0	12.75	-38.0	-45.5	-1.0649257	0.73845714	-0.09176609
1277225602221	1.0351465	6.510526	6.2789803	-0.70258045	0.0	12.0	-38.25	-45.0	-1.1575224	0.76106	-0.157676
1277225602261	1.3756552	6.510526	6.3198414	-0.6295166	0.0	12.0	-38.5	-45.0	-1.1678606	0.7596268	-0.20823416
1277225602291	1.2666923	6.469665	6.2108784	-0.74927235	0.0	12.25	-37.75	-44.75	-1.1432871	0.7556005	-0.1933437
1277225602331	1.0760075	6.4424243	6.4424243	-0.6323681	0.0	12.5	-37.4375	-45.5	-1.1667087	0.77852005	-0.1654915
1277225602361	0.7218784	6.742072	7.1234417	0.027985573	0.0	12.75	-36.9375	-46.0	-1.2190582	0.8100503	-0.106664345
1277225602391	0.3405087	6.701211	7.3958488	0.17937756	0.0	12.5	-35.9375	-46.75	-1.2160028	0.8339921	-0.050769344
1277225602431	0.5720546	6.4424243	7.8861814	0.3925619	0.0	12.25	-34.6875	-48.5	-1.2615932	0.88389504	-0.08856266
1277225602471	0.38136974	6.0474343	9.466142	1.4327784	0.0	12.25	-32.4375	-49.5	-1.565859	1.0013993	-0.06297966
1277225602501	0.61291564	5.47538	8.430995	0.2649498	0.0	13.25	-29.1875	-51.0	-1.2834134	0.99197096	-0.11147621
1277225602531	0.95342433	4.7943625	8.19945	-0.26066113	0.0	13.5	-25.9375	-53.0	-1.1794671	1.0331998	-0.19630265
1277225602571	0.92618364	4.2904096	8.430995	-0.30154037	0.0	14.0	-22.6875	-53.25	-1.1832856	1.0907989	-0.21261047
1277225602601	0.8036005	4.671779	8.499097	-0.074952126	0.0	13.75	-21.1875	-53.5	-1.0488391	1.0620208	-0.17034465
1277225602631	0.84446156	5.2165933	7.8589406	-0.33622742	0.0	13.25	-21.1875	-53.25	-0.86213446	0.9788219	-0.16048768
1277225602671	0.84446156	5.6252036	7.6273947	-0.29175758	0.0	13.0	-22.1875	-52.0	-0.820802	0.93001175	-0.14900835
1277225602711	1.0760075	6.0201936	7.9270425	0.20526886	0.0	12.5	-25.1875	-51.5	-0.889586	0.9136858	-0.17686547
1277225602751	1.1441092	6.238119	7.7772183	0.22869968	0.0	12.25	-28.4375	-50.25	-0.969215	0.88668704	-0.1813902
1277225602791	1.1849703	6.3607025	7.5456724	0.13316154	0.0	11.75	-31.9375	-48.75	-1.0696551	0.86198527	-0.1841841
1277225602831	1.4165162	6.0882955	7.0553403	-0.38053322	0.0	11.5	-34.9375	-47.5	-1.1753718	0.84577984	-0.22859535
1277225602871	1.4165162	6.3198414	7.164303	-0.14879513	0.0	11.5	-37.1875	-46.0	-1.2798562	0.83576685	-0.22049376
1277225602911	1.3075534	6.3198414	6.742072	-0.47361088	0.0	11.0	-38.25	-45.25	-1.2652789	0.80724895	-0.20401798
1277225602951	1.2258313	6.3198414	6.469665	-0.67978764	0.0	10.75	-39.0	-45.0	-1.2461026	0.78788024	-0.1915865
1277225602981	1.334794	6.5922484	6.238119	-0.63312626	0.0	10.5	-39.75	-44.75	-1.168534	0.7477809	-0.19977838
1277225603011	1.4573772	7.014479	6.2108784	-0.32499027	0.0	9.5	-39.75	-45.0	-1.058683	0.7142373	-0.20485255
1277225603051	1.3756552	7.3141265	6.238119	-0.095677376	0.0	9.5	-40.0	-45.25	-1.0079756	0.6975976	-0.18591008
1277225603091	1.2258313	7.3549876	6.3607025	-0.00578022	0.0	8.75	-39.75	-45.25	-0.9918657	0.706261	-0.16514868
1277225603121	1.1849703	7.164303	6.6331096	0.028467178	0.0	8.0	-39.25	-45.0	-1.0612485	0.7401941	-0.16391525
1277225603151	1.3075534	6.851035	6.469665	-0.2933464	0.0	8.5	-39.0	-44.75	-1.1066583	0.7478513	-0.18858692
1277225603191	1.4573772	6.701211	6.469665	-0.37867355	0.0	8.25	-38.75	-44.5	-1.1350005	0.7562795	-0.21414505
1277225603231	1.56634	6.973618	6.4424243	-0.18430138	0.0	8.25	-39.0	-44.25	-1.0926081	0.73357207	-0.2209426
1277225603271	1.4982382	7.164303	6.1700177	-0.23371601	0.0	8.5	-39.5	-44.75	-1.0050745	0.7004049	-0.20615447
1277225603311	1.4573772	7.3958488	6.0882955	-0.11697197	0.0	8.5	-40.0	-44.75	-0.96276	0.67940205	-0.1945607
1277225603351	1.3756552	7.246025	6.238119	-0.14686584	0.0	9.0	-40.25	-44.25	-1.0520772	0.70204765	-0.18761681
1277225603381	1.2258313	7.0553403	5.938472	-0.50364304	0.0	9.5	-40.5	-44.75	-1.0197076	0.69233847	-0.17202787
1277225603421	1.4982382	6.932757	6.1700177	-0.40574837	0.0	9.75	-40.75	-44.5	-1.119771	0.7159333	-0.21283689
1277225603461	1.4982382	6.973618	5.9793324	-0.49920845	0.0	10.25	-40.75	-44.25	-1.0897006	0.69765836	-0.21162678
1277225603491	1.6480621	7.246025	6.0201936	-0.24298382	0.0	10.25	-41.5	-44.25	-1.0767362	0.68089145	-0.22363909
1277225603521	1.6480621	7.43671	6.0201936	-0.09771156	0.0	10.5	-42.25	-43.0	-1.1124978	0.66882825	-0.2180871
1277225603551	1.4165162	7.668256	6.238119	0.1794796	0.0	10.75	-42.75	-41.5	-1.1888313	0.6747196	-0.18266556
1277225603591	1.8387469	7.5865335	6.782933	0.53475475	0.0	10.5	-43.75	-40.25	-1.3727146	0.715375	-0.23778453
1277225603621	1.9885708	6.973618	7.7772183	0.8268299	0.0	10.5	-44.0	-39.75	-1.6488596	0.8203576	-0.27778366
1277225603651	0.7627395	6.973618	5.9793324	-0.58897495	0.0	11.0	-43.25	-40.25	-1.3494222	0.70585024	-0.10894196
1277225603691	0.3405087	6.5922484	5.7477865	-1.053894	0.0	12.0	-42.0	-41.75	-1.2726223	0.71641207	-0.051607028
1277225603731	0.08172209	6.469665	5.9793324	-0.9966755	0.0	13.25	-39.5	-43.75	-1.1941463	0.7459914	-0.012630908
1277225603771	-0.0	6.891896	6.891896	-0.060037613	0.0	14.5	-36.9375	-45.25	-1.1856717	0.7853981	0.0
1277225603811	-0.19068487	7.3958488	6.973618	0.36027145	0.0	15.5625	-34.9375	-46.5	-0.99063534	0.7558568	0.025776979
1277225603851	-0.27240697	7.5865335	6.66035	0.29235744	0.0	16.3125	-33.6875	-46.75	-0.8770164	0.72016054	0.035891224
1277225603891	-0.6946377	7.8589406	5.938472	0.06811142	0.0	16.8125	-34.1875	-46.0	-0.7289604	0.64522564	0.088159114
1277225603931	-0.88532263	7.8861814	5.407278	-0.20382214	0.0	17.5625	-35.4375	-44.75	-0.69936097	0.5981229	0.11179445
1277225603971	-0.5720546	8.240311	4.8216033	-0.24224663	0.0	18.8125	-37.4375	-42.0	-0.76678663	0.5283622	0.06931029
1277225604011	-0.6946377	8.158588	4.099725	-0.64953136	0.0	19.3125	-40.25	-39.0	-0.7742816	0.4642016	0.08493706
1277225604041	-0.95342433	8.730643	3.990762	-0.15992355	0.0	20.5625	-42.5	-35.9375	-0.8354659	0.42650428	0.10877333
1277225604081	-0.95342433	8.730643	3.8681788	-0.20998669	0.0	21.0625	-45.0	-32.9375	-0.9620187	0.41487482	0.108773336
1277225604121	-0.7218784	9.00305	3.5957718	-0.08525181	0.0	20.8125	-46.25	-31.4375	-0.9757593	0.3788822	0.08001037
1277225604161	-0.6537767	8.921328	3.568531	-0.17586994	0.0	20.3125	-47.5	-30.6875	-1.0161413	0.37958384	0.073151685
1277225604201	-0.6946377	8.689782	3.405087	-0.44772625	0.0	19.5625	-48.5	-30.6875	-0.9826349	0.37237984	0.07976768
1277225604241	-0.50395286	8.812365	3.6774938	-0.24444866	0.0	19.5625	-48.75	-30.9375	-1.0588528	0.39475983	0.0571248
1277225604281	-0.46309182	8.853226	3.568531	-0.25005722	0.0	19.0625	-49.25	-30.6875	-1.0370005	0.38268265	0.052260067
1277225604321	-0.53119355	8.771504	3.0645783	-0.50003433	0.0	19.5625	-48.75	-30.1875	-0.94070435	0.33555186	0.060485136
1277225604361	-0.6537767	8.921328	3.1463003	-0.3242073	0.0	19.3125	-49.0	-29.6875	-0.94538206	0.33821392	0.07315168
1277225604391	-0.5720546	8.730643	2.7240696	-0.64303017	0.0	19.3125	-49.25	-28.4375	-0.9221701	0.30183214	0.0654291
1277225604431	-0.3405087	8.580819	3.3778462	-0.57863617	0.0	19.5625	-50.0	-27.1875	-1.2049439	0.3747529	0.03966173
1277225604471	-0.08172209	8.662541	3.5957718	-0.42710495	0.0	20.0625	-50.75	-26.4375	-1.3260803	0.39343488	0.009433682
1277225604501	-0.29964766	8.812365	2.6832085	-0.58997154	0.0	20.3125	-50.5	-25.9375	-1.0805068	0.29540288	0.03399
1277225604541	-0.14982383	9.234595	2.982856	-0.10110378	0.0	19.8125	-50.5	-26.9375	-1.0854322	0.31239143	0.016222766
1277225604571	-0.14982383	9.615966	3.568531	0.4512081	0.0	19.8125	-50.25	-28.1875	-1.1358489	0.35531175	0.015579476
1277225604611	-0.3405087	9.80665	3.8273177	0.7259035	0.0	19.0625	-50.0	-29.1875	-1.100891	0.3718932	0.034708276
1277225604641	-0.7218784	9.425281	3.9499009	0.43828678	0.0	18.5625	-49.5	-29.6875	-1.0828539	0.39580017	0.076440364
1277225604681	-1.0760075	8.853226	3.568531	-0.20082855	0.0	18.3125	-49.25	-29.9375	-0.94670653	0.38062057	0.12094528
1277225604721	-0.6537767	8.894087	3.6774938	-0.16008759	0.0	17.5625	-49.0	-29.4375	-1.0442148	0.3911191	0.07337493
1277225604761	0.23154591	8.771504	4.2495484	-0.057210922	0.0	17.3125	-49.25	-29.4375	-1.296595	0.4510116	-0.026391385
1277225604801	0.38136974	8.499097	4.2086873	-0.31490993	0.0	17.3125	-49.75	-29.9375	-1.3133636	0.45939422	-0.044841714
1277225604841	0.46309182	8.049625	4.0180025	-0.798028	0.0	17.5625	-50.0	-30.1875	-1.3210694	0.46231073	-0.05746627
1277225604881	0.8036005	7.5865335	4.2495484	-1.0739565	0.0	17.8125	-50.0	-31.6875	-1.3816295	0.50822246	-0.105531074
1277225604931	1.0351465	7.668256	4.2086873	-0.9983177	0.0	17.3125	-49.5	-32.1875	-1.3258731	0.4981572	-0.13418001
1277225604971	0.6946377	8.539958	4.099725	-0.30816936	0.0	17.0625	-49.25	-31.9375	-1.1977195	0.44628683	-0.08116103
1277225605001	0.313268	9.302697	4.372132	0.4770193	0.0	17.0625	-48.25	-31.9375	-1.1370903	0.43913078	-0.033662245
1277225605041	-0.10896278	9.466142	4.630918	0.7320938	0.0	17.3125	-47.5	-31.9375	-1.1387417	0.45495108	0.011510283
1277225605081	-0.84446156	8.771504	4.4810944	0.079330444	0.0	17.8125	-47.0	-32.4375	-1.0879338	0.47043905	0.09597749
1277225605121	-0.95342433	8.076866	4.2086873	-0.64925766	0.0	17.8125	-46.5	-33.1875	-1.0334954	0.4775386	0.117500104
1277225605151	-0.61291564	7.9270425	3.8273177	-0.98270416	0.0	17.3125	-46.5	-33.9375	-0.94465166	0.44864187	0.07716605
1277225605191	-0.50395286	8.308413	3.5957718	-0.7394972	0.0	17.0625	-47.0	-34.1875	-0.8536647	0.40777877	0.06058151
1277225605231	-0.50395286	8.812365	3.486809	-0.31615067	0.0	17.3125	-47.25	-34.1875	-0.80228597	0.3762119	0.0571248
1277225605271	-0.53119355	9.425281	3.9090397	0.41091633	0.0	18.0625	-47.25	-34.4375	-0.85465497	0.39258745	0.056298826
1277225605311	-0.53119355	9.466142	5.325556	1.0677023	0.0	18.5625	-47.25	-34.1875	-1.1990194	0.5117863	0.05605632
1277225605351	-1.0760075	8.158588	3.990762	-0.66080284	0.0	19.5625	-46.25	-34.1875	-0.9454269	0.4515346	0.13112968
1277225605381	-0.95342433	8.349273	3.8273177	-0.57259655	0.0	20.0625	-45.5	-34.1875	-0.91212654	0.4273698	0.1137
1277225605421	-0.50395286	8.962189	3.9499009	3.118515E-4	0.0	20.8125	-45.75	-32.9375	-1.0162436	0.41453567	0.056171846
1277225605461	-0.14982383	8.894087	4.399372	0.117144585	0.0	21.8125	-45.75	-32.1875	-1.190513	0.45929414	0.016843736
1277225605501	-0.0	8.349273	5.407278	0.14066124	0.0	22.0625	-46.75	-30.9375	-1.5456703	0.5747106	0.0
1277225605541	0.10896278	10.079058	4.862464	1.3845444	0.0	22.3125	-47.75	-30.9375	-1.2643143	0.44947216	-0.010810389
1277225605571	-0.27240697	8.771504	6.5922484	1.1692886	0.0	20.3125	-46.25	-34.4375	-1.6030753	0.6442627	0.031045923
1277225605611	-0.53119355	6.238119	8.962189	1.1257381	0.0	17.5625	-42.5	-39.0	-2.3456187	0.96103245	0.08494792
1277225605641	-1.1168685	5.597963	4.2086873	-2.7145681	0.0	15.3125	-35.6875	-45.0	-0.5312429	0.6353194	0.19692762
1277225605681	-0.38136974	4.440233	5.284695	-2.893683	0.0	12.75	-27.9375	-50.5	-0.7791128	0.87020516	0.0856793
1277225605721	-0.38136974	6.0474343	8.771504	0.85431576	0.0	12.25	-22.9375	-53.0	-0.7913352	0.96626437	0.06297966
1277225605761	-0.38136974	6.5922484	9.112013	1.4464369	0.0	12.5	-21.4375	-54.5	-0.6742259	0.94369954	0.057786826
1277225605801	-0.3405087	5.829509	6.973618	-0.7110214	0.0	12.5	-21.6875	-54.5	-0.56140727	0.87368494	0.058344923
1277225605841	-0.6537767	5.175732	6.5922484	-1.3999043	0.0	13.5	-22.6875	-53.75	-0.6330488	0.9013442	0.12565033
1277225605881	-0.61291564	5.47538	7.668256	-0.3643198	0.0	14.0	-23.4375	-53.75	-0.79088527	0.9477673	0.11147622
1277225605911	-0.53119355	5.47538	8.008764	-0.09056759	0.0	14.5	-22.4375	-53.25	-0.8587294	0.9689279	0.09671226
1277225605951	-0.5720546	5.407278	7.8861814	-0.22762299	0.0	14.75	-22.4375	-53.25	-0.8607541	0.967158	0.105401404
1277225605981	-0.5720546	5.053149	7.7363577	-0.5485296	0.0	15.0625	-22.4375	-53.5	-0.9268468	0.9892776	0.11272761
1277225606011	-0.61291564	4.944186	8.240311	-0.1773529	0.0	15.5625	-21.6875	-54.0	-1.0180172	1.0270067	0.12333769
1277225606041	-0.8036005	4.671779	8.771504	0.16383553	0.0	16.3125	-20.9375	-54.0	-1.1849903	1.0753298	0.17034467
1277225606081	-1.56634	4.5628166	9.275456	0.6483393	0.0	17.3125	-19.4375	-54.0	-1.2255217	1.0911969	0.33067885
1277225606121	-2.3018389	4.5219555	8.921328	0.45671368	0.0	18.0625	-16.4375	-54.25	-0.8923514	1.0536633	0.47085038
1277225606161	-2.1792557	3.7864566	9.234595	0.40922737	0.0	18.5625	-12.125	-54.25	-1.08271	1.1289072	0.5222397
1277225606201	-2.2201166	3.636633	11.223166	2.1980772	0.0	18.3125	-7.625	-55.25	-1.194616	1.2079648	0.5480948
1277225606241	-2.4108016	3.759216	12.299174	3.278202	0.0	17.3125	-3.625	-55.75	-1.0418367	1.2224989	0.570238
1277225606281	-2.7921712	5.053149	13.0619135	4.474251	0.0	15.3125	-1.375	-56.25	-0.70845765	1.1546218	0.504807
1277225606321	-1.9885708	5.5162406	12.299174	3.8188047	0.0	13.25	-1.625	-56.5	-0.562946	1.1259147	0.34599268
1277225606361	-2.2609777	7.3549876	11.495573	4.0264997	0.0	11.75	-5.375	-56.0	-0.38220856	0.98093224	0.29823864
1277225606401	-1.9477097	7.273266	7.3141265	0.6905117	0.0	11.25	-11.625	-54.5	-0.26259762	0.7708871	0.2616511
1277225606441	-1.7570249	7.668256	2.5333846	-1.5418262	0.0	11.5	-19.9375	-52.0	-0.15674405	0.31154135	0.22524163
1277225606481	-1.334794	6.701211	1.7978859	-2.7412205	0.0	13.25	-29.1875	-47.0	-0.19203027	0.25729173	0.1966137
1277225606523	-0.040861044	4.8216033	-0.6537767	-4.9407535	0.0	15.8125	-36.9375	-41.5	-0.32430118	-0.1347665	0.008474373
1277225606561	1.8387469	1.4982382	-2.1383946	-6.6131506	0.0	16.8125	-42.5	-38.0	-0.860472	-0.73368156	-0.887087
1277225606591	0.5720546	1.56634	1.7570249	-7.3842955	0.0	16.0625	-45.0	-36.9375	-1.6112348	0.81152457	-0.3501667
1277225606631	0.38136974	2.152015	7.8180795	-1.6888313	0.0	11.75	-42.75	-40.75	-2.5378683	1.2982045	-0.17539422
1277225606671	0.9942854	2.4516625	12.830367	3.2936392	0.0	4.4375	-36.4375	-46.5	-2.4621923	1.3674474	-0.38528648
1277225606711	4.944186	-0.84446156	9.425281	0.8701477	0.0	-2.0625	-28.9375	-52.0	-0.8200901	1.0817506	-1.7399628
1277225606751	9.00305	5.407278	13.33432	7.16679	0.0	-6.375	-24.4375	-55.25	-0.7233635	0.9036638	-1.029932
1277225606781	5.7477865	7.8861814	11.958665	5.6283283	0.0	-6.875	-22.6875	-56.0	-0.40797135	0.8863621	-0.62982243
1277225606811	4.671779	7.8861814	9.084772	3.098793	0.0	-4.8125	-23.9375	-55.75	-0.33208457	0.7809422	-0.534813
1277225606851	4.630918	5.938472	7.504812	0.82505035	0.0	-2.3125	-27.1875	-54.75	-0.5818576	0.78367895	-0.6623122
1277225606892	4.0588636	4.0588636	6.66035	-1.0140963	0.0	-0.5625	-29.1875	-54.0	-0.8087219	0.85947347	-0.7853982
1277225606931	2.4925237	4.140586	6.1291566	-2.001288	0.0	-0.3125	-30.6875	-53.0	-0.912031	0.90309894	-0.54186946
1277225606971	1.1849703	4.903325	6.701211	-1.4189816	0.0	0.4375	-32.9375	-52.25	-0.942709	0.9255241	-0.23712027
1277225607011	0.7218784	6.8237944	7.5865335	0.42275715	0.0	1.1875	-33.9375	-51.25	-0.46622944	0.8355113	-0.10539642
1277225607041	1.1168685	7.246025	7.082581	0.38723183	0.0	2.6875	-33.9375	-50.75	-0.52599317	0.76812434	-0.15293181
1277225607081	1.1849703	6.701211	6.782933	-0.19839478	0.0	3.9375	-34.9375	-50.75	-0.6870759	0.7837614	-0.17502002
1277225607121	1.2666923	6.238119	6.932757	-0.39486217	0.0	4.9375	-34.9375	-50.25	-0.8931798	0.82803464	-0.20033301
1277225607151	0.61291564	6.66035	7.273266	0.074459076	0.0	5.5	-34.9375	-50.5	-0.7702313	0.82725763	-0.09176608
1277225607191	0.23154591	6.782933	8.076866	0.7431154	0.0	6.0	-34.4375	-50.75	-0.8378963	0.87196845	-0.034123294
1277225607231	0.6946377	6.1700177	7.7363577	0.11317158	0.0	7.0	-32.9375	-51.25	-0.9783337	0.89448816	-0.1121107
1277225607271	0.46309182	6.2789803	8.308413	0.6178293	0.0	7.5	-31.9375	-52.0	-0.98931324	0.922328	-0.07361942
1277225607311	0.61291564	5.7886477	7.668256	-0.17928028	0.0	8.0	-30.9375	-52.5	-0.9564879	0.9214939	-0.105489306
1277225607341	0.6537767	6.3607025	7.8861814	0.34607506	0.0	8.0	-30.4375	-52.75	-0.819543	0.88949716	-0.10242405
1277225607371	0.5720546	6.3607025	7.5456724	0.07884216	0.0	8.5	-30.9375	-52.5	-0.79705316	0.86841774	-0.089694455
1277225607401	0.46309182	6.2108784	7.43671	-0.10643768	0.0	9.0	-31.1875	-52.0	-0.84330505	0.87361395	-0.07442369
1277225607441	0.19068487	5.9793324	6.932757	-0.6495819	0.0	10.25	-31.6875	-51.25	-0.8568615	0.85885274	-0.03187986
1277225607481	-0.14982383	6.510526	7.5865335	0.19159412	0.0	11.5	-32.4375	-50.5	-0.9259723	0.86144817	0.023008492
1277225607511	0.10896278	6.0882955	7.273266	-0.32089233	0.0	12.5	-32.4375	-50.0	-1.0558484	0.873773	-0.017895183
1277225607541	0.53119355	5.706926	6.66035	-1.0196466	0.0	13.5	-32.1875	-50.5	-1.0420452	0.86020666	-0.09281134
1277225607571	0.53119355	5.7477865	6.8237944	-0.86889935	0.0	13.5	-31.6875	-50.75	-1.0385488	0.8686846	-0.09215529
1277225607611	0.53119355	6.2789803	7.3141265	-0.15241718	0.0	13.5	-31.9375	-50.75	-1.0217382	0.859641	-0.08439773
1277225607641	0.10896278	6.5513873	7.3549876	0.04364872	0.0	13.0	-31.9375	-51.25	-0.91503483	0.8430518	-0.016630484
1277225607671	-0.10896278	6.6331096	7.164303	-0.042571068	0.0	13.5	-32.6875	-50.5	-0.90560454	0.8238114	0.016425626
1277225607711	-0.29964766	6.5922484	7.164303	-0.06628227	0.0	14.0	-33.1875	-50.5	-0.92719907	0.8264441	0.045423277
1277225607751	-0.42223078	6.5513873	6.932757	-0.25876713	0.0	14.5	-32.9375	-50.25	-0.88985705	0.81263876	0.06436005
1277225607781	-0.42223078	6.4015636	7.014479	-0.30079842	0.0	14.75	-32.6875	-50.0	-0.95138454	0.82997084	0.065862045
1277225607811	-0.38136974	6.4424243	7.164303	-0.1641655	0.0	14.25	-31.6875	-50.25	-0.91499126	0.8375318	0.059127618
1277225607851	-0.19068487	6.3607025	7.43671	-0.018925667	0.0	14.0	-31.4375	-50.25	-0.99482054	0.8630049	0.029969612
1277225607891	-0.040861044	6.469665	7.7363577	0.27846146	0.0	13.75	-31.6875	-50.75	-1.0274775	0.87431896	0.006315706
1277225607931	-0.0	6.3198414	7.504812	0.0047006607	0.0	14.25	-31.6875	-50.75	-1.035461	0.87090343	0.0
1277225607971	0.040861044	6.469665	7.504812	0.10195351	0.0	14.0	-32.1875	-50.75	-1.0147978	0.8593274	-0.006315706
1277225608001	-0.0	6.4015636	7.3958488	-0.02510643	0.0	14.0	-32.6875	-50.5	-1.0338085	0.85733694	0.0
1277225608041	-0.040861044	6.3607025	7.205164	-0.1954794	0.0	14.0	-32.6875	-50.25	-1.0087574	0.8475567	0.006423894
1277225608081	-0.08172209	6.2108784	6.891896	-0.5287237	0.0	13.5	-33.1875	-50.25	-0.97483194	0.83728343	0.013157136
1277225608121	-0.14982383	6.0474343	6.851035	-0.66714287	0.0	14.0	-33.1875	-50.0	-1.0270305	0.84746754	0.024769709
1277225608151	-0.3405087	6.2108784	7.273266	-0.23631287	0.0	14.5	-32.6875	-49.75	-1.0710983	0.86328244	0.054769732
1277225608191	-0.6946377	6.469665	7.43671	0.07483482	0.0	14.5	-32.6875	-49.75	-1.0710983	0.86328244	0.054769732
1277225608231	-1.1849703	6.851035	7.5456724	0.45385742	0.0	15.0625	-31.9375	-49.75	-0.82512486	0.82627046	0.17126776
1277225608271	-1.4573772	6.782933	7.273266	0.24484348	0.0	15.5625	-31.9375	-49.75	-0.736669	0.8090046	0.2116418
1277225608311	-0.95342433	6.742072	6.8237944	-0.1666956	0.0	15.5625	-31.9375	-50.25	-0.757436	0.78647214	0.14048263
1277225608351	0.10896278	6.469665	6.851035	-0.38300323	0.0	15.5625	-31.9375	-50.25	-0.757436	0.78647214	0.14048263
1277225608381	0.7218784	6.66035	7.0553403	-0.07735443	0.0	14.75	-32.9375	-50.0	-0.9945493	0.81127334	-0.10796302
1277225608421	0.95342433	6.4015636	6.66035	-0.5195999	0.0	13.25	-33.4375	-49.75	-0.9701783	0.7997262	-0.14784937
1277225608461	0.53119355	6.510526	6.8237944	-0.36031246	0.0	12.5	-33.9375	-49.25	-0.9732666	0.8072302	-0.08140963
1277225608501	-0.3405087	6.973618	7.8861814	0.7261152	0.0	12.5	-33.9375	-49.5	-0.99853903	0.84614176	0.048789375
1277225608531	-1.0351465	6.851035	6.851035	-0.062683105	0.0	13.0	-33.1875	-49.25	-0.6410002	0.7797552	0.14995915
1277225608561	-0.7627395	5.9793324	6.1700177	-1.1809149	0.0	14.25	-32.4375	-49.5	-0.7728749	0.7970581	0.12687741
1277225608591	-0.38136974	6.1291566	7.164303	-0.37058926	0.0	14.5	-32.4375	-49.5	-1.0618836	0.86215556	0.06214211
1277225608631	-0.10896278	6.66035	8.240311	0.7893324	0.0	14.25	-32.1875	-49.25	-1.1738672	0.890971	0.016358461
1277225608661	0.53119355	6.1291566	7.4639506	-0.1340456	0.0	14.0	-31.9375	-49.75	-1.1230695	0.8814451	-0.08645065
1277225608691	0.6946377	5.5571017	7.4639506	-0.47528076	0.0	13.0	-31.6875	-50.0	-1.2205793	0.9270907	-0.124354996
1277225608741	0.14982383	6.238119	7.668256	0.079639435	0.0	13.0	-31.1875	-50.75	-1.0387958	0.88773715	-0.02401285
1277225608781	-0.08172209	6.4424243	7.164303	-0.17136383	0.0	13.0	-30.6875	-51.0	-0.8461186	0.83836156	0.01268431
1277225608821	-0.10896278	6.2789803	7.43671	-0.073093414	0.0	13.5	-30.4375	-51.25	-0.9318665	0.8695335	0.017351838
1277225608861	-0.10896278	6.1291566	8.117727	0.36566162	0.0	14.0	-29.9375	-51.25	-1.1032181	0.9240055	0.017775904
1277225608902	-0.29964766	5.7886477	8.349273	0.35743332	0.0	14.5	-28.9375	-52.0	-1.1832603	0.9639467	0.051718548
1277225608941	-0.19068487	6.1291566	8.240311	0.4649439	0.0	15.5625	-28.6875	-52.0	-1.0897882	0.9310423	0.03110108
1277225608971	-0.7627395	6.0201936	6.742072	-0.735816	0.0	15.5625	-28.9375	-51.75	-0.78426325	0.83794403	0.12602538
1277225609001	-0.38136974	5.9793324	7.43671	-0.25664902	0.0	15.8125	-28.6875	-51.75	-0.9785303	0.8926118	0.06369505
1277225609031	0.040861044	5.597963	8.117727	0.05419922	0.0	15.3125	-28.4375	-51.25	-1.2144343	0.9670738	-0.007299141
1277225609071	0.19068487	4.5219555	6.8237944	-1.6183281	0.0	14.75	-27.4375	-51.5	-1.2021888	0.9851533	-0.04214371
1277225609121	-1.1168685	5.829509	7.7772183	-0.023210526	0.0	14.25	-26.4375	-52.0	-0.7991687	0.91890377	0.18929493
1277225609151	-0.9942854	5.7477865	8.049625	0.13428116	0.0	14.75	-25.9375	-52.0	-0.9149688	0.94371843	0.17129065
1277225609191	-0.5720546	5.8567495	8.117727	0.21962833	0.0	15.8125	-25.4375	-52.0	-0.98623157	0.9435472	0.09736557
1277225609231	-0.19068487	5.706926	9.00305	0.85450745	0.0	16.3125	-24.9375	-52.75	-1.1596249	1.0055786	0.03340046
1277225609271	0.42223078	6.469665	9.00305	1.2879324	0.0	17.0625	-23.4375	-53.25	-0.95811015	0.9466831	-0.065170735
1277225609311	-0.9125633	5.829509	10.079058	1.8725348	0.0	16.8125	-22.4375	-54.0	-1.148308	1.0411648	0.15528183
1277225609351	-0.8036005	5.5571017	10.56939	2.1616068	0.0	16.0625	-20.9375	-54.5	-1.1850673	1.0824686	0.14361231
1277225609391	-0.42223078	5.47538	10.460427	2.0076885	0.0	15.0625	-19.4375	-55.0	-1.0711817	1.087356	0.076962106
1277225609431	-0.50395286	6.3607025	8.158588	0.55071735	0.0	14.75	-17.4375	-55.5	-0.59759974	0.90708077	0.07906397
1277225609471	-0.08172209	3.6774938	8.689782	-0.3703928	0.0	14.5	-13.9375	-56.25	-1.015653	1.1703649	0.022218566
1277225609511	-0.50395286	2.4108016	6.701211	-2.667171	0.0	16.0625	-10.625	-56.25	-1.1200055	1.2185886	0.20607212
1277225609551	-1.879608	2.2201166	10.038197	0.64453316	0.0	18.3125	-7.125	-55.75	-1.6845654	1.2887369	0.7025319
1277225609581	-2.1792557	1.3756552	10.378705	0.8872309	0.0	20.3125	-4.125	-55.25	-2.2122643	1.3274097	1.0077152
1277225609621	-1.3756552	1.1849703	7.7772183	-1.8203049	0.0	22.5625	-1.125	-54.0	-1.9221704	1.3414463	0.85972905
1277225609651	-0.7218784	0.23154591	6.851035	-2.9137983	0.0	23.8125	1.875	-53.0	-2.6301274	1.4605885	1.2604089
1277225609681	-2.070293	-0.5720546	7.8180795	-1.6988926	0.0	25.375	5.125	-51.0	2.9832835	1.3026795	1.8403854
1277225609721	-2.8330324	-0.5720546	8.076866	-1.2282419	0.0	27.125	7.875	-49.0	-2.9105756	1.2271558	1.7700403
1277225609761	-2.5606253	-0.61291564	8.281172	-1.1169853	0.0	29.125	10.125	-47.25	-2.938894	1.2629585	1.8057377
1277225609801	-2.8330324	-0.61291564	8.730643	-0.60741806	0.0	30.875	11.875	-45.5	-2.8461847	1.250246	1.7838588
1277225609841	-3.9090397	-0.27240697	8.730643	-0.23696232	0.0	32.125	12.6875	-44.5	-2.4189188	1.148921	1.6403702
1277225609881	-4.3312707	-0.23154591	9.765789	0.87904835	0.0	33.625	13.1875	-43.25	-2.45136	1.1528195	1.6242046
1277225609921	-3.7864566	-0.3405087	9.112013	0.066646576	0.0	34.625	12.6875	-41.75	-2.6253464	1.1755316	1.6604831
1277225609961	-2.5333846	-1.2258313	8.430995	-0.91832256	0.0	36.4375	12.6875	-40.75	2.9540641	1.2486145	2.0214577
1277225610001	-3.486809	-1.3756552	7.4639506	-1.4543552	0.0	38.4375	11.375	-39.0	2.9500618	1.1053932	1.9465795
1277225610031	-5.47538	-0.9125633	8.349273	0.21946144	0.0	39.6875	9.875	-37.1875	-2.9054232	0.9840614	1.735945
1277225610071	-4.630918	-1.1441092	9.084772	0.45431805	0.0	41.1875	8.125	-36.1875	3.0438528	1.0872933	1.813005
1277225610111	-5.134871	-0.61291564	8.921328	0.5051222	0.0	42.4375	4.875	-34.6875	3.1319234	1.0454683	1.6895976
1277225610141	-5.175732	0.10896278	7.7772183	-0.46399498	0.0	43.4375	2.625	-33.9375	-2.9398274	0.9835001	1.5497468
1277225610181	-4.3312707	0.9942854	7.668256	-0.94376945	0.0	44.4375	-0.625	-32.1875	-2.7312675	1.0455697	1.3451462
1277225610221	-7.7363577	2.3018389	7.504812	1.2147789	0.0	46.5	-4.625	-28.6875	-2.4299798	0.7490306	1.2816024
1277225610261	-12.299174	3.0237172	5.5571017	4.024255	0.0	47.75	-8.875	-25.1875	-0.66009647	0.41346934	1.32973
1277225610301	-5.243834	1.7570249	8.240311	0.11744404	0.0	49.0	-12.125	-22.1875	-3.0040648	0.97970635	1.2474881
1277225610341	-7.3141265	3.445948	8.62168	2.01301	0.0	50.0	-14.9375	-20.1875	-2.8253446	0.81749636	1.1305054
1277225610381	-9.343558	4.3312707	6.2789803	2.2551727	0.0	49.5	-16.1875	-19.4375	-2.6057372	0.54751426	1.1367259
1277225610411	-9.697687	2.9556155	3.990762	1.088623	0.0	49.5	-16.9375	-18.1875	2.470185	0.3750121	1.2749643
1277225610451	-11.454713	1.607201	1.7297841	1.8888922	0.0	49.5	-18.4375	-15.4375	0.97966254	0.14844574	1.4313972
1277225610491	-9.384419	2.070293	0.7627395	-0.16635895	0.0	50.0	-19.1875	-11.625	0.82229185	0.07920274	1.3536646
1277225610521	-8.308413	2.6014864	0.84446156	-1.059619	0.0	50.75	-20.4375	-7.125	1.1723874	0.096693255	1.2673515
1277225610561	-8.430995	4.099725	0.92618364	-0.38607502	0.0	51.0	-20.1875	-3.375	-2.0237024	0.098474056	1.1181943
1277225610591	-7.082581	5.706926	1.9885708	-0.49609852	0.0	51.25	-20.1875	0.125	-2.175181	0.2152406	0.8925475
1277225610631	-8.499097	6.0882955	1.7978859	0.80157185	0.0	51.0	-19.6875	3.125	-2.292369	0.17030244	0.9491838
1277225610671	-8.812365	3.2961242	2.152015	-0.15505123	0.0	51.0	-18.6875	5.875	-3.1212099	0.22485991	1.2128727
1277225610701	-8.962189	1.7570249	1.2666923	-0.5864296	0.0	51.25	-17.6875	8.125	2.6891625	0.13781784	1.377203
1277225610741	-8.853226	2.070293	0.50395286	-0.7006254	0.0	51.5	-16.1875	9.625	2.8313923	0.055371083	1.341078
1277225610781	-8.267551	2.6832085	0.46309182	-1.1022568	0.0	51.5	-14.6875	10.875	-3.0018728	0.05322721	1.2569742
1277225610821	-9.847511	3.0237172	1.1849703	0.5625591	0.0	51.5	-13.6875	10.875	-3.0218446	0.11452799	1.2728807
1277225610861	-10.038197	2.982856	0.50395286	0.6774702	0.0	51.75	-14.1875	11.125	-3.058463	0.048086736	1.2819557
1277225610901	-8.267551	2.5606253	0.7627395	-1.1180954	0.0	51.25	-14.6875	11.625	-3.0720482	0.087899834	1.2704462
1277225610941	-6.8237944	3.3778462	1.2258313	-2.0945377	0.0	51.25	-15.9375	10.875	-2.7261288	0.15962586	1.1111487
1277225610981	-7.5865335	3.7864566	2.4516625	-0.98036003	0.0	51.0	-16.9375	10.625	-2.845537	0.2814701	1.1078671
1277225611011	-10.760075	3.6774938	2.3699405	1.8088474	0.0	50.25	-17.9375	10.875	3.1080534	0.20547545	1.2414701
1277225611051	-9.724928	2.6423476	-0.9125633	0.3120947	0.0	50.5	-18.9375	10.375	2.3995156	-0.09030813	1.3054926
1277225611091	-8.730643	1.6480621	0.92618364	-0.8736744	0.0	49.5	-20.1875	11.625	2.5815463	0.10386809	1.3842242
1277225611131	-8.158588	3.2961242	-1.56634	-0.8690653	0.0	48.5	-22.9375	12.375	2.3048534	-0.17616291	1.1868407
1277225611171	-8.117727	5.243834	1.4165162	-0.039265633	0.0	46.25	-27.1875	12.125	-3.0278482	0.14553836	0.9972571
1277225611211	-4.399372	7.5865335	0.3405087	-1.0302095	0.0	42.9375	-32.6875	12.6875	-2.184372	0.038807783	0.52550316
1277225611251	-2.7513103	8.430995	2.1111538	-0.69027233	0.0	39.4375	-38.25	11.125	-2.28194	0.23369962	0.31543693
1277225611321	-5.7477865	10.991621	1.607201	2.7007828	0.0	35.1875	-43.5	9.375	-2.5482414	0.12885596	0.48181847
1277225611361	-5.012288	8.812365	1.879608	0.50420475	0.0	31.625	-46.5	8.375	-2.9024088	0.18331915	0.51714647
1277225611391	-4.7535014	7.504812	1.6480621	-0.771492	0.0	29.125	-48.5	6.875	3.0628664	0.1834324	0.56461257
1277225611421	-4.2495484	7.9679036	2.0294318	-0.5511255	0.0	27.625	-50.25	6.125	-3.1023672	0.22106321	0.4899573
1277225611451	-4.3312707	8.730643	2.7921712	0.33140945	0.0	27.125	-50.5	5.875	-3.0551853	0.2790211	0.46052262
1277225611491	-3.7864566	7.7363577	1.1849703	-1.1122475	0.0	27.875	-50.5	7.125	-2.95358	0.13671666	0.45516124
1277225611521	-5.7477865	7.6273947	-0.38136974	-0.24842644	0.0	28.125	-50.0	8.375	2.2452114	-0.03991024	0.6457829
1277225611551	-5.325556	7.3141265	0.88532263	-0.71589756	0.0	28.875	-48.75	9.875	2.805507	0.097541764	0.6293497
1277225611581	-4.630918	5.325556	1.2258313	-2.6435776	0.0	28.875	-48.5	11.875	2.6995747	0.17197855	0.7157436
1277225611612	-4.7535014	8.158588	0.040861044	-0.364192	0.0	28.125	-48.75	12.375	3.1225185	0.004327387	0.5275553
1277225611651	-4.8216033	8.19945	0.040861044	-0.2945261	0.0	27.375	-49.0	12.6875	3.0459428	0.0042956932	0.5315789
1277225611691	-3.718355	7.668256	0.6537767	-1.2593851	0.0	25.875	-50.0	12.375	-3.0537035	0.076564364	0.4514967
1277225611731	-5.243834	9.888372	1.4165162	1.4753809	0.0	24.8125	-50.5	11.125	3.0458279	0.1258873	0.48759514
1277225611761	-3.5957718	8.853226	1.4573772	-0.14056873	0.0	23.3125	-51.0	10.125	-3.0118728	0.15134944	0.38580015
1277225611791	-3.9499009	9.765789	1.7978859	0.88001156	0.0	22.0625	-51.75	9.375	-3.0855684	0.16904032	0.38434792
1277225611831	-3.759216	8.662541	1.1849703	-0.28953457	0.0	21.0625	-52.5	8.875	3.0423193	0.12483336	0.4094372
1277225611871	-2.8738933	7.082581	1.879608	-1.9354916	0.0	19.5625	-53.0	9.625	3.0628843	0.24112667	0.3854699
1277225611902	-2.6423476	8.390134	0.53119355	-0.9942436	0.0	16.8125	-54.0	10.125	3.1279032	0.060314484	0.30510175
1277225611941	-1.4165162	9.384419	1.1168685	-0.25043488	0.0	13.5	-54.5	11.375	-2.857082	0.11714124	0.14981246
1277225611971	-1.3075534	10.61025	0.92618364	0.92391014	0.0	8.75	-55.25	11.875	-3.026429	0.08642024	0.1226167
1277225612001	-0.7218784	9.384419	0.50395286	-0.3810253	0.0	3.9375	-56.25	11.875	3.115492	0.053491764	0.07677189
1277225612031	-1.0760075	9.765789	0.50395286	0.031154633	0.0	0.9375	-56.5	11.625	2.793665	0.05124858	0.10973867
1277225612071	-1.0351465	10.079058	0.9942854	0.37409306	0.0	-1.875	-53.5625	13.0	2.7568944	0.09781927	0.10234387
1277225612111	-0.23154591	9.00305	1.1849703	-0.7230015	0.0	-2.625	-54.0625	12.4375	2.9372795	0.13082378	0.025712939
1277225612141	-0.23154591	9.425281	1.4982382	-0.26022434	0.0	-2.875	-53.8125	11.6875	2.934549	0.15759385	0.024561534
1277225612181	-0.14982383	9.343558	1.5390993	-0.3359928	0.0	-2.875	-54.0625	10.9375	2.9526846	0.16323638	0.016033612
1277225612221	-0.42223078	9.997335	1.4573772	0.30517197	0.0	-3.375	-54.0625	10.9375	2.8463418	0.14462976	0.042209245
1277225612261	-0.19068487	8.812365	1.334794	-0.89172935	0.0	-3.875	-53.8125	10.6875	2.8771992	0.15029098	0.021634955
1277225612301	-0.10896278	9.084772	1.607201	-0.58016396	0.0	-4.625	-53.8125	10.1875	2.8762796	0.17508748	0.011993428
1277225612341	0.14982383	8.240311	1.1441092	-1.4859447	0.0	-5.1875	-53.3125	10.1875	2.9042284	0.13793848	-0.018179815
1277225612381	0.08172209	10.079058	1.2666923	0.35202026	0.0	-5.6875	-53.5625	10.4375	2.842565	0.12501614	-0.00810793
1277225612411	0.10896278	11.114203	0.92618364	1.3466101	0.0	-6.6875	-53.3125	9.9375	2.7354803	0.08313726	-0.009803607
1277225612451	0.46309182	10.460427	1.0760075	0.71916485	0.0	-7.4375	-53.3125	9.6875	2.8178172	0.10240447	-0.044241942
1277225612491	0.88532263	10.800936	1.0351465	1.079834	0.0	-8.1875	-53.0625	9.1875	2.8791246	0.09522934	-0.08178438
1277225612521	0.38136974	11.536434	0.7218784	1.7586365	0.0	-8.1875	-52.5625	9.4375	2.6723695	0.062458288	-0.03304582
1277225612551	0.42223078	10.882658	0.92618364	1.1235075	0.0	-7.4375	-52.5625	11.1875	2.8091276	0.08483826	-0.03877905
1277225612581	0.6946377	8.730643	1.2666923	-0.95729065	0.0	-5.6875	-52.5625	13.25	3.0691447	0.1436328	-0.07939593
1277225612611	-0.3405087	6.1291566	1.2666923	-3.5387144	0.0	-4.125	-52.0625	15.25	2.8723795	0.20349231	0.055498507
1277225612641	-0.29964766	7.8589406	0.9942854	-1.8793974	0.0	-2.625	-52.0625	16.0	2.938644	0.12575744	0.03810979
1277225612681	-0.19068487	9.724928	0.6946377	-0.055080414	0.0	-1.875	-52.0625	16.25	2.997215	0.07129381	0.019605331
1277225612711	-0.3405087	10.269742	0.6946377	0.4921875	0.0	-1.875	-51.8125	16.5	2.9635108	0.067499414	0.033144355
1277225612751	0.3405087	9.425281	0.9942854	-0.3229561	0.0	-1.375	-52.3125	16.25	-3.117826	0.10503459	-0.036111463
1277225612791	0.19068487	9.534244	1.0351465	-0.2144823	0.0	-0.625	-52.5625	17.0	-3.1227157	0.10812637	-0.019997334
1277225612831	-0.27240697	9.302697	0.61291564	-0.479805	0.0	0.375	-52.3125	17.75	3.0869696	0.06576261	0.029274214
1277225612871	-1.2258313	9.275456	0.10896278	-0.4499073	0.0	0.875	-52.0625	18.25	2.835678	0.011645639	0.13139713
1277225612901	-2.0294318	8.853226	-0.14982383	-0.7225628	0.0	0.875	-51.5625	19.25	2.61653	-0.016493743	0.2253377
1277225612941	-2.2201166	8.853226	-0.46309182	-0.6675596	0.0	0.875	-50.8125	19.25	2.5385818	-0.050693255	0.24570252
1277225612981	-1.7978859	8.962189	-0.50395286	-0.65202427	0.0	0.875	-50.5625	19.25	2.6377285	-0.055076826	0.19798002
1277225613011	-1.2666923	9.534244	-0.3405087	-0.18260479	0.0	0.875	-50.3125	18.75	2.8144293	-0.03538842	0.13208362
1277225613051	-0.53119355	9.80665	-0.46309182	0.025287628	0.0	0.375	-50.8125	18.25	2.9928253	-0.0471182	0.054113787
1277225613091	-2.3018389	10.038197	0.10896278	0.4926567	0.0	0.375	-51.0625	18.0	2.603898	0.01057982	0.22541106
1277225613131	4.399372	8.499097	1.4165162	-0.13216591	0.0	0.625	-50.8125	17.25	-2.35022	0.14694601	-0.4776505
1277225613161	-3.2961242	11.182305	-1.0760075	1.900876	0.0	0.875	-51.5625	16.75	2.29328	-0.092037216	0.28664485
1277225613201	-1.2666923	8.539958	1.4982382	-1.0442238	0.0	1.625	-51.8125	16.75	2.9090104	0.1718287	0.14725174
1277225613241	-1.0351465	9.193735	0.88532263	-0.51256084	0.0	1.375	-51.8125	16.25	2.9345684	0.09540117	0.1121204
1277225613281	-1.1168685	9.575105	0.19068487	-0.16474247	0.0	0.3125	-50.9375	17.125	2.8423479	0.019777963	0.11611823
1277225613321	-0.46309182	9.343558	0.6537767	-0.4288063	0.0	0.0625	-50.6875	17.125	3.0234478	0.069771625	0.049522158
1277225613361	-0.88532263	9.425281	0.7218784	-0.31239796	0.0	-0.4375	-50.6875	16.375	2.8903012	0.07610665	0.09365584
1277225613402	-0.50395286	9.80665	0.23154591	0.015669823	0.0	-0.9375	-50.9375	16.125	2.9393868	0.023575628	0.051343724
1277225613441	-0.10896278	9.534244	0.7218784	-0.24449635	0.0	-0.6875	-51.1875	16.125	3.0778747	0.075565174	0.011428074
1277225613481	-0.08172209	9.425281	0.9942854	-0.3287182	0.0	-0.4375	-50.9375	16.375	3.100967	0.10509868	0.008670303
1277225613511	-0.23154591	9.765789	0.6537767	-0.016263962	0.0	-0.4375	-50.9375	16.625	3.059489	0.06682715	0.023705462
1277225613551	-0.61291564	9.697687	0.61291564	-0.07030296	0.0	-0.4375	-51.1875	17.375	2.9651258	0.06299294	0.063118294
1277225613591	-1.4573772	9.343558	0.88532263	-0.3087654	0.0	-0.6875	-51.4375	17.625	2.7728987	0.093348116	0.15472993
1277225613621	-1.2666923	9.043911	0.84446156	-0.6355028	0.0	-1.4375	-51.6875	17.125	2.7652905	0.092208676	0.13915502
1277225613651	-0.50395286	8.689782	0.6537767	-1.0777502	0.0	-1.4375	-51.4375	17.125	2.9336567	0.07496816	0.05792884
1277225613691	-0.7627395	9.507003	0.50395286	-0.25579453	0.0	-1.1875	-51.1875	16.625	2.8745391	0.05278972	0.08005775
1277225613731	-1.607201	9.152874	1.2666923	-0.42780685	0.0	-1.4375	-50.9375	16.375	2.7227228	0.13547248	0.17382315
1277225613771	-0.8036005	9.302697	0.27240697	-0.46533585	0.0	-1.4375	-51.1875	16.125	2.821362	0.029165661	0.0861697
1277225613811	0.5720546	10.501288	0.6537767	0.73050976	0.0	-1.4375	-51.4375	15.875	-3.0701382	0.062084746	-0.054420915
1277225613881	-0.7218784	8.921328	1.3756552	-0.75106525	0.0	-2.1875	-51.9375	15.625	2.8745465	0.15250279	0.080740124
1277225613911	-1.607201	9.043911	1.1168685	-0.5533905	0.0	-2.9375	-52.1875	15.375	2.629752	0.12099501	0.17587472
1277225613951	-0.6946377	9.384419	1.0351465	-0.3397932	0.0	-2.6875	-51.9375	15.625	2.8431246	0.10956333	0.073885575
1277225613981	-0.7218784	9.724928	1.1441092	0.011919975	0.0	-2.6875	-51.9375	15.625	2.8431246	0.10956333	0.073885575
1277225614011	-0.9942854	9.302697	0.8036005	-0.41651917	0.0	-2.4375	-51.6875	15.625	2.7637124	0.08568407	0.106477186
1277225614051	-1.7297841	9.302697	0.61291564	-0.32466698	0.0	-1.9375	-51.9375	15.375	2.592249	0.06468512	0.18384473
1277225614091	-1.2666923	9.343558	0.6946377	-0.3520689	0.0	-2.4375	-52.4375	15.375	2.6822922	0.073537275	0.13474703
1277225614131	-0.7627395	9.425281	1.0351465	-0.29406834	0.0	-2.6875	-51.9375	15.375	2.8240006	0.10903458	0.08074889
1277225614161	-0.42223078	9.697687	0.8036005	-0.066568375	0.0	-2.4375	-51.6875	15.125	2.9038239	0.08259838	0.04351185
1277225614201	-0.61291564	9.302697	1.2258313	-0.4035387	0.0	-2.1875	-51.1875	15.375	2.8933012	0.13073654	0.06579071
1277225614241	-0.9942854	8.812365	1.1168685	-0.86831856	0.0	-1.6875	-50.6875	15.625	2.8156197	0.12528014	0.112353295
1277225614281	-1.3756552	9.193735	1.3075534	-0.41905785	0.0	-1.6875	-51.4375	15.375	2.7468357	0.13973962	0.14852771
1277225614321	-0.6537767	9.534244	0.6537767	-0.22768116	0.0	-1.9375	-50.9375	15.625	2.8644888	0.06830436	0.06846426
1277225614361	-0.38136974	9.656827	0.7218784	-0.11537266	0.0	-1.6875	-51.1875	15.375	2.9503	0.074556485	0.039471727
1277225614391	-0.14982383	9.534244	0.5720546	-0.25408554	0.0	-1.9375	-51.4375	14.625	2.9875097	0.059920777	0.015712993
1277225614421	-0.19068487	9.466142	0.6537767	-0.3160429	0.0	-1.9375	-50.6875	14.375	2.9771852	0.0689413	0.020141162
1277225614451	-0.19068487	9.656827	0.8036005	-0.11456871	0.0	-1.1875	-51.4375	14.125	3.0220482	0.083008386	0.019743554
1277225614491	-0.29964766	9.724928	0.95342433	-0.030504227	0.0	-1.6875	-51.4375	14.125	2.971698	0.097680844	0.030802581
1277225614521	-0.42223078	9.697687	1.0760075	-0.040320396	0.0	-1.4375	-51.4375	14.625	2.961619	0.11039934	0.043511845
1277225614551	-0.61291564	9.615966	1.1849703	-0.09858036	0.0	-0.9375	-51.9375	15.625	2.9497604	0.122365475	0.06365327
1277225614591	-0.53119355	9.084772	1.0351465	-0.6476784	0.0	-1.1875	-52.1875	16.125	2.9507332	0.113261946	0.058404263
1277225614621	-1.4165162	9.152874	1.1441092	-0.47441578	0.0	-0.6875	-51.9375	16.875	2.7832959	0.122906774	0.15354377
1277225614651	-1.4573772	9.275456	0.9942854	-0.36489964	0.0	0.0625	-51.9375	17.625	2.8059292	0.10550293	0.15584774
1277225614691	-1.334794	9.466142	0.92618364	-0.20210266	0.0	0.0625	-51.9375	17.625	2.8059292	0.10550293	0.15584774
1277225614721	-1.2666923	9.384419	0.5720546	-0.31986523	0.0	0.3125	-51.4375	18.125	2.8406136	0.06033676	0.13416734
1277225614751	-1.3075534	9.152874	0.27240697	-0.556839	0.0	1.0625	-51.4375	18.625	2.8416653	0.029454261	0.14189705
1277225614791	-1.334794	9.193735	0.10896278	-0.51588535	0.0	1.0625	-51.1875	19.125	2.83222	0.011728344	0.14417778
1277225614831	-1.3756552	9.534244	-0.0	-0.17367458	0.0	1.3125	-51.1875	19.625	2.8443782	-0.0	0.14329678
1277225614871	-1.1168685	9.534244	0.23154591	-0.20442104	0.0	1.8125	-51.1875	19.625	2.9448764	0.024116104	0.11661139
1277225614901	-0.7218784	9.425281	0.46309182	-0.34242916	0.0	1.3125	-51.1875	19.375	3.0231638	0.048950337	0.076440364
1277225614941	-0.7218784	9.275456	0.53119355	-0.48799324	0.0	1.3125	-50.9375	19.375	3.0232937	0.057034146	0.077670164
1277225614971	-0.8036005	9.193735	0.38136974	-0.5699854	0.0	1.8125	-50.9375	19.875	3.0224051	0.041300423	0.087185815
1277225615001	-0.7218784	9.425281	0.27240697	-0.34984112	0.0	1.8125	-51.1875	20.625	3.0467348	0.028809363	0.07644036
1277225615034	-0.7218784	9.615966	0.14982383	-0.16246223	0.0	1.8125	-51.4375	21.125	3.0486553	0.015535767	0.074930266
1277225615071	-0.6537767	9.425281	0.14982383	-0.3575344	0.0	2.0625	-51.4375	20.375	3.0708318	0.015856521	0.069253236
1277225615111	-0.8036005	9.466142	0.10896278	-0.30583477	0.0	1.8125	-50.9375	20.375	3.0227382	0.011469034	0.08468903
1277225615141	-0.88532263	9.507003	0.040861044	-0.25842667	0.0	1.8125	-50.4375	20.375	3.0030057	0.0042794524	0.092855416
1277225615171	-0.88532263	9.234595	-0.0	-0.52971363	0.0	2.3125	-50.1875	20.625	3.0215623	-0.0	0.095578104
1277225615211	-0.88532263	9.234595	-0.19068487	-0.5277548	0.0	2.3125	-50.1875	21.625	3.0213559	-0.020551832	0.095578104
1277225615251	-0.88532263	9.466142	-0.61291564	-0.2794628	0.0	2.5625	-49.6875	21.625	3.029162	-0.064377785	0.09325392
1277225615291	-0.8036005	8.921328	-0.42223078	-0.83925724	0.0	2.8125	-49.1875	21.875	3.059269	-0.047102537	0.08983389
1277225615331	-0.6537767	9.152874	-0.53119355	-0.61509514	0.0	3.3125	-48.6875	22.625	3.1332579	-0.05782369	0.07130746
1277225615371	-1.1441092	9.697687	-0.88532263	-0.0016555786	0.0	3.0625	-48.6875	23.625	3.0032747	-0.09041617	0.1174347
1277225615401	-1.0760075	9.466142	-0.95342433	-0.2319622	0.0	3.5625	-48.4375	24.375	3.0424962	-0.09974289	0.11318327
1277225615431	-1.0760075	9.507003	-1.1168685	-0.17398262	0.0	3.8125	-48.1875	25.625	3.0596151	-0.11620729	0.112700924
1277225615471	-1.2666923	9.615966	-1.2666923	-0.025248528	0.0	4.3125	-48.4375	26.125	3.0374308	-0.1298648	0.13097394
1277225615511	-1.4982382	9.656827	-1.334794	0.056447983	0.0	5.375	-47.6875	26.375	3.0401425	-0.13574865	0.1539209
1277225615551	-1.4573772	9.425281	-1.3075534	-0.18014717	0.0	5.375	-47.9375	26.625	3.0404172	-0.13624966	0.15340938
1277225615591	-1.1849703	9.112013	-1.1441092	-0.546957	0.0	6.125	-47.9375	26.625	3.1363058	-0.123874575	0.1293191
1277225615621	-1.1168685	9.152874	-1.1849703	-0.5100565	0.0	6.125	-46.9375	26.375	-3.1219902	-0.12781054	0.12142352
1277225615651	-0.95342433	9.384419	-1.3075534	-0.2837286	0.0	6.125	-47.1875	26.375	-3.0741193	-0.13774106	0.10124911
1277225615691	-0.88532263	9.384419	-1.2666923	-0.2958336	0.0	6.375	-46.9375	26.375	-3.044187	-0.13358131	0.09406124
1277225615731	-0.88532263	9.343558	-1.0760075	-0.35976315	0.0	6.125	-47.4375	26.125	-3.0626292	-0.114148475	0.09447014
1277225615771	-0.9125633	9.697687	-1.1441092	8.4114075E-4	0.0	6.375	-47.9375	26.125	-3.0504675	-0.116922885	0.09382483
1277225615811	-0.95342433	9.466142	-1.1849703	-0.21910572	0.0	6.625	-47.9375	26.125	-3.052211	-0.12391161	0.100380905
1277225615851	-1.1168685	9.275456	-1.1168685	-0.39767075	0.0	6.875	-48.1875	26.625	-3.0900903	-0.11898295	0.11983423
1277225615891	-1.4982382	9.152874	-1.2258313	-0.4513054	0.0	7.125	-47.6875	26.625	3.1081338	-0.13140792	0.16225152
1277225615931	-1.525479	9.152874	-1.334794	-0.43201065	0.0	7.375	-47.9375	26.875	3.1108234	-0.14286904	0.16514868
1277225615971	-1.4165162	9.275456	-1.334794	-0.32918835	0.0	7.125	-47.6875	27.125	3.1338243	-0.14130858	0.1515457
1277225616001	-1.1849703	9.302697	-1.2258313	-0.34900856	0.0	7.375	-47.4375	27.375	-3.0785067	-0.12997845	0.12669691
1277225616034	-1.1168685	9.234595	-1.1849703	-0.42958736	0.0	7.375	-47.1875	27.375	-3.0633626	-0.12670779	0.120359376
1277225616071	-1.1441092	9.193735	-1.2666923	-0.4558077	0.0	6.875	-46.9375	27.375	-3.0920644	-0.13588066	0.123807944
1277225616111	-1.1441092	9.275456	-1.0760075	-0.3991604	0.0	6.625	-47.1875	27.375	-3.1048913	-0.11462861	0.12272811
1277225616141	-1.1168685	9.275456	-1.1849703	-0.38934422	0.0	6.375	-47.1875	26.375	-3.107497	-0.12616342	0.11983424
1277225616171	-1.1441092	9.275456	-1.2258313	-0.38084793	0.0	6.125	-47.4375	26.375	-3.1279652	-0.13042001	0.12272811
1277225616211	-1.2258313	9.384419	-1.2666923	-0.25811672	0.0	6.125	-47.4375	26.625	3.1380565	-0.1330505	0.12988868
1277225616241	-1.1849703	9.384419	-1.2258313	-0.26861382	0.0	6.625	-47.6875	26.625	-3.1119852	-0.12887676	0.12560523
1277225616271	-1.1849703	9.343558	-1.2258313	-0.30881405	0.0	6.375	-47.6875	27.625	-3.126273	-0.1294253	0.12614872
1277225616311	-1.1168685	9.384419	-1.2258313	-0.2768345	0.0	6.625	-48.1875	27.375	-3.0993133	-0.12898855	0.11845588
1277225616351	-1.1441092	9.343558	-1.2666923	-0.30846214	0.0	6.625	-48.6875	27.125	-3.1092215	-0.13375998	0.121842444
1277225616391	-1.1849703	9.234595	-1.1849703	-0.42123318	0.0	6.125	-48.6875	26.875	3.135655	-0.12659441	0.12762119
1277225616431	-1.1441092	9.343558	-1.2258313	-0.3138256	0.0	6.375	-48.6875	26.375	-3.1208925	-0.12949401	0.121842444
1277225616471	-1.1168685	9.466142	-1.3075534	-0.18558311	0.0	6.375	-48.1875	26.875	-3.1073997	-0.13632712	0.11744266
1277225616511	-1.1168685	9.302697	-1.4165162	-0.33067608	0.0	7.125	-47.4375	27.125	-3.0694869	-0.15004742	0.11948666
1277225616541	-1.2258313	9.152874	-1.3756552	-0.47015285	0.0	7.375	-47.1875	27.125	-3.088801	-0.14788008	0.13313632
1277225616581	-1.4165162	9.152874	-1.3756552	-0.4432087	0.0	7.875	-47.4375	27.125	-3.114927	-0.14745142	0.15354377
1277225616611	-1.6480621	9.302697	-1.334794	-0.26526833	0.0	8.125	-47.4375	27.125	3.1279426	-0.14035563	0.17534032
1277225616641	-1.6480621	9.234595	-1.4573772	-0.31361008	0.0	8.125	-46.9375	27.375	3.1290367	-0.15413013	0.17660677
1277225616671	-1.8387469	9.152874	-1.4982382	-0.35144997	0.0	9.625	-46.9375	27.875	-3.1319716	-0.15912724	0.19825391
1277225616711	-2.2201166	9.00305	-1.2666923	-0.44778633	0.0	10.125	-46.4375	27.875	3.0808911	-0.13576348	0.2417724
1277225616741	-1.920469	8.771504	-0.9125633	-0.7811165	0.0	10.875	-46.4375	27.875	-3.111423	-0.10128214	0.21554291
1277225616771	-1.7570249	8.812365	-1.1168685	-0.7516899	0.0	11.125	-47.1875	27.375	-3.0623088	-0.12365819	0.19680104
1277225616802	-1.7978859	8.894087	-1.2666923	-0.644681	0.0	11.375	-46.9375	27.125	-3.0502548	-0.13869974	0.19945621
1277225616841	-1.9477097	9.112013	-1.2258313	-0.40851116	0.0	11.625	-47.4375	27.125	-3.070953	-0.13080612	0.21058285
1277225616881	-2.0294318	9.384419	-1.1441092	-0.13737392	0.0	12.125	-47.4375	27.125	-3.0555341	-0.11860204	0.21297583
1277225616911	-1.920469	9.384419	-1.1441092	-0.15965462	0.0	12.875	-46.9375	27.125	-2.9914534	-0.11887726	0.20185733
1277225616951	-1.9885708	9.234595	-1.2666923	-0.27582264	0.0	12.375	-46.6875	26.625	-3.0284784	-0.13329916	0.21210039
1277225616991	-2.1792557	9.193735	-1.1441092	-0.28914547	0.0	12.625	-46.4375	26.875	-3.0664184	-0.12050247	0.23274152
1277225617021	-2.070293	9.152874	-0.9125633	-0.37828922	0.0	12.375	-46.6875	26.375	-3.0597525	-0.096940935	0.22244726
1277225617051	-1.9885708	9.00305	-0.95342433	-0.53743553	0.0	12.375	-46.9375	26.125	-3.0485034	-0.10304148	0.21738711
1277225617091	-1.9885708	9.152874	-1.0351465	-0.38321972	0.0	12.625	-47.4375	26.125	-3.03194	-0.11007029	0.21393712
1277225617131	-2.0294318	9.302697	-1.0760075	-0.22455406	0.0	12.125	-47.4375	25.875	-3.05596	-0.11253089	0.21479
1277225617161	-1.9477097	9.112013	-1.1849703	-0.4137535	0.0	12.375	-46.9375	26.125	-3.0264294	-0.12649305	0.21058285
1277225617201	-1.9477097	9.193735	-1.2258313	-0.32925606	0.0	12.125	-47.1875	26.125	-3.0358152	-0.12970603	0.20876515
1277225617241	-1.920469	9.275456	-1.2258313	-0.2554741	0.0	11.625	-46.9375	25.875	-3.0459394	-0.12869848	0.20416366
1277225617281	-1.8387469	9.152874	-1.3075534	-0.37978554	0.0	11.875	-46.9375	25.875	-3.0155206	-0.13915367	0.19825391
1277225617321	-1.7978859	9.193735	-1.3075534	-0.34795856	0.0	11.625	-47.1875	25.375	-3.0145648	-0.13868241	0.19311842
1277225617361	-1.879608	9.275456	-1.1168685	-0.27698994	0.0	11.625	-46.6875	25.125	-3.0322404	-0.11746916	0.1999358
1277225617401	-1.7570249	9.302697	-1.0351465	-0.28305626	0.0	11.625	-46.4375	25.125	-3.0007532	-0.10890801	0.18667364
1277225617431	-1.7978859	9.234595	-0.9125633	-0.3545122	0.0	11.625	-46.4375	24.625	-3.0147836	-0.09669633	0.19228488
1277225617471	-1.7297841	9.234595	-0.9125633	-0.36722946	0.0	11.625	-46.4375	24.875	-2.9997194	-0.09682701	0.18516985
1277225617511	-1.7978859	9.275456	-0.9125633	-0.3145876	0.0	11.625	-46.6875	25.125	-3.018218	-0.096288346	0.1914584
1277225617541	-1.8387469	9.112013	-0.9125633	-0.46627903	0.0	12.125	-46.6875	25.625	-3.0148365	-0.09785707	0.19911969
1277225617571	-1.920469	9.152874	-1.1168685	-0.3880148	0.0	12.625	-46.4375	26.375	-3.004838	-0.11886039	0.20682116
1277225617611	-2.3018389	9.152874	-1.1849703	-0.29467297	0.0	12.875	-46.1875	26.375	-3.0811975	-0.124901146	0.24637873
1277225617641	-2.3699405	9.00305	-1.0351465	-0.4395237	0.0	13.125	-46.4375	26.375	-3.0998945	-0.1107346	0.2573982
1277225617671	-2.2609777	8.962189	-1.0351465	-0.5058775	0.0	12.875	-46.9375	26.125	-3.0928538	-0.11152789	0.24712306
1277225617711	-2.2609777	9.043911	-1.0760075	-0.4225073	0.0	12.875	-46.9375	25.875	-3.0866632	-0.11491506	0.24497867
1277225617751	-2.3018389	9.112013	-1.1441092	-0.33900928	0.0	12.625	-47.1875	25.875	-3.1070704	-0.12114024	0.24743913
1277225617781	-2.3426998	9.275456	-1.1441092	-0.17174911	0.0	12.625	-46.6875	25.875	-3.1011236	-0.1190272	0.2473958
1277225617811	-2.3018389	9.302697	-1.0760075	-0.16318417	0.0	12.875	-46.4375	25.625	-3.0747902	-0.11181175	0.24256572
1277225617851	-2.1792557	9.193735	-0.95342433	-0.31018066	0.0	12.375	-47.1875	25.125	-3.0840623	-0.1005672	0.2327415
1277225617891	-1.879608	9.152874	-0.9125633	-0.41831684	0.0	12.625	-47.1875	24.875	-2.998957	-0.09735557	0.20254132
1277225617921	-1.8387469	9.084772	-0.9125633	-0.49285126	0.0	12.375	-47.1875	24.625	-3.0022306	-0.098137155	0.19970103
1277225617961	-1.9477097	9.193735	-0.9125633	-0.36466408	0.0	12.125	-47.1875	24.875	-3.0381422	-0.09680062	0.20876516
1277225618001	-2.0294318	9.234595	-1.0760075	-0.29065704	0.0	12.125	-46.6875	25.375	-3.0496898	-0.11331594	0.21632522
1277225618031	-1.9885708	9.193735	-1.0760075	-0.33897018	0.0	12.125	-46.1875	25.375	-3.0365386	-0.11389669	0.21301486
1277225618071	-2.0294318	9.343558	-0.9942854	-0.193676	0.0	12.625	-46.6875	25.125	-3.0207582	-0.10361692	0.21387914
1277225618111	-1.9885708	9.384419	-0.8036005	-0.18025303	0.0	13.375	-46.4375	25.125	-2.9784913	-0.0835761	0.20881249
1277225618151	-1.8387469	9.234595	-0.7627395	-0.359931	0.0	13.375	-46.9375	25.125	-2.9565945	-0.08082919	0.1965445
1277225618191	-1.7570249	9.343558	-0.84446156	-0.26189613	0.0	13.625	-47.6875	25.375	-2.9260502	-0.08858973	0.185876
1277225618231	-1.7978859	9.384419	-0.84446156	-0.21431828	0.0	13.375	-47.4375	25.875	-2.9477866	-0.08814918	0.1892884
1277225618271	-1.6480621	9.302697	-1.0351465	-0.30255604	0.0	12.875	-47.6875	25.875	-2.9307103	-0.10913235	0.17534032
1277225618311	-1.525479	9.234595	-0.9942854	-0.39424133	0.0	12.875	-47.1875	25.875	-2.9028192	-0.10583305	0.16371328
1277225618351	-1.525479	9.425281	-1.0351465	-0.20276928	0.0	11.875	-46.9375	26.125	-2.9410338	-0.10799398	0.16045828
1277225618391	-1.7978859	9.466142	-1.1849703	-0.098695755	0.0	11.625	-46.6875	26.375	-3.0090063	-0.12236694	0.18769251
1277225618421	-1.9477097	9.384419	-1.1849703	-0.1492672	0.0	11.375	-47.1875	26.375	-3.0651767	-0.12301097	0.2046418
1277225618461	-1.7978859	9.234595	-1.2666923	-0.31377697	0.0	11.375	-47.1875	26.625	-3.0341704	-0.13383532	0.19228488
1277225618501	-1.9885708	8.853226	-1.2258313	-0.65041256	0.0	11.875	-46.9375	26.625	-3.0763907	-0.13428256	0.22094834
1277225618531	-2.1111538	9.084772	-1.334794	-0.38477516	0.0	10.875	-46.6875	26.875	-3.140335	-0.1421479	0.22833124
1277225618571	-1.920469	9.084772	-1.1441092	-0.45088863	0.0	10.625	-46.4375	26.875	-3.1036754	-0.12259614	0.20832723
1277225618611	-1.2258313	8.853226	-0.9125633	-0.82249546	0.0	9.625	-46.6875	26.375	-2.9963756	-0.10175024	0.13758673
1277225618658	-0.9125633	9.656827	-0.95342433	-0.060055733	0.0	8.375	-47.1875	26.125	-2.960796	-0.097977966	0.09421949
1277225618714	-1.0351465	9.697687	-0.50395286	-0.04086113	0.0	8.375	-47.6875	25.375	-2.9996033	-0.051626835	0.10633893
1277225618751	-0.84446156	9.384419	-0.6537767	-0.36165905	0.0	7.625	-47.4375	25.625	-2.9924421	-0.069274805	0.08974378
1277225618781	-0.7218784	9.152874	-0.95342433	-0.5759821	0.0	7.125	-47.1875	26.125	-2.9819257	-0.10347331	0.078706115
1277225618821	-0.84446156	8.962189	-1.1441092	-0.73235035	0.0	6.875	-47.4375	26.375	-3.0231838	-0.12641884	0.09394755
1277225618861	-1.0760075	9.234595	-1.2258313	-0.4291134	0.0	6.125	-47.4375	26.625	-3.1121337	-0.13109514	0.115996115
1277225618891	-0.6537767	9.193735	-1.334794	-0.4935484	0.0	5.125	-47.4375	26.375	-3.051162	-0.14381962	0.070991606
1277225618921	-0.42223078	9.043911	-1.4165162	-0.6427469	0.0	4.5625	-47.9375	25.875	-3.0142097	-0.1551979	0.046652872
1277225618961	-0.29964766	9.193735	-1.4165162	-0.49960613	0.0	4.0625	-47.6875	25.625	-3.0036054	-0.1527921	0.032581057
1277225618991	0.10896278	9.193735	-1.2258313	-0.53091335	0.0	3.8125	-47.6875	25.375	-2.9134939	-0.13254233	-0.011851297
1277225619021	0.6946377	9.193735	-1.334794	-0.49059105	0.0	4.0625	-47.4375	25.875	-2.7576578	-0.14377365	-0.075412266
1277225619061	1.0351465	9.466142	-1.1441092	-0.21559429	0.0	3.8125	-47.1875	26.125	-2.7292738	-0.11957392	-0.10891975
1277225619101	1.1849703	9.724928	-1.1168685	0.053663254	0.0	3.8125	-46.9375	26.625	-2.722308	-0.11351268	-0.121251024
1277225619141	0.95342433	9.697687	-0.7627395	-0.03240204	0.0	4.0625	-47.1875	26.875	-2.7837617	-0.07811503	-0.09799968
1277225619171	0.61291564	9.724928	-0.7218784	-0.035723686	0.0	4.8125	-47.4375	26.375	-2.8128552	-0.073947616	-0.06294196
1277225619211	0.8036005	9.765789	-1.2258313	0.06852436	0.0	5.875	-46.9375	25.875	-2.688411	-0.124453634	-0.08210233
1277225619251	0.3405087	9.507003	-1.4982382	-0.17629337	0.0	6.625	-46.6875	25.125	-2.701247	-0.15620902	-0.035801318
1277225619291	0.14982383	9.112013	-0.9942854	-0.6393261	0.0	7.625	-46.1875	25.375	-2.7487366	-0.1086735	-0.01644097
1277225619331	0.46309182	9.425281	-1.1849703	-0.29589176	0.0	8.375	-45.6875	25.875	-2.6547706	-0.12491723	-0.04909347
1277225619371	-0.14982383	10.079058	-0.29964766	0.27797413	0.0	8.875	-45.4375	26.375	-2.82481	-0.029717693	0.01486377
1277225619401	-2.1792557	9.193735	2.152015	-0.11618614	0.0	9.875	-44.9375	27.125	3.1209784	0.22394264	0.2327415
1277225619441	-3.3642259	8.499097	1.7297841	-0.5037031	0.0	11.125	-44.6875	26.875	2.968439	0.18702783	0.37690926
1277225619481	-3.445948	9.888372	0.19068487	0.6666889	0.0	12.625	-44.6875	26.125	3.0387206	0.018207699	0.33532438
1277225619521	-3.2961242	9.534244	0.08172209	0.28160572	0.0	14.875	-43.9375	25.625	3.1301491	0.008100804	0.33285174
1277225619561	-4.7943625	9.765789	0.10896278	1.0730753	0.0	17.6875	-43.1875	24.125	3.013985	0.010015382	0.45636892
1277225619591	-4.2904096	8.580819	-0.27240697	-0.20913601	0.0	19.9375	-42.1875	22.875	3.0936213	-0.028386889	0.4636476
1277225619621	-3.405087	8.580819	-0.5720546	-0.55720043	0.0	21.6875	-41.4375	21.375	-2.8834014	-0.061886918	0.37776667
1277225619651	-3.0237172	8.390134	-0.50395286	-0.8740587	0.0	22.9375	-41.6875	18.625	-2.7047336	-0.056447286	0.34590045
1277225619691	-2.6832085	8.19945	-0.42223078	-1.1690083	0.0	23.6875	-41.6875	16.625	-2.5531776	-0.04890213	0.31625885
1277225619751	-2.4108016	8.349273	-0.8036005	-1.079217	0.0	23.4375	-41.9375	14.125	-2.3016317	-0.09220814	0.28109837
1277225619791	-3.486809	8.430995	-1.2258313	-0.601099	0.0	23.6875	-42.1875	11.3125	-2.266523	-0.1335589	0.3921499
1277225619831	-3.759216	8.308413	-1.1168685	-0.61922264	0.0	24.1875	-42.1875	9.8125	-2.263436	-0.1218663	0.42489696
1277225619861	-3.1054392	8.430995	-1.1849703	-0.74411297	0.0	24.4375	-42.6875	8.0625	-1.7700552	-0.13113028	0.3529155
1277225619891	-2.4516625	8.308413	-1.1168685	-1.0723639	0.0	25.5	-42.6875	7.0625	-1.6390738	-0.12822282	0.28693876
1277225619931	-3.0237172	8.689782	-0.84446156	-0.56715393	0.0	25.25	-42.6875	6.0625	-1.7317228	-0.09152465	0.3348584
1277225619971	-3.759216	8.539958	-1.2666923	-0.39032936	0.0	24.9375	-42.9375	4.8125	-1.244569	-0.13492998	0.41466722
1277225620011	-4.2086873	10.038197	-1.0351465	1.1272402	0.0	24.1875	-43.4375	3.5625	-1.3682989	-0.09481521	0.39700496
1277225620042	-3.5276701	10.841797	-0.9125633	1.6310854	0.0	23.6875	-43.6875	2.0625	-1.3689367	-0.07987021	0.31457275
1277225620081	-3.5276701	12.598822	0.6537767	3.2930517	0.0	23.9375	-43.6875	1.0625	-1.8704891	0.049928494	0.2730087
1277225620121	-1.6480621	13.252599	1.7978859	3.6685076	0.0	23.9375	-43.6875	0.5625	-1.9223742	0.13382131	0.123722486
1277225620151	-0.6946377	12.830367	1.1168685	3.0909557	0.0	24.9375	-42.9375	0.3125	-1.7521665	0.08670361	0.054087322
1277225620191	-1.6480621	11.917805	1.1849703	2.2827806	0.0	24.9375	-42.9375	1.0625	-1.8581005	0.09817468	0.13741422
1277225620231	-3.255263	10.528529	0.7627395	1.2399979	0.0	25.75	-42.6875	2.8125	-2.0444746	0.06910212	0.29986194
1277225620271	-2.4108016	8.158588	0.38136974	-1.2907848	0.0	26.5	-41.6875	5.3125	-2.071021	0.044798423	0.28731635
1277225620311	-1.3075534	5.938472	0.10896278	-3.724955	0.0	26.5	-41.6875	8.5625	-2.0776653	0.017917475	0.2167253
1277225620351	-0.7218784	6.0882955	-0.50395286	-3.6550312	0.0	27.25	-41.4375	12.3125	-1.9421228	-0.082013905	0.11801725
1277225620391	-1.9885708	6.2789803	-1.3756552	-3.0781708	0.0	27.25	-40.1875	15.625	-1.9662752	-0.20590447	0.30670917
1277225620421	-2.070293	6.2789803	-1.6480621	-2.992854	0.0	27.5	-39.6875	18.125	-2.0073717	-0.24429403	0.31849328
1277225620461	-1.6480621	6.2108784	-2.2201166	-3.0081182	0.0	27.5	-38.6875	19.875	-1.8217878	-0.3326599	0.25937358
1277225620501	-1.7978859	6.510526	-2.9556155	-2.4340649	0.0	27.5	-37.6875	20.625	-1.6553807	-0.41249105	0.2694356
1277225620531	-2.5333846	7.8589406	-3.486809	-0.8434572	0.0	27.25	-37.9375	21.125	-1.7209016	-0.39956123	0.31183955
1277225620561	-3.1463003	9.00305	-3.7864566	0.45450783	0.0	26.75	-38.1875	21.875	-1.860503	-0.37794223	0.33620304
1277225620601	-4.3312707	9.302697	-4.372132	1.3475246	0.0	26.25	-38.1875	22.625	-1.9321071	-0.4027749	0.43574515
1277225620631	-5.597963	8.962189	-6.1291566	2.4091015	0.0	26.5	-38.1875	23.625	-0.6658279	-0.5256115	0.55832607
1277225620661	-4.440233	9.697687	-6.8237944	2.8553	0.0	27.0	-38.1875	24.625	-1.135205	-0.56915593	0.42937532
1277225620701	-3.0645783	17.965239	2.3699405	8.571545	0.0	27.25	-37.375	25.125	-2.5443633	0.12931404	0.16895749
1277225620741	1.5390993	10.337844	1.334794	0.7300253	0.0	27.75	-37.6875	25.375	-2.2981875	0.12702206	-0.14779453
1277225620775	0.040861044	6.782933	-2.3699405	-2.6214938	0.0	27.25	-37.375	24.875	-1.9581779	-0.33613238	-0.006024024
1277225620811	-2.8330324	10.501288	4.399372	1.9261074	0.0	27.5	-37.125	24.125	-2.7282834	0.38435888	0.2635063
1277225620841	-3.3642259	10.800936	1.879608	1.6611814	0.0	27.75	-37.6875	23.125	-2.671165	0.16464552	0.30195117
1277225620881	-1.2258313	7.3549876	-1.1168685	-2.2670279	0.0	28.5	-37.375	21.875	-2.1846008	-0.1486804	0.16514868
1277225620911	0.6946377	7.164303	-0.27240697	-2.6035976	0.0	29.25	-37.9375	20.375	-2.0970612	-0.037827287	-0.09665605
1277225620951	-1.1441092	9.193735	0.7218784	-0.5139189	0.0	28.75	-38.9375	18.375	-2.309347	0.07776039	0.123807944
1277225620981	-3.405087	8.539958	-0.0	-0.612875	0.0	28.75	-39.6875	16.375	-2.5089195	-0.0	0.37940598
1277225621011	-2.7513103	7.6954966	-0.46309182	-1.6210022	0.0	28.25	-40.6875	14.375	-2.3050382	-0.056603853	0.34336028
1277225621042	-2.4516625	7.6954966	-0.9942854	-1.6690884	0.0	27.75	-41.4375	12.3125	-2.0013561	-0.12249076	0.308418
1277225621081	-2.7921712	8.240311	-1.525479	-0.9734163	0.0	28.0	-41.6875	11.0625	-1.7607031	-0.17356785	0.326701
1277225621121	-3.0237172	8.281172	-0.84446156	-0.95036507	0.0	27.5	-42.1875	9.5625	-1.973558	-0.09549675	0.35009092
1277225621151	-1.7570249	8.308413	-0.7218784	-1.2838593	0.0	26.75	-42.1875	7.8125	-1.7863796	-0.08480137	0.20840485
1277225621191	-1.6480621	9.043911	-0.7627395	-0.58221436	0.0	26.25	-42.9375	6.8125	-1.7298214	-0.08278135	0.18025106
1277225621231	-3.1463003	9.615966	-1.7570249	0.46238804	0.0	25.25	-43.4375	5.0625	-1.2557067	-0.17194527	0.31621632
1277225621271	-5.202973	11.536434	-0.50395286	2.8588228	0.0	24.6875	-43.9375	3.5625	-1.9090521	-0.039800007	0.42368817
1277225621311	-4.0588636	11.958665	0.8036005	2.8475904	0.0	24.9375	-44.6875	3.3125	-2.1833909	0.0635472	0.32720754
1277225621351	0.53119355	11.686258	0.53119355	1.9037285	0.0	25.75	-44.1875	3.0625	-1.7494917	0.045376495	-0.04542328
1277225621381	1.7978859	13.484144	1.9477097	3.9355516	0.0	26.75	-43.4375	4.0625	-1.8607173	0.14221086	-0.13255152
1277225621411	-0.6537767	13.021052	1.334794	3.298956	0.0	27.75	-41.9375	5.8125	-1.9494531	0.102026	0.05016708
1277225621451	-3.1463003	12.340035	-0.46309182	2.9365883	0.0	29.25	-40.6875	7.3125	-1.868513	-0.0363482	0.2496479
1277225621491	-4.2495484	10.269742	-0.14982383	1.3085966	0.0	30.0	-39.4375	8.8125	-2.1443255	-0.0134795355	0.39234015
1277225621521	-1.7570249	6.891896	-0.040861044	-2.6941938	0.0	30.5	-38.4375	10.8125	-2.0551817	-0.005745029	0.24962331
1277225621561	-0.8036005	4.7943625	-0.6537767	-4.901642	0.0	31.5	-38.1875	12.875	-1.8481106	-0.13368542	0.1660699
1277225621601	-0.84446156	4.3312707	-0.38136974	-5.3773766	0.0	31.5	-36.875	15.125	-2.0176373	-0.08620884	0.19255298
1277225621631	-0.6537767	5.134871	-1.1168685	-4.511207	0.0	31.25	-36.625	17.375	-1.8821931	-0.21250708	0.12663959
1277225621661	-1.525479	5.407278	-2.1111538	-3.8047576	0.0	31.0	-36.125	19.125	-1.7054244	-0.3594378	0.27496967
1277225621701	-2.5333846	6.4424243	-2.9147544	-2.2954144	0.0	30.5	-35.625	20.375	-1.6734917	-0.39851764	0.37466064
1277225621741	-3.8273177	7.5865335	-2.8738933	-0.8365269	0.0	30.25	-35.125	20.875	-2.017756	-0.32613593	0.46723184
1277225621771	-4.7535014	10.528529	-4.5628166	2.613696	0.0	29.75	-34.875	21.875	-1.8866572	-0.3761757	0.42409042
1277225621804	-4.372132	10.760075	-4.8216033	2.7688265	0.0	29.25	-34.625	22.375	-1.8573494	-0.39348903	0.3859506
1277225621841	-5.284695	8.430995	-5.175732	1.4093151	0.0	29.25	-34.125	23.125	-1.5714018	-0.4796415	0.5599052
1277225621881	-3.173541	11.917805	-3.7864566	3.094617	0.0	28.5	-34.875	24.125	-2.106427	-0.29788074	0.2602467
1277225621911	-1.7978859	17.856276	3.2961242	8.440086	0.0	27.5	-34.625	24.375	-2.480162	0.18163899	0.100348316
1277225621951	0.23154591	7.8589406	0.9942854	-1.8816795	0.0	27.0	-35.125	24.375	-2.3644207	0.12579386	-0.029454218
1277225621981	0.3405087	6.4015636	-1.920469	-3.1145525	0.0	25.5	-35.375	24.875	-2.0463235	-0.2910682	-0.053141404
1277225622011	-2.3426998	8.349273	2.9556155	-0.64508533	0.0	24.6875	-35.125	24.625	-2.7674487	0.328486	0.2735532
1277225622042	-5.325556	10.651112	2.4108016	2.343234	0.0	25.25	-35.375	23.875	-2.9327674	0.19974741	0.4636476
1277225622081	-2.8738933	8.771504	-0.6946377	-0.5502424	0.0	25.5	-35.625	22.875	-2.552731	-0.0751146	0.31661758
1277225622121	1.7978859	7.504812	-1.3756552	-1.967835	0.0	25.5	-36.125	21.125	-2.0117269	-0.17640626	-0.23513308
1277225622151	1.2258313	8.471856	-0.38136974	-1.2380772	0.0	25.5	-36.875	19.125	-2.0950046	-0.04452267	-0.14369723
1277225622191	-2.7921712	8.076866	-0.29964766	-1.2555227	0.0	25.25	-37.6875	17.375	-2.5111408	-0.035049062	0.3328388
1277225622231	-3.5957718	7.3958488	-0.95342433	-1.5279322	0.0	24.6875	-38.1875	15.875	-2.6614687	-0.11542181	0.45253697
1277225622271	-3.173541	7.9270425	-1.3075534	-1.1684179	0.0	24.6875	-39.1875	14.125	-2.2728736	-0.15195225	0.38080257
1277225622311	-2.6423476	8.008764	-0.9942854	-1.3148355	0.0	23.6875	-39.9375	12.875	-2.2136893	-0.1173567	0.31868625
1277225622351	-1.607201	8.730643	-1.2258313	-0.8450718	0.0	22.1875	-40.6875	11.3125	-1.9150952	-0.13721763	0.18204919
1277225622391	-4.2495484	8.962189	-1.920469	0.29620552	0.0	21.1875	-41.6875	10.0625	-2.2292445	-0.19125557	0.44276613
1277225622421	-7.164303	13.211738	-1.1168685	5.2640047	0.0	19.9375	-41.9375	8.5625	2.6915936	-0.074176826	0.49688756
1277225622461	-4.5219555	13.443283	1.4982382	4.455702	0.0	19.6875	-42.4375	8.0625	-2.7631474	0.10524264	0.32448363
1277225622501	-1.334794	11.985906	-0.0	2.2533503	0.0	20.1875	-42.4375	8.0625	-2.0539923	-0.0	0.11090666
1277225622531	3.2961242	13.525005	1.6889231	4.216284	0.0	20.9375	-41.4375	9.0625	-1.9847672	0.120733164	-0.23904614
1277225622561	2.7240696	14.1787815	2.6014864	4.8639374	0.0	21.9375	-40.6875	11.3125	-2.110022	0.1782694	-0.18981016
1277225622591	-1.1849703	13.756551	0.08172209	4.0010843	0.0	22.9375	-39.6875	13.375	-2.1817858	0.0059186076	0.08592652
1277225622631	-5.9793324	10.800936	-0.5720546	2.552147	0.0	24.1875	-38.4375	15.625	-2.9554021	-0.046303783	0.50559825
1277225622661	-3.636633	7.3141265	-0.08172209	-1.6379156	0.0	24.4375	-37.375	17.875	-2.8494496	-0.01000442	0.4614105
1277225622701	-0.95342433	5.134871	-0.6537767	-4.543254	0.0	24.6875	-36.625	19.625	-2.258275	-0.12453359	0.18358569
1277225622741	0.040861044	3.718355	-0.61291564	-6.037897	0.0	24.1875	-36.125	21.875	-2.1406634	-0.16335645	-0.010988569
1277225622781	-0.38136974	2.8738933	-0.19068487	-6.901299	0.0	22.6875	-35.625	23.875	-2.4455886	-0.06567951	0.13193062
1277225622811	-0.7218784	4.440233	-1.879608	-4.9312315	0.0	22.1875	-35.625	25.375	-2.0536692	-0.39577946	0.16116662
1277225622851	-1.7978859	7.246025	-4.0588636	-1.3089066	0.0	20.9375	-35.625	26.875	-1.9506296	-0.49796674	0.24320874
1277225622891	-3.9090397	11.073342	-4.5628166	2.7917147	0.0	20.6875	-35.125	27.875	-2.5443988	-0.37060055	0.33935696
1277225622921	-4.944186	9.888372	-5.366417	2.482504	0.0	20.4375	-34.625	28.875	-2.8225472	-0.4519039	0.4636476
1277225622961	-5.938472	10.760075	-6.891896	4.2838745	0.0	19.4375	-34.375	29.875	-3.081167	-0.51107556	0.5042998
1277225623001	-6.4015636	18.38747	-2.1383946	9.78038	0.0	19.1875	-33.375	30.625	-2.8763576	-0.109392054	0.33502412
1277225623031	0.040861044	8.853226	0.53119355	-0.93740845	0.0	19.1875	-32.875	30.625	-2.6052775	0.05992752	-0.0046153525
1277225623061	5.366417	5.434519	-2.1383946	-1.8753729	0.0	19.6875	-33.125	30.625	-2.1952004	-0.27299362	-0.7790931
1277225623101	-0.61291564	9.425281	2.7921712	0.042603493	0.0	19.9375	-33.375	30.125	-2.7119718	0.28743216	0.064937465
1277225623141	-3.9499009	13.484144	3.568531	4.6901865	0.0	19.9375	-34.375	28.875	-2.8941438	0.24871561	0.28495735
1277225623171	-2.7513103	6.891896	-3.405087	-1.6419363	0.0	19.1875	-35.375	27.375	-2.6213672	-0.43019623	0.37982473
1277225623211	0.10896278	3.8681788	-0.23154591	-5.9300156	0.0	18.6875	-36.625	25.625	-2.442052	-0.05976416	-0.028161567
1277225623251	-0.9125633	7.9679036	0.08172209	-1.7862425	0.0	18.9375	-37.375	23.125	-2.5873094	0.010189445	0.11403306
1277225623291	-3.636633	8.62168	-0.84446156	-0.41135406	0.0	19.4375	-38.6875	21.375	-2.9779563	-0.09000277	0.3991579
1277225623331	-2.5333846	7.0553403	-1.2258313	-2.2106953	0.0	19.6875	-39.6875	19.625	-2.7463837	-0.1620883	0.344735
1277225623371	-2.2201166	7.3141265	-0.9942854	-2.0986047	0.0	19.6875	-40.1875	18.125	-2.6131852	-0.12935363	0.29469967
1277225623401	-2.9147544	8.076866	0.53119355	-1.2035275	0.0	19.1875	-41.4375	16.875	-2.9416554	0.06178357	0.34633166
1277225623441	-2.1111538	8.894087	-1.7570249	-0.49811172	0.0	18.4375	-41.9375	15.375	-2.2448056	-0.18989329	0.23305295
1277225623481	-2.6423476	9.615966	-0.6537767	0.18715858	0.0	18.1875	-42.6875	13.625	-2.6099694	-0.06546493	0.2681687
1277225623521	-6.0201936	10.419566	-1.3075534	2.297886	0.0	17.6875	-43.6875	12.0625	2.3865016	-0.10823295	0.52391934
1277225623561	-6.0882955	11.958665	0.23154591	3.614625	0.0	17.4375	-44.1875	10.3125	2.756638	0.017253011	0.4709103
1277225623601	-2.070293	14.560152	1.334794	4.9604015	0.0	17.9375	-44.6875	8.8125	-2.4188647	0.09051356	0.14124218
1277225623641	0.9942854	12.026767	0.9942854	2.3020372	0.0	19.1875	-43.9375	9.3125	-2.0816567	0.08220595	-0.082485124
1277225623671	1.5390993	12.912089	3.214402	3.5882463	0.0	20.9375	-42.9375	10.0625	-2.2143183	0.24233715	-0.118638545
1277225623711	0.95342433	14.1787815	0.88532263	4.4317017	0.0	22.4375	-41.4375	12.625	-2.1105573	0.062218864	-0.067141965
1277225623751	-2.7921712	11.032481	-0.040861044	1.5737514	0.0	24.1875	-40.1875	15.375	-2.4125736	-0.0035904823	0.24788143
1277225623791	-4.2904096	7.7772183	-0.0	-0.9244919	0.0	24.9375	-39.4375	18.625	-2.9931355	-0.0	0.5041197
1277225623821	-2.0294318	3.9499009	-0.08172209	-5.365143	0.0	25.75	-38.6875	21.625	-2.8952284	-0.018400665	0.47462112
1277225623861	-0.27240697	2.0294318	-0.46309182	-7.707304	0.0	26.0	-37.6875	23.875	-2.1735806	-0.22241792	0.13343066
1277225623901	-0.10896278	2.8330324	-0.46309182	-6.9339514	0.0	24.6875	-36.625	26.625	-2.2864554	-0.16191092	0.03844259
1277225623942	-0.6946377	3.9090397	-1.607201	-5.5234027	0.0	23.4375	-36.125	27.875	-2.1497827	-0.3846444	0.17586456
1277225623983	-2.1111538	7.5456724	-4.903325	-0.5634508	0.0	21.9375	-35.625	28.625	-1.8197315	-0.5591658	0.27280784
1277225624021	-4.0588636	14.750836	-4.0180025	6.0112476	0.0	21.4375	-35.875	29.875	-2.6030214	-0.25683042	0.26851642
1277225624061	-4.0588636	13.525005	-6.973618	5.9423656	0.0	21.1875	-35.625	30.625	-2.3358984	-0.45871583	0.29154918
1277225624111	-3.7864566	15.322891	-0.6537767	5.9906816	0.0	20.9375	-34.875	31.875	-2.764961	-0.041397087	0.24225786
1277225624151	-0.95342433	11.454713	0.92618364	1.724927	0.0	21.1875	-34.625	32.375	-2.6632533	0.080403775	0.08304282
1277225624191	0.313268	6.4424243	-0.0	-3.356614	0.0	21.4375	-34.625	31.375	-2.507073	-0.0	-0.048587527
1277225624231	-4.099725	8.240311	2.8330324	-0.17666912	0.0	22.1875	-34.125	30.375	-3.0281165	0.2986066	0.46166217
1277225624271	-2.7921712	9.847511	0.5720546	0.4450302	0.0	22.6875	-35.375	28.375	-2.7625782	0.055830058	0.27628905
1277225624311	-1.4165162	7.0553403	-1.4982382	-2.4562035	0.0	22.9375	-35.875	27.125	-2.4456193	-0.205268	0.19813794
1277225624351	0.6537767	6.6331096	-0.0	-3.1413994	0.0	22.9375	-36.875	25.875	-2.345322	-0.0	-0.09824531
1277225624391	-2.070293	8.689782	-0.46309182	-0.8616581	0.0	22.9375	-39.1875	23.875	-2.5918808	-0.051794223	0.23388444
1277225624422	-3.173541	7.4639506	-1.0760075	-1.6249809	0.0	22.9375	-39.9375	22.125	-2.8099504	-0.13189653	0.4020252
1277225624461	-3.0237172	6.66035	-0.6946377	-2.459158	0.0	22.6875	-40.9375	20.125	-2.9069152	-0.094682194	0.42616516
1277225624491	-2.6014864	7.246025	-0.61291564	-2.0834208	0.0	22.1875	-41.4375	18.375	-2.7019067	-0.07944355	0.34469002
1277225624531	-3.1463003	9.384419	-1.1441092	0.15705967	0.0	21.4375	-42.1875	16.375	-2.5758886	-0.11508148	0.32349122
1277225624571	-4.5219555	9.343558	-1.1849703	0.64104366	0.0	20.9375	-42.6875	14.375	-3.1134267	-0.113663904	0.45073754
1277225624611	-6.0474343	10.61025	-0.7218784	2.4273186	0.0	20.4375	-43.6875	13.375	2.7883325	-0.059040368	0.51803946
1277225624641	-4.944186	13.0619135	1.1168685	4.2042723	0.0	19.6875	-44.1875	12.0625	-2.9688392	0.079798795	0.36185253
1277225624671	-1.7978859	13.797412	2.0294318	4.254628	0.0	19.1875	-43.9375	11.5625	-2.5057893	0.1448335	0.12957592
1277225624711	0.313268	13.211738	0.88532263	3.4384222	0.0	19.6875	-43.9375	12.0625	-2.1954372	0.06689153	-0.023706898
1277225624751	3.1463003	12.639683	1.920469	3.3595562	0.0	20.6875	-43.1875	13.125	-2.1127696	0.14638576	-0.24396421
1277225624791	0.50395286	12.4489975	2.9147544	2.988947	0.0	22.1875	-41.9375	15.125	-2.3604202	0.22981104	-0.040459312
1277225624831	-3.9771416	11.536434	-0.5720546	2.4094954	0.0	23.9375	-40.9375	17.625	-2.599687	-0.046844885	0.3319867
1277225624871	-4.140586	8.390134	-0.7218784	-0.42262554	0.0	25.5	-39.4375	20.125	-2.8241248	-0.077002384	0.45843938
1277225624911	-1.7297841	4.7126403	-0.27240697	-4.779192	0.0	26.0	-37.375	22.125	-2.6122258	-0.054210383	0.35178444
1277225624951	-0.84446156	3.214402	-0.42223078	-6.45646	0.0	25.75	-36.625	24.875	-2.4640663	-0.12636794	0.25690654
1277225624991	-0.38136974	3.0645783	-0.3405087	-6.6997175	0.0	24.9375	-35.125	27.375	-2.416944	-0.10981703	0.123807944
1277225625021	-0.27240697	3.990762	-1.525479	-5.5255904	0.0	23.1875	-34.625	29.625	-2.1900442	-0.36433935	0.068153664
1277225625061	-1.0760075	6.5513873	-3.636633	-2.2367382	0.0	22.4375	-34.875	31.125	-2.0712922	-0.5011179	0.1627878
1277225625101	-3.6774938	11.454713	-4.671779	3.0991592	0.0	21.4375	-34.125	31.625	-2.5649946	-0.37040225	0.31065184
1277225625141	-4.903325	11.958665	-5.8567495	4.3832684	0.0	21.1875	-34.125	32.125	-2.6655216	-0.4254604	0.38911673
1277225625171	-4.7943625	13.715691	-6.5513873	6.131567	0.0	20.9375	-33.875	32.125	-2.5683398	-0.42360446	0.33627665
1277225625211	-5.366417	18.578154	-0.29964766	9.53336	0.0	20.1875	-33.125	32.375	-2.8310668	-0.015494286	0.28120214
1277225625251	-0.3405087	8.471856	0.84446156	-1.2860041	0.0	20.9375	-33.125	32.375	-2.638281	0.09927066	0.040171307
1277225625291	1.2258313	4.399372	-0.38136974	-5.223793	0.0	21.1875	-32.875	32.375	-2.3707976	-0.08331293	-0.2717451
1277225625331	-1.9477097	9.112013	4.5628166	0.5683994	0.0	21.6875	-32.625	31.375	-2.8268921	0.45536202	0.21058287
1277225625381	-3.7864566	9.152874	-1.879608	0.2752781	0.0	21.9375	-33.625	29.875	-2.8163352	-0.18753064	0.3922525
1277225625411	-0.23154591	5.2165933	-0.8036005	-4.5234475	0.0	21.9375	-34.875	28.125	-2.4025304	-0.1526975	0.044357307
1277225625441	0.46309182	6.4424243	0.19068487	-3.3447895	0.0	21.6875	-36.375	25.375	-2.3986166	0.029513568	-0.07175819
1277225625481	-2.7240696	8.894087	-0.42223078	-0.4951725	0.0	21.6875	-38.1875	23.125	-2.71746	-0.045360748	0.2972071
1277225625521	-4.0588636	7.504812	-1.1168685	-1.2017689	0.0	21.6875	-39.1875	20.875	-3.1124372	-0.13016199	0.49577942
1277225625561	-3.255263	7.1234417	-0.84446156	-1.9292598	0.0	21.4375	-39.9375	19.125	-2.9397573	-0.10740708	0.42864245
1277225625601	-3.718355	8.19945	-1.3756552	-0.6989851	0.0	21.1875	-40.4375	17.375	-2.8945723	-0.15162396	0.42575106
1277225625641	-3.2961242	8.730643	-1.1441092	-0.40465355	0.0	20.6875	-40.9375	16.125	-2.703733	-0.12199025	0.36099136
1277225625681	-3.8273177	9.575105	-0.95342433	0.54902554	0.0	20.1875	-41.4375	15.375	-2.846644	-0.09219837	0.3802611
1277225625721	-5.053149	11.114203	-0.29964766	2.4060326	0.0	19.6875	-42.1875	14.125	-3.1060698	-0.02453824	0.42671984
1277225625761	-4.4810944	12.9529505	0.08172209	3.899765	0.0	19.6875	-42.9375	13.875	-2.8294582	0.0059623593	0.33306372
1277225625801	-0.27240697	12.53072	-0.27240697	2.72999	0.0	19.9375	-42.4375	14.125	-2.1773808	-0.021730576	0.021735707
1277225625841	3.718355	12.830367	1.7978859	3.6721058	0.0	20.9375	-41.6875	14.875	-2.1176162	0.13378538	-0.28208116
1277225625881	-0.88532263	13.633968	1.6889231	3.9600248	0.0	21.9375	-40.4375	16.625	-2.4136739	0.122991845	0.06484403
1277225625912	-4.2086873	11.876944	-0.88532263	2.8250017	0.0	23.4375	-39.1875	18.875	-2.6207066	-0.07014515	0.34055173
1277225625951	-4.1814466	8.853226	-1.0760075	0.04331875	0.0	24.4375	-38.4375	20.625	-2.791605	-0.109458126	0.44124934
1277225625981	-1.3075534	6.3607025	-0.23154591	-3.308816	0.0	24.9375	-37.125	22.625	-2.4656224	-0.035641868	0.2027431
1277225626011	-0.14982383	3.759216	-0.38136974	-6.0251694	0.0	25.25	-36.125	24.625	-2.2882013	-0.10102371	0.039833993
1277225626051	-0.08172209	2.5333846	-0.7218784	-7.171157	0.0	24.6875	-34.875	26.125	-2.1487427	-0.2774524	0.032246884
1277225626091	-0.7218784	3.173541	-1.3756552	-6.2732525	0.0	23.6875	-33.875	27.625	-2.1654558	-0.39990327	0.22366208
1277225626131	-2.2201166	5.134871	-2.4925237	-3.6822324	0.0	22.6875	-34.125	28.375	-2.4879563	-0.41914687	0.4080887
1277225626161	-3.2961242	7.5456724	-4.671779	-0.33948994	0.0	22.1875	-33.875	28.625	-2.2252007	-0.5160772	0.41184217
1277225626201	-4.671779	11.604536	-3.9499009	3.3117523	0.0	21.4375	-34.375	28.875	-2.7153397	-0.30584198	0.3827304
1277225626241	-5.284695	12.721405	-6.3198414	5.349291	0.0	21.4375	-34.875	29.375	-2.5636525	-0.43012863	0.39372632
1277225626281	-4.7943625	11.75436	-5.407278	3.9915218	0.0	21.6875	-34.625	30.125	-2.6111155	-0.40267813	0.38728052
1277225626321	-1.525479	16.467001	2.4108016	6.905655	0.0	21.4375	-34.625	30.375	-2.666814	0.14475812	0.09237489
1277225626361	1.9885708	7.6954966	-0.61291564	-1.8347778	0.0	21.6875	-34.375	30.375	-2.331008	-0.07696073	-0.25287542
1277225626401	-1.9477097	7.082581	0.50395286	-2.443873	0.0	21.9375	-34.125	29.625	-2.7820976	0.06849959	0.2683662
1277225626441	-3.336985	8.689782	3.486809	0.13345146	0.0	22.1875	-34.625	28.125	-2.939288	0.35840604	0.36664852
1277225626481	-3.9499009	8.921328	-1.0760075	0.009132385	0.0	22.6875	-35.125	26.625	-2.8524814	-0.109840885	0.41680688
1277225626521	1.0760075	6.5922484	-0.84446156	-3.0739946	0.0	22.4375	-35.625	24.375	-2.19835	-0.12575893	-0.16179635
1277225626561	-0.0	7.3958488	-0.040861044	-2.4106884	0.0	22.4375	-37.125	22.375	-2.3501878	-0.0055248057	0.0
1277225626601	-4.2495484	8.308413	-0.61291564	-0.45442867	0.0	22.4375	-37.9375	20.625	-2.9901602	-0.06558391	0.4727857
1277225626641	-3.3642259	6.8237944	-1.1168685	-2.117074	0.0	22.4375	-38.9375	18.375	-2.8974156	-0.14576007	0.45804316
1277225626671	-3.636633	7.0553403	-1.1441092	-1.787179	0.0	22.4375	-40.4375	16.625	-2.998857	-0.14315486	0.47592634
1277225626711	-3.568531	8.812365	-1.0760075	-0.23847485	0.0	22.1875	-40.1875	15.375	-2.646514	-0.11269531	0.38476282
1277225626751	-3.0645783	9.112013	-1.1168685	-0.12843704	0.0	21.6875	-41.4375	13.625	-2.411249	-0.11565797	0.32443872
1277225626792	-4.5219555	10.528529	-0.88532263	1.6860342	0.0	20.9375	-42.6875	13.125	-2.8931122	-0.07710997	0.40567216
1277225626831	-4.7943625	13.0619135	0.42223078	4.113759	0.0	21.1875	-42.4375	12.625	-2.7828922	0.030336432	0.3517818
1277225626871	-2.6423476	12.53072	0.7627395	3.0223293	0.0	21.4375	-43.4375	12.3125	-2.4689126	0.0594895	0.2078249
1277225626911	2.0294318	14.246883	0.7627395	4.604251	0.0	22.6875	-42.4375	13.375	-2.0672905	0.052952696	-0.1414955
1277225626951	1.6480621	14.1787815	2.4516625	4.6766024	0.0	23.9375	-40.6875	14.375	-2.195721	0.17009471	-0.115715146
1277225626991	-3.214402	11.727119	-1.2258313	2.4146576	0.0	25.5	-39.4375	16.125	-2.2548702	-0.100471735	0.26752916
1277225627031	-5.325556	8.662541	-1.1168685	0.42313766	0.0	27.0	-37.6875	18.125	-2.8950725	-0.109396145	0.5512162
1277225627061	-1.56634	4.944186	0.46309182	-4.59965	0.0	27.75	-36.375	20.125	-2.5666895	0.089054056	0.3068015
1277225627091	-0.08172209	2.6014864	-0.14982383	-7.1995716	0.0	27.75	-35.375	22.625	-2.2270668	-0.057499778	0.03140329
1277225627131	0.08172209	2.6423476	-1.0760075	-6.952448	0.0	27.25	-34.625	24.625	-1.9128437	-0.38654503	-0.030917978
1277225627161	-0.88532263	4.0180025	-1.6480621	-5.374467	0.0	26.0	-34.125	25.625	-2.0472817	-0.38099015	0.21687362
1277225627201	-1.6889231	4.944186	-2.6832085	-3.9332314	0.0	24.4375	-34.125	26.375	-1.969882	-0.4744388	0.32917002
1277225627241	-2.982856	7.668256	-4.2495484	-0.5460758	0.0	23.6875	-34.125	26.125	-2.019884	-0.47674105	0.37097698
1277225627281	-4.5219555	14.709975	-4.5900574	6.252617	0.0	23.1875	-34.125	26.125	-2.4189663	-0.28986186	0.29823866
1277225627321	-4.630918	10.923519	-6.973618	3.955618	0.0	23.6875	-33.625	26.875	-1.8824115	-0.53137606	0.40097257
1277225627361	-3.2961242	12.108489	-3.1463003	3.1308594	0.0	23.6875	-33.375	27.125	-2.448553	-0.2456554	0.2657761
1277225627391	-1.56634	15.704261	1.5390993	6.0504	0.0	23.9375	-33.125	27.625	-2.555485	0.09721394	0.09941103
1277225627421	-0.14982383	8.580819	0.88532263	-1.1789799	0.0	23.9375	-33.375	27.875	-2.499016	0.10279527	0.017458543
1277225627461	-1.4165162	6.932757	-0.29964766	-2.724318	0.0	23.9375	-34.125	27.125	-2.5636358	-0.042321812	0.20154804
1277225627501	-2.9147544	8.771504	3.0645783	-0.068748474	0.0	24.1875	-33.875	27.125	-2.8312569	0.32014716	0.32081854
1277225627541	-2.6832085	9.615966	-0.14982383	0.17778015	0.0	24.4375	-34.375	26.125	-2.6309721	-0.01500631	0.27211532
1277225627581	-1.1441092	7.504812	-0.7627395	-2.1769085	0.0	24.6875	-34.625	24.625	-2.3942902	-0.10013651	0.15128526
1277225627621	0.50395286	7.0553403	-0.10896278	-2.7324953	0.0	24.6875	-35.125	23.375	-2.271026	-0.015403549	-0.071307465
1277225627661	-3.1463003	8.049625	-0.50395286	-1.1493034	0.0	24.9375	-36.375	20.875	-2.6430368	-0.05824393	0.37260488
1277225627691	-4.630918	7.273266	-1.0351465	-1.1223354	0.0	24.9375	-37.375	18.375	-3.0670815	-0.119481325	0.5669715
1277225627731	-3.5276701	6.8237944	-1.4982382	-1.9801984	0.0	24.6875	-38.1875	16.625	-2.6204624	-0.19262156	0.47712818
1277225627771	-3.445948	8.240311	-1.56634	-0.7385359	0.0	23.9375	-38.6875	14.375	-2.3002074	-0.17360117	0.39608142
1277225627811	-3.568531	8.471856	-0.8036005	-0.5788374	0.0	22.9375	-39.6875	12.625	-2.554544	-0.08719505	0.39866617
1277225627841	-4.0588636	9.193735	-1.607201	0.37088585	0.0	21.6875	-40.6875	11.8125	-2.482999	-0.15858033	0.41574737
1277225627881	-4.440233	11.032481	-1.2666923	2.1531086	0.0	20.9375	-41.4375	10.3125	-2.505815	-0.10611188	0.38263312
