#timestamp	accel_x	accel_y	accel_z	accel_mag	temperature	mag_x	mag_y	mag_z	azimuth	pitch	roll
1277308105698	2.6832085	1.7297841	9.343558	0.06724644	0.0	-4.3125	5.6875	-58.25	0.37053823	1.241558	-0.9981771
1277308105739	2.6832085	1.6480621	9.425281	0.1307354	0.0	-2.375	4.1875	-58.25	0.25289345	1.248362	-1.0199914
1277308105785	2.9147544	1.7978859	9.043911	-0.13604927	0.0	-0.375	2.5	-58.5	0.10698634	1.2088133	-1.0180991
1277308105818	2.7649305	1.3756552	9.152874	-0.1468172	0.0	1.125	1.25	-58.5	0.030608395	1.2453837	-1.1091211
1277308105848	2.8738933	1.4982382	9.534244	0.2633934	0.0	0.625	1.25	-58.75	0.040992405	1.2431198	-1.090233
1277308105881	3.0645783	1.6480621	9.575105	0.38110638	0.0	0.625	1.25	-58.5	0.03821007	1.2222316	-1.0773852
1277308105919	3.1054392	1.56634	9.615966	0.41900253	0.0	0.625	1.5	-58.75	0.04999012	1.2237362	-1.103646
1277308105958	3.336985	1.3756552	9.234595	0.108270645	0.0	-0.125	1.5	-59.0	0.065396056	1.1981955	-1.1797787
1277308105998	3.2961242	1.7297841	8.894087	-0.16500282	0.0	-0.625	1.75	-59.25	0.07943538	1.1744186	-1.0875113
1277308106038	3.255263	1.607201	9.00305	-0.099191666	0.0	-1.875	2.0	-59.75	0.12082181	1.1874985	-1.1121823
1277308106080	3.3778462	1.334794	8.894087	-0.19955349	0.0	-3.125	2.25	-60.0	0.15488087	1.1831017	-1.1944683
1277308106118	3.5957718	1.3075534	9.084772	0.050953865	0.0	-3.5625	3.0	-59.25	0.191188	1.1721838	-1.2220253
1277308106158	3.5957718	1.3756552	9.193735	0.160635	0.0	-3.8125	2.75	-58.75	0.19113171	1.1742259	-1.2054005
1277308106188	3.568531	1.5390993	9.152874	0.1371088	0.0	-4.0625	2.75	-58.25	0.20056807	1.1692665	-1.1636035
1277308106228	3.568531	1.4165162	8.812365	-0.19422626	0.0	-3.5625	2.0	-58.0	0.15134151	1.1599126	-1.192925
1277308106269	3.636633	0.95342433	9.00305	-0.050164223	0.0	-3.5625	1.5	-58.5	0.11886975	1.1752232	-1.3143946
1277308106308	3.7864566	1.7978859	8.921328	0.05031395	0.0	-4.0625	1.5	-58.75	0.1383624	1.1315646	-1.1274947
1277308106351	3.6774938	1.3075534	9.80665	0.7481613	0.0	-3.8125	1.25	-59.0	0.1293808	1.1920166	-1.2291808
1277308106389	3.759216	1.334794	9.275456	0.2902546	0.0	-4.0625	1.5	-59.0	0.13605677	1.1646335	-1.2296097
1277308106428	4.099725	1.0760075	8.812365	-0.02793312	0.0	-4.5625	1.75	-59.0	0.1288865	1.1224797	-1.3141268
1277308106469	3.9090397	1.4982382	8.689782	-0.16104889	0.0	-5.0625	2.25	-58.75	0.17628779	1.1218531	-1.2047905
1277308106508	3.718355	1.7570249	9.084772	0.16563034	0.0	-6.0625	2.5	-58.75	0.23556918	1.1457083	-1.1293672
1277308106548	3.9090397	1.7570249	8.921328	0.090714455	0.0	-7.0625	2.75	-58.75	0.25594363	1.1229553	-1.1483771
1277308106589	3.9090397	2.0294318	8.580819	-0.16146278	0.0	-7.3125	2.25	-59.0	0.23830466	1.0965732	-1.0919355
1277308106633	3.5957718	1.9477097	8.921328	0.0072803497	0.0	-6.8125	1.5	-59.25	0.22550465	1.1409922	-1.0743736
1277308106679	2.8738933	2.3426998	9.724928	0.60112286	0.0	-5.0625	-0.25	-59.5	0.17117502	1.2065454	-0.88687605
1277308106768	2.4516625	1.8387469	9.302697	-0.012171745	0.0	-3.5625	-1.25	-59.5	0.074707985	1.2525638	-0.9272952
1277308106798	2.8330324	1.8387469	8.471856	-0.6863756	0.0	-1.125	-2.75	-59.25	-0.08590358	1.1914412	-0.9950974
1277308106850	3.0237172	2.9556155	8.471856	-0.3382349	0.0	1.125	-4.4375	-59.25	-0.16085659	1.107869	-0.7967872
1277308106922	0.42223078	3.255263	8.894087	-0.3261547	0.0	3.125	-5.1875	-59.0	-0.23147722	1.2172354	-0.12898697
1277308106968	-0.08172209	4.5628166	8.62168	-0.051685333	0.0	6.3125	-8.1875	-57.75	-0.30355236	1.0839761	0.017908532
1277308107009	-0.23154591	5.5162406	7.8180795	-0.2356062	0.0	9.0625	-11.625	-55.8125	-0.36532426	0.955924	0.04195068
1277308107048	-0.38136974	6.1291566	6.5922484	-0.797225	0.0	12.5	-15.625	-53.5625	-0.4385662	0.82082117	0.062142108
1277308107090	0.84446156	5.7477865	8.158588	0.20897388	0.0	15.0	-20.3125	-51.125	-0.8683956	0.9520153	-0.14587583
1277308107128	0.46309182	5.8976107	7.8180795	-0.0026388168	0.0	17.5	-23.3125	-49.375	-1.0007974	0.9230354	-0.07836115
1277308107159	-0.3405087	6.0474343	5.938472	-1.3241472	0.0	19.9375	-25.5	-47.6875	-0.87448126	0.77551633	0.056246914
1277308107200	-0.29964766	7.4639506	5.7886477	-0.35631752	0.0	21.9375	-27.0	-45.6875	-0.83018255	0.6592621	0.04012444
1277308107238	-1.6480621	9.507003	5.7477865	1.4243898	0.0	25.875	-27.5	-43.5	-0.7748102	0.5372518	0.17164662
1277308107278	-2.6423476	9.534244	5.7477865	1.6354151	0.0	29.875	-27.5	-40.5	-0.88082236	0.5263008	0.2703573
1277308107375	-6.3607025	8.281172	4.9850473	1.764307	0.0	34.3125	-26.0	-37.0625	-0.63127106	0.44540578	0.6549798
1277308107439	-6.1700177	1.0760075	5.407278	-1.532258	0.0	39.25	-19.5625	-35.375	1.625673	0.71219337	1.3981397
1277308107489	0.08172209	0.6946377	8.499097	-1.278822	0.0	36.8125	-9.6875	-38.5625	-1.6274903	1.4886868	-0.11710875
1277308107548	-2.7921712	1.4982382	10.079058	0.75878143	0.0	33.3125	1.0	-43.0	-2.2930896	1.2661915	1.0783105
1277308107588	-1.879608	-1.879608	10.501288	1.0258427	0.0	28.125	10.875	-48.375	2.4543865	1.3228762	2.3561945
1277308107618	-3.7864566	0.10896278	9.425281	0.35135365	0.0	21.4375	15.875	-52.8125	-1.5565356	1.1886526	1.5420272
1277308107648	-3.9090397	0.7627395	9.112013	0.13775253	0.0	19.4375	16.875	-53.5625	-1.241496	1.158731	1.3780955
1277308107689	-1.879608	1.3075534	10.119919	0.5690613	0.0	16.5	15.625	-54.5625	-1.2443544	1.3482877	0.96299434
1277308107718	-1.1168685	1.4573772	10.528529	0.880785	0.0	13.0	13.375	-56.0625	-0.98290175	1.3981378	0.65388644
1277308107758	-0.3405087	1.8387469	9.656827	0.02957058	0.0	10.0625	10.875	-57.25	-0.5450798	1.3795176	0.18311082
1277308107788	-1.4165162	1.5390993	9.765789	0.18064117	0.0	8.8125	9.1875	-57.75	-0.778989	1.3597945	0.74394727
1277308107820	-1.3075534	1.3075534	9.343558	-0.28186798	0.0	8.8125	8.1875	-57.5	-0.8420918	1.3754135	0.7853982
1277308107862	-2.3426998	1.1849703	8.281172	-1.1192913	0.0	10.5625	7.9375	-56.75	-0.7969211	1.2637945	1.1025083
1277308107898	-4.2904096	1.4165162	9.425281	0.64562416	0.0	14.25	8.4375	-55.3125	-0.7247502	1.1237884	1.2519057
1277308107938	-4.5219555	0.7627395	7.9679036	-0.61331844	0.0	18.6875	9.6875	-53.3125	-0.8113967	1.0485576	1.4036945
1277308107968	-5.012288	0.0	8.662541	0.20147991	0.0	23.6875	11.375	-50.875	-1.158385	1.0462484	1.5707964
1277308108008	-6.428804	0.38136974	9.534244	1.6988602	0.0	27.875	13.125	-48.125	-1.2733037	0.9767231	1.5115438
1277308108049	-5.243834	0.50395286	6.932757	-1.0994759	0.0	30.125	14.875	-46.4375	-1.2769535	0.9210082	1.4749867
1277308108088	-5.47538	0.88532263	6.510526	-1.2538414	0.0	30.875	15.875	-45.4375	-1.1922157	0.86518466	1.4104922
1277308108128	-6.0201936	0.92618364	6.8237944	-0.65980816	0.0	30.625	16.625	-44.6875	-1.1649156	0.8420763	1.418147
1277308108168	-5.47538	0.92618364	8.19945	0.096307755	0.0	31.375	17.375	-44.4375	-1.4947481	0.9754955	1.4032283
1277308108208	-6.782933	0.84446156	6.851035	-0.1289444	0.0	32.5625	17.625	-43.25	-1.1661472	0.78654796	1.4469357
1277308108248	-9.466142	0.313268	5.938472	1.3724117	0.0	34.8125	17.8125	-41.0	-0.85250324	0.56003255	1.5377148
1277308108288	-9.084772	0.8036005	7.7363577	2.1528683	0.0	37.8125	17.375	-38.5625	-1.2864171	0.7034843	1.4825702
1277308108328	-9.425281	0.46309182	6.891896	1.8787508	0.0	40.0	16.875	-36.3125	-1.2501314	0.63079494	1.5217029
1277308108368	-8.662541	0.27240697	7.668256	1.7655573	0.0	42.0	16.125	-34.625	-1.6594318	0.72434384	1.5393602
1277308108408	-7.5865335	-0.50395286	4.7943625	-0.8180256	0.0	43.25	14.625	-33.125	-1.2055185	0.56259274	1.6371262
1277308108448	-8.662541	-0.53119355	4.5219555	-0.020442009	0.0	44.75	13.125	-31.375	-0.9890492	0.48033276	1.6320404
1277308108488	-8.499097	0.14982383	3.486809	-0.6188898	0.0	46.4375	11.625	-29.1875	-0.9206468	0.38926217	1.55317
1277308108528	-7.3141265	0.5720546	1.879608	-2.233235	0.0	47.9375	9.9375	-26.5	-0.772489	0.25080618	1.4927429
1277308108568	-8.539958	1.6480621	1.2258313	-1.0231619	0.0	49.4375	8.1875	-24.25	-0.7840284	0.14001793	1.3801575
1277308108608	-9.084772	4.2904096	2.7921712	0.6210489	0.0	50.4375	6.6875	-21.8125	-1.2369131	0.27107242	1.1295828
1277308108648	-7.3141265	3.568531	-0.19068487	-1.6661825	0.0	50.6875	4.6875	-18.375	-0.9380359	-0.023426456	1.116879
1277308108688	-8.921328	5.407278	-0.46309182	0.635725	0.0	51.6875	2.5	-15.625	-1.0264488	-0.044361915	1.0258986
1277308108728	-8.267551	3.9499009	1.0351465	-0.58571434	0.0	52.1875	0.5	-13.4375	-1.231852	0.1124976	1.125099
1277308108768	-8.267551	2.4516625	2.2609777	-0.89177036	0.0	52.1875	-1.5	-12.1875	-1.645934	0.25641915	1.2825165
1277308108808	-8.117727	2.9556155	1.4573772	-1.045537	0.0	52.6875	-3.25	-11.9375	-1.3506198	0.16712299	1.2216213
1277308108848	-7.5865335	2.4108016	0.6537767	-1.8194804	0.0	52.6875	-4.1875	-11.6875	-1.014854	0.08194504	1.2631141
1277308108908	-9.425281	4.4810944	3.5276701	1.2097273	0.0	52.1875	-5.9375	-11.9375	-1.8343827	0.32596228	1.1269944
1277308108948	-8.349273	3.405087	1.334794	-0.69146156	0.0	52.4375	-7.6875	-12.6875	-1.1942449	0.14696471	1.183558
1277308108988	-7.205164	6.0201936	2.7240696	-0.030266762	0.0	52.1875	-8.9375	-13.9375	-1.5471245	0.2823754	0.87475795
1277308109028	-7.205164	6.1291566	2.6832085	0.025976181	0.0	51.6875	-9.9375	-16.125	-1.455105	0.27639398	0.8659183
1277308109068	-7.9679036	7.43671	2.4516625	1.3648672	0.0	51.6875	-10.4375	-17.375	-1.3194656	0.22125739	0.8198673
1277308109108	-7.5456724	4.440233	2.5333846	-0.6923275	0.0	50.6875	-10.4375	-18.8125	-1.3101382	0.28166604	1.0389146
1277308109148	-7.5865335	3.759216	2.9147544	-0.85215473	0.0	49.9375	-10.6875	-20.8125	-1.2946473	0.3315483	1.1107458
1277308109188	-6.2108784	3.9090397	2.4516625	-2.0693216	0.0	49.1875	-11.625	-22.3125	-1.2187703	0.32241875	1.0090493
1277308109228	-6.0201936	11.073342	3.405087	3.249239	0.0	47.9375	-12.625	-25.25	-1.1648198	0.2638596	0.49796683
1277308109268	-6.5513873	5.7886477	4.2495484	-0.086167336	0.0	46.4375	-14.125	-27.9375	-1.289597	0.45245478	0.84712976
1277308109308	-5.5162406	7.082581	5.5571017	0.7514391	0.0	44.0	-16.125	-31.1875	-1.3490733	0.55428547	0.6617085
1277308109348	-5.5162406	8.240311	5.8567495	1.7099962	0.0	40.75	-17.625	-34.375	-1.1550351	0.5334958	0.58990735
1277308109388	-4.7535014	7.246025	5.284695	0.34365273	0.0	37.5625	-18.5625	-37.0625	-1.0269326	0.54760516	0.5805921
1277308109428	-4.8216033	6.932757	6.6331096	0.93155766	0.0	32.8125	-20.0625	-40.5	-0.99267477	0.66582876	0.60768694
1277308109468	-4.2495484	3.2961242	7.504812	-0.5738125	0.0	27.875	-21.3125	-43.25	-3.0684862	0.9490097	0.9110859
1277308109508	-2.4108016	4.2904096	7.3958488	-0.9230614	0.0	21.9375	-21.0625	-46.6875	-1.3877752	0.98365796	0.5119372
1277308109548	-0.46309182	3.568531	7.668256	-1.3360529	0.0	16.5	-21.3125	-49.125	-1.584487	1.1320367	0.1290498
1277308109588	0.95342433	4.5219555	6.973618	-1.4407406	0.0	12.75	-21.0625	-51.375	-0.89837414	0.9855492	-0.20779979
1277308109628	0.95342433	5.407278	8.894087	0.64573956	0.0	10.3125	-20.8125	-52.5625	-0.86671907	1.0177231	-0.1745285
1277308109668	-0.0	5.6660647	9.302697	1.0857544	0.0	10.3125	-22.5625	-52.3125	-0.91449803	1.0237287	0.0
1277308109708	1.7297841	6.932757	8.008764	0.92626953	0.0	10.0625	-24.3125	-52.0625	-0.69220895	0.8423159	-0.24451634
1277308109748	1.0760075	5.8567495	8.430995	0.51521873	0.0	10.0625	-25.25	-51.625	-0.921191	0.9558579	-0.18169475
1277308109788	0.10896278	4.440233	9.765789	0.92173195	0.0	9.5625	-25.25	-51.625	-1.7066238	1.1439502	-0.024534952
1277308109828	-0.14982383	3.255263	11.223166	1.8800364	0.0	7.3125	-24.3125	-52.0625	-2.545988	1.288211	0.04599265
1277308109876	2.2609777	3.0645783	11.182305	2.0063772	0.0	4.0625	-21.5625	-53.3125	-1.3835081	1.2425462	-0.6356329
1277308109909	4.1814466	1.0760075	7.082581	-1.5117579	0.0	0.125	-17.8125	-54.5625	-0.6102321	1.0233345	-1.3189317
1277308109948	12.871228	0.42223078	3.214402	3.4666004	0.0	-4.0625	-14.625	-56.0625	-0.26536345	0.24460326	-1.5380038
1277308109978	5.9793324	1.9477097	7.43671	-0.067521095	0.0	-7.8125	-13.125	-56.5	-0.34829476	0.8688562	-1.255895
1277308110018	5.5571017	0.8036005	7.5456724	-0.40110302	0.0	-10.3125	-13.875	-56.0625	-0.47749266	0.9310676	-1.427184
1277308110059	7.668256	2.070293	7.0553403	0.81719494	0.0	-12.0	-16.375	-55.0625	-0.39242676	0.72629505	-1.307101
1277308110098	6.0201936	1.9477097	7.082581	-0.3093214	0.0	-12.75	-19.3125	-53.3125	-0.58035046	0.84165174	-1.2578951
1277308110138	6.1291566	1.8387469	7.7363577	0.23320961	0.0	-12.25	-21.3125	-52.8125	-0.70386237	0.87972605	-1.2793396
1277308110178	5.9793324	2.4516625	7.8589406	0.36812305	0.0	-11.75	-22.5625	-52.8125	-0.7249132	0.88260293	-1.1816796
1277308110218	5.7477865	3.486809	7.6273947	0.36055374	0.0	-10.75	-23.3125	-52.3125	-0.6567072	0.8483582	-1.0255123
1277308110258	5.243834	3.9090397	7.246025	-0.04533577	0.0	-9.5625	-24.5625	-52.3125	-0.64800286	0.83652717	-0.9302107
1277308110298	4.862464	4.6036777	7.5865335	0.31228733	0.0	-8.8125	-25.5	-52.0625	-0.64644927	0.84766334	-0.8127294
1277308110338	4.4810944	5.012288	7.5456724	0.29980373	0.0	-6.8125	-26.5	-51.375	-0.6653081	0.84296554	-0.7295023
1277308110378	3.9090397	5.47538	7.082581	-0.03816414	0.0	-5.0625	-27.5	-50.625	-0.6230147	0.8110981	-0.62001413
1277308110428	3.405087	6.3607025	7.205164	0.3897972	0.0	-3.125	-28.25	-49.625	-0.5708468	0.7847308	-0.49151203
1277308110468	3.1463003	6.8237944	7.3549876	0.7080641	0.0	-0.625	-29.5	-48.625	-0.6400205	0.7746903	-0.432028
1277308110508	2.7240696	6.973618	7.1234417	0.5275326	0.0	1.125	-30.5	-47.875	-0.66831845	0.7605344	-0.37239844
1277308110548	2.3018389	6.8237944	6.5922484	-0.043435097	0.0	3.125	-31.5	-48.125	-0.68284005	0.74125326	-0.32533908
1277308110588	1.9885708	6.701211	6.891896	0.009605408	0.0	4.3125	-32.0	-48.375	-0.7656956	0.7783284	-0.28847063
1277308110628	1.7297841	6.6331096	6.701211	-0.22038269	0.0	4.3125	-32.1875	-48.375	-0.7357687	0.7740579	-0.2550988
1277308110668	1.607201	6.5922484	6.8237944	-0.18350029	0.0	4.0625	-32.0	-48.375	-0.73518795	0.7882238	-0.23913646
1277308110708	1.5390993	6.4424243	7.082581	-0.10940266	0.0	3.125	-32.0	-47.6875	-0.79037887	0.81886387	-0.23450524
1277308110748	1.5390993	6.238119	7.014479	-0.2942438	0.0	2.375	-31.0	-47.6875	-0.75047785	0.82921785	-0.24189386
1277308110788	1.607201	6.0474343	7.273266	-0.21212292	0.0	1.375	-30.0	-47.6875	-0.7661189	0.8603395	-0.25976112
1277308110828	1.6889231	5.938472	7.273266	-0.26629925	0.0	0.875	-29.75	-48.125	-0.7566901	0.86696565	-0.27708754
1277308110868	1.6480621	5.8567495	7.504812	-0.14539623	0.0	0.625	-28.5	-48.875	-0.7141981	0.8895601	-0.27430215
1277308110908	1.6889231	5.9793324	7.3958488	-0.14727879	0.0	-0.125	-28.25	-49.625	-0.59871614	0.87207556	-0.27528852
1277308110948	1.6480621	6.1291566	7.4639506	-0.009037018	0.0	-0.125	-27.75	-50.125	-0.5322179	0.8661075	-0.2626759
1277308110988	1.3756552	6.1700177	7.3141265	-0.13928318	0.0	-0.875	-26.75	-50.375	-0.36387706	0.8580655	-0.21937005
1277308111028	1.3075534	6.3607025	7.205164	-0.107029915	0.0	-0.875	-26.75	-50.625	-0.30677545	0.83728695	-0.20274311
1277308111068	1.3075534	6.4424243	7.1234417	-0.11345959	0.0	-1.125	-26.5	-50.375	-0.27255058	0.82550645	-0.20023994
1277308111108	1.3756552	6.469665	7.082581	-0.11583233	0.0	-1.125	-26.0	-50.625	-0.2662084	0.8195736	-0.20951128
1277308111148	1.5390993	6.4015636	7.014479	-0.1862669	0.0	-0.625	-25.75	-51.125	-0.3146564	0.8170452	-0.23594728
1277308111188	1.6480621	6.3198414	7.164303	-0.11212921	0.0	-0.125	-25.5	-51.625	-0.36501923	0.83159274	-0.25509465
1277308111228	1.920469	6.2108784	7.273266	-0.05146694	0.0	0.625	-25.25	-52.0625	-0.446049	0.84140426	-0.29988527
1277308111268	2.152015	6.2108784	7.3549876	0.057528496	0.0	1.375	-25.25	-52.3125	-0.5025332	0.84147376	-0.33354557
1277308111308	2.2609777	6.0882955	7.6273947	0.2111597	0.0	2.125	-25.5	-52.3125	-0.58878	0.86544436	-0.3555797
1277308111348	2.2609777	6.0882955	7.7772183	0.32569885	0.0	2.125	-25.25	-52.0625	-0.59972674	0.87503076	-0.3555797
1277308111388	2.2609777	6.1700177	7.8589406	0.43757153	0.0	2.875	-24.8125	-51.625	-0.6122293	0.8743994	-0.35125017
1277308111428	2.3018389	6.0474343	7.668256	0.22689724	0.0	3.375	-24.8125	-51.625	-0.6283816	0.86989576	-0.36369798
1277308111468	2.3699405	5.8976107	7.5456724	0.059230804	0.0	3.5625	-24.8125	-51.625	-0.6457179	0.8707696	-0.3820981
1277308111548	2.2201166	5.8976107	7.668256	0.118715286	0.0	4.0625	-26.0	-52.5625	-0.690837	0.88291323	-0.3600355
1277308111588	1.9885708	5.8976107	7.9679036	0.3039236	0.0	4.8125	-25.75	-52.3125	-0.7336393	0.90767765	-0.32521075
1277308111628	1.7570249	5.706926	7.6954966	-0.06617737	0.0	5.5625	-25.5	-51.625	-0.7526939	0.91089654	-0.29866663
1277308111668	1.879608	5.434519	7.8180795	-0.10153389	0.0	6.3125	-24.8125	-51.625	-0.81147826	0.9366245	-0.33298606
1277308111708	1.9477097	5.2165933	7.5456724	-0.42882633	0.0	7.3125	-23.8125	-51.625	-0.7993525	0.935051	-0.35733923
1277308111748	2.3699405	4.8216033	7.6273947	-0.4770403	0.0	7.8125	-22.3125	-52.5625	-0.78952116	0.95713836	-0.45684496
1277308111788	1.0351465	3.759216	7.8180795	-1.070198	0.0	9.0625	-19.8125	-53.5625	-1.0011531	1.108163	-0.26870304
1277308111828	0.3405087	3.718355	9.724928	0.61046696	0.0	10.5625	-17.625	-54.0625	-1.2602074	1.2041999	-0.09132039
1277308111868	0.27240697	4.0588636	9.343558	0.38406467	0.0	12.0	-16.125	-54.0625	-1.0454544	1.160167	-0.0670136
1277308111908	0.92618364	4.140586	8.008764	-0.74339676	0.0	13.5	-16.125	-53.5625	-0.8809643	1.0836073	-0.22006169
1277308111938	0.50395286	3.9090397	8.008764	-0.8805723	0.0	14.75	-16.625	-53.3125	-1.0136118	1.1134608	-0.12821268
1277308111978	-0.61291564	3.7864566	8.281172	-0.68027496	0.0	15.5	-16.875	-53.0625	-1.1973424	1.1370293	0.16047853
1277308112008	-0.9942854	3.759216	8.076866	-0.84249496	0.0	16.25	-17.8125	-53.0625	-1.245865	1.122111	0.2585717
1277308112048	-0.27240697	3.8681788	9.084772	0.07110691	0.0	16.75	-17.8125	-52.8125	-1.3599299	1.167367	0.070306465
1277308112088	0.19068487	3.8681788	10.18802	1.092658	0.0	16.75	-17.8125	-53.0625	-1.4022572	1.2075268	-0.049255896
1277308112128	0.040861044	4.140586	10.760075	1.7226744	0.0	17.0	-17.8125	-53.0625	-1.421073	1.2034366	-0.0098681
1277308112168	0.3405087	4.2904096	11.073342	2.0736895	0.0	16.5	-16.875	-53.3125	-1.3044986	1.2000934	-0.079199076
1277308112208	0.38136974	4.630918	10.119919	1.3290405	0.0	16.0	-16.875	-53.5625	-1.1260654	1.1403565	-0.08216753
1277308112249	-0.88532263	4.8216033	9.234595	0.64846325	0.0	14.5	-16.875	-53.3125	-0.94970113	1.0827725	0.18159306
1277308112288	-1.920469	3.9090397	10.337844	1.4111843	0.0	13.25	-17.8125	-53.0625	-1.4514817	1.1720653	0.4566547
1277308112328	0.27240697	4.0180025	8.62168	-0.29077244	0.0	12.0	-19.0625	-52.5625	-1.1617638	1.1338096	-0.067693025
1277308112368	0.5720546	2.9147544	8.921328	-0.4038248	0.0	10.75	-19.5625	-52.0625	-1.5569947	1.2493904	-0.19379847
1277308112408	0.5720546	3.2961242	8.117727	-1.0266056	0.0	9.8125	-20.5625	-52.0625	-1.3719319	1.179894	-0.17184202
1277308112448	1.8387469	3.9090397	6.66035	-1.8680205	0.0	8.8125	-20.0625	-52.5625	-0.78525996	0.9954057	-0.43967476
1277308112478	2.152015	3.636633	7.8589406	-0.8836899	0.0	7.5625	-20.5625	-52.5625	-0.92868865	1.0774539	-0.53433883
1277308112518	1.4165162	4.0180025	8.962189	0.11664009	0.0	6.5625	-21.8125	-52.5625	-1.1535523	1.1270437	-0.33893797
1277308112558	2.2201166	3.8273177	10.038197	1.1634302	0.0	6.3125	-22.8125	-52.3125	-1.2328697	1.1556374	-0.52563703
1277308112598	3.2961242	3.636633	8.894087	0.35181046	0.0	6.0625	-24.3125	-51.625	-1.0218117	1.0665418	-0.73632175
1277308112638	2.982856	2.982856	8.853226	2.07901E-4	0.0	6.5625	-25.25	-51.375	-1.1462045	1.1261402	-0.7853982
1277308112679	3.486809	2.2201166	10.760075	1.7200994	0.0	6.3125	-25.25	-51.375	-1.160662	1.2040174	-1.0038145
1277308112718	2.982856	2.1111538	9.466142	0.34038067	0.0	6.0625	-25.0	-51.875	-1.1808842	1.2023767	-0.9548796
1277308112758	3.486809	1.1441092	9.384419	0.2697649	0.0	5.8125	-24.3125	-52.3125	-0.9682862	1.1980349	-1.2537405
1277308112788	3.568531	0.6946377	9.507003	0.37176037	0.0	5.5625	-22.8125	-53.0625	-0.8651995	1.2055509	-1.378544
1277308112828	2.7649305	0.95342433	9.466142	0.101008415	0.0	5.5625	-21.5625	-53.8125	-1.0019016	1.2711358	-1.2387369
1277308112858	2.070293	1.1849703	9.534244	0.021476746	0.0	5.3125	-21.0625	-53.8125	-1.2314742	1.325633	-1.0509421
1277308112898	1.3756552	1.1849703	10.337844	0.68942547	0.0	4.0625	-21.5625	-54.0625	-1.6484195	1.396938	-0.85972905
1277308112938	1.3756552	1.7570249	9.847511	0.29052925	0.0	2.625	-21.8125	-54.3125	-1.7722704	1.3479552	-0.66425514
1277308112979	0.95342433	1.879608	8.158588	-1.3802328	0.0	1.125	-21.5625	-54.3125	-1.970268	1.3179951	-0.46942788
1277308113019	0.38136974	1.4982382	7.8180795	-1.8371754	0.0	0.125	-20.3125	-55.3125	-2.6010382	1.3755667	-0.24925214
1277308113059	0.38136974	0.92618364	8.158588	-1.5868073	0.0	-0.125	-18.3125	-55.8125	-2.5430076	1.4486383	-0.39060706
1277308113098	1.334794	1.4982382	8.117727	-1.4445992	0.0	0.375	-17.625	-55.5625	-1.504271	1.3284676	-0.72776973
1277308113138	2.1792557	2.3018389	9.507003	0.21486282	0.0	1.125	-18.3125	-55.5625	-1.1692561	1.2489705	-0.75804937
1277308113178	1.4165162	2.9556155	11.141444	1.8068752	0.0	2.125	-19.8125	-54.5625	-1.6527568	1.2846926	-0.44692054
1277308113218	1.607201	3.405087	11.795221	2.5749884	0.0	3.8125	-21.5625	-53.5625	-1.6289893	1.2617964	-0.44099772
1277308113258	2.1792557	3.2961242	12.026767	2.852603	0.0	5.3125	-22.5625	-53.0625	-1.4841572	1.2533566	-0.5841785
1277308113298	3.0237172	3.5957718	12.4489975	3.499363	0.0	7.0625	-22.0625	-52.5625	-1.2272444	1.2099316	-0.6991926
1277308113338	2.8738933	2.9556155	14.206022	4.985442	0.0	8.5625	-20.5625	-52.3125	-1.2788165	1.2883607	-0.77138036
1277308113378	0.53119355	1.56634	12.299174	2.6032352	0.0	9.5625	-17.625	-53.0625	-1.9825311	1.4371213	-0.32695886
1277308113418	-1.0351465	-0.19068487	8.471856	-1.2696581	0.0	10.5625	-13.125	-53.8125	1.6592261	1.4471873	1.7529646
1277308113448	-1.4165162	-2.5606253	5.6252036	-3.4658113	0.0	11.5	-8.4375	-55.0625	0.48229003	1.0911078	2.6363025
1277308113488	-2.070293	-2.8330324	4.2904096	-4.264106	0.0	12.0	-4.1875	-56.25	0.35553235	0.88527113	2.5105133
1277308113528	-0.84446156	-1.2666923	4.6036777	-4.957787	0.0	11.5	-2.0	-57.0	0.6721179	1.2514297	2.55359
1277308113568	1.5390993	-1.0351465	5.5571017	-3.9481745	0.0	9.5625	-2.75	-57.75	0.1115697	1.2486485	-2.1628723
1277308113638	3.7864566	0.3405087	9.656827	0.57157326	0.0	7.0625	-4.9375	-57.5	-0.20131047	1.1957464	-1.4811095
1277308113678	3.568531	1.7297841	13.402422	4.170169	0.0	5.5625	-9.4375	-56.5	-0.57406396	1.2831125	-1.1194369
1277308113718	0.9942854	2.3018389	14.015338	4.4312134	0.0	4.8125	-13.375	-55.5625	-1.6142855	1.3937653	-0.40774485
1277308113758	-1.2258313	2.152015	12.067628	2.5125008	0.0	5.3125	-16.125	-54.5625	2.5785966	1.3683757	0.51778185
1277308113798	-1.334794	1.2258313	9.915613	0.2732172	0.0	5.3125	-18.0625	-54.5625	2.128566	1.3900219	0.8279257
1277308113838	-0.23154591	0.08172209	8.539958	-1.2631626	0.0	4.3125	-18.3125	-54.3125	2.068191	1.542051	1.2315037
1277308113878	1.0351465	-0.040861044	8.281172	-1.4609327	0.0	3.8125	-18.0625	-54.3125	-1.0104909	1.446346	-1.6102495
1277308113918	0.7627395	0.53119355	9.534244	-0.22720623	0.0	3.5625	-18.0625	-54.3125	-1.6943998	1.4736147	-0.9624713
1277308113958	-0.10896278	0.7218784	10.528529	0.74715996	0.0	4.0625	-18.0625	-54.0625	-3.0518553	1.501567	0.14981246
1277308113998	0.27240697	0.95342433	11.032481	1.2703018	0.0	5.5625	-18.0625	-54.5625	-2.3835857	1.4811597	-0.27829966
1277308114028	0.92618364	1.0760075	10.419566	0.7091932	0.0	6.0625	-18.3125	-54.5625	-1.7188373	1.4353751	-0.7107074
1277308114068	1.1441092	1.1849703	9.847511	0.17766857	0.0	6.0625	-18.5625	-54.3125	-1.574125	1.4050639	-0.7678561
1277308114108	1.607201	1.3756552	9.956474	0.37209702	0.0	6.0625	-18.3125	-54.3125	-1.3426516	1.3614309	-0.8628683
1277308114148	4.0180025	1.2666923	11.727119	2.6542559	0.0	5.3125	-17.625	-54.8125	-0.7879568	1.225907	-1.2654042
1277308114188	5.2165933	0.5720546	10.760075	2.1649532	0.0	5.8125	-16.375	-55.3125	-0.54594034	1.1170238	-1.4615722
1277308114228	3.5957718	-0.95342433	6.4015636	-2.402691	0.0	6.3125	-13.625	-56.5	-0.30508754	1.0443808	-1.8299836
1277308114268	1.879608	-2.0294318	4.0588636	-4.8948383	0.0	7.5625	-11.125	-57.0	-0.046637554	0.9725908	-2.3945034
1277308114308	-2.1792557	-0.8036005	6.742072	-2.6756992	0.0	8.5625	-9.6875	-56.5	0.7115802	1.2390226	1.9240763
1277308114348	-5.938472	1.9885708	13.824653	5.3703346	0.0	9.3125	-10.6875	-55.5625	0.5467605	1.1454499	1.2476703
1277308114388	-2.3699405	0.7218784	13.021052	3.4479914	0.0	9.8125	-13.125	-54.5625	1.8500044	1.3827794	1.2751268
1277308114428	-1.9885708	0.040861044	6.6331096	-2.881751	0.0	8.5625	-14.625	-53.8125	1.1213462	1.27947	1.5502512
1277308114468	-2.1383946	0.14982383	6.742072	-2.7319975	0.0	7.3125	-16.125	-53.8125	1.0821798	1.2629548	1.500847
1277308114508	-0.19068487	0.53119355	10.56939	0.7777977	0.0	7.0625	-16.625	-53.5625	-3.0737062	1.5174499	0.34464732
1277308114548	-0.6537767	1.3075534	11.141444	1.430294	0.0	7.8125	-16.875	-52.8125	3.0932667	1.4403291	0.4636476
1277308114588	-2.1792557	-0.10896278	9.193735	-0.3575344	0.0	8.5625	-18.0625	-52.5625	1.3218611	1.3377745	1.6207547
1277308114628	-4.1814466	0.313268	9.343558	0.4346733	0.0	10.0625	-18.3125	-52.5625	1.0050602	1.1489607	1.4960175
1277308114658	0.19068487	-0.53119355	9.507003	-0.2829094	0.0	10.3125	-17.625	-52.8125	0.1605255	1.5115001	-2.7969453
1277308114688	1.4573772	0.19068487	10.228881	0.5272894	0.0	10.0625	-17.625	-53.0625	-0.8917016	1.4280821	-1.4406943
1277308114728	0.42223078	0.0	9.534244	-0.26306152	0.0	10.75	-17.8125	-53.0625	-0.9371506	1.5265392	-1.5707964
1277308114758	-0.6946377	0.42223078	9.302697	-0.46850395	0.0	10.3125	-18.3125	-52.5625	2.496558	1.4836348	1.0246297
1277308114798	-0.50395286	0.42223078	10.18802	0.4025612	0.0	8.8125	-19.3125	-52.5625	2.6151223	1.5063534	0.8734055
1277308114828	0.14982383	-0.08172209	9.234595	-0.5704775	0.0	7.0625	-19.8125	-52.5625	-0.69937813	1.5523121	-2.070143
1277308114868	0.53119355	0.19068487	8.812365	-0.9762316	0.0	5.0625	-20.5625	-52.0625	-1.5162823	1.5068393	-1.226149
1277308114908	1.1441092	0.7627395	10.147159	0.43325138	0.0	3.8125	-22.5625	-51.125	-1.6848804	1.4361064	-0.98279375
1277308114948	3.0237172	0.84446156	10.95076	1.5852385	0.0	2.875	-25.0	-50.125	-1.1878489	1.291599	-1.2984561
1277308114978	2.4108016	2.152015	10.760075	1.4282217	0.0	1.875	-27.25	-48.875	-1.662383	1.2790357	-0.8420539
1277308115018	0.9942854	2.8330324	8.240311	-1.0363941	0.0	0.875	-30.0	-47.6875	-2.3195338	1.221386	-0.33753118
1277308115058	1.1849703	3.718355	7.9270425	-0.9710226	0.0	-0.375	-32.4375	-45.9375	-2.2420888	1.1133153	-0.3085063
1277308115099	0.88532263	5.243834	7.8589406	-0.3174696	0.0	-1.125	-34.9375	-43.0	-2.343399	0.9758885	-0.16725394
1277308115138	0.92618364	6.510526	7.5865335	0.23328304	0.0	-2.625	-38.1875	-39.75	-2.361936	0.85662436	-0.14131123
1277308115180	1.7570249	7.205164	7.9679036	1.0786161	0.0	-4.0625	-41.125	-36.3125	-2.3030095	0.8212379	-0.23918809
1277308115218	1.7297841	7.0553403	8.730643	1.5509071	0.0	-5.8125	-43.125	-33.375	-2.7714047	0.87681836	-0.24043114
1277308115258	2.1111538	6.932757	8.662541	1.4875832	0.0	-7.8125	-44.875	-31.1875	-2.7767596	0.8741339	-0.2955972
1277308115298	1.879608	6.5922484	7.7772183	0.56040287	0.0	-8.8125	-45.625	-28.6875	-2.8909097	0.8483434	-0.2777538
1277308115338	1.7297841	6.4424243	6.851035	-0.24455452	0.0	-9.0625	-45.875	-27.0	-2.929412	0.79874104	-0.26231223
1277308115378	1.879608	6.782933	6.742072	-0.060028076	0.0	-9.0625	-46.3125	-25.75	-2.8867662	0.7638878	-0.27032533
1277308115418	2.2609777	6.891896	6.891896	0.19877243	0.0	-8.5625	-46.5625	-25.0	-2.7191522	0.7598546	-0.317
1277308115459	2.152015	6.742072	7.3958488	0.42981815	0.0	-7.5625	-46.8125	-26.25	-2.7213752	0.80741155	-0.30896977
1277308115498	1.4573772	6.0474343	7.1234417	-0.34943962	0.0	-7.3125	-46.3125	-27.6875	-2.9248683	0.8529569	-0.23648179
1277308115538	0.95342433	5.9793324	7.5456724	-0.13201332	0.0	-6.8125	-45.375	-29.1875	-3.1177692	0.89457583	-0.15812217
1277308115578	1.3075534	6.4424243	7.668256	0.2936802	0.0	-6.8125	-44.125	-31.1875	-2.9879386	0.86209595	-0.20023993
1277308115618	1.6480621	6.66035	7.668256	0.48307896	0.0	-7.3125	-43.125	-32.125	-2.8555562	0.84088564	-0.24257137
1277308115658	1.920469	6.510526	7.668256	0.43431187	0.0	-7.8125	-42.625	-32.625	-2.736308	0.8462237	-0.2868441
1277308115688	3.214402	6.1700177	8.008764	0.80192184	0.0	-8.0625	-41.875	-33.625	-2.1956391	0.8555524	-0.48028356
1277308115728	4.099725	5.597963	7.8861814	0.6974821	0.0	-8.0625	-40.625	-34.375	-1.8740976	0.8492261	-0.63211566
1277308115758	4.2086873	5.284695	7.3958488	0.21031666	0.0	-8.0625	-39.875	-35.375	-1.7249651	0.83059406	-0.67253685
1277308115798	4.099725	5.134871	6.742072	-0.39229012	0.0	-7.8125	-39.1875	-36.0625	-1.5845555	0.79826707	-0.6737698
1277308115838	4.671779	5.325556	6.469665	-0.21271324	0.0	-7.5625	-39.375	-36.3125	-1.4003892	0.7400832	-0.72009605
1277308115878	4.862464	5.134871	5.6252036	-0.77042484	0.0	-7.5625	-39.875	-36.5625	-1.2472286	0.67195475	-0.75815696
1277308115918	4.2904096	5.325556	4.8216033	-1.4390335	0.0	-6.8125	-40.375	-35.125	-1.1852297	0.6140983	-0.6781624
1277308115958	4.5628166	6.2108784	5.325556	-0.43884087	0.0	-6.3125	-41.125	-34.125	-1.2172588	0.6046757	-0.633604
1277308115998	4.671779	6.5513873	5.938472	0.19393158	0.0	-6.0625	-41.625	-32.875	-1.3539693	0.63578916	-0.6194624
1277308116028	4.0588636	6.5922484	5.597963	-0.25315285	0.0	-6.0625	-42.375	-31.375	-1.429941	0.6260636	-0.5518855
1277308116068	4.099725	6.742072	5.7477865	-0.04446125	0.0	-6.5625	-42.875	-31.1875	-1.4732096	0.6295493	-0.5463401
1277308116108	4.0588636	6.510526	6.238119	0.08149719	0.0	-6.8125	-43.125	-30.9375	-1.6502753	0.68267184	-0.55747026
1277308116148	3.759216	6.0201936	6.4424243	-0.22128296	0.0	-7.3125	-43.375	-30.9375	-1.8286649	0.7370552	-0.5581925
1277308116178	3.2961242	5.5571017	6.1291566	-0.90090084	0.0	-7.3125	-43.125	-30.1875	-1.9463109	0.75903916	-0.5353581
1277308116218	3.214402	5.6660647	6.2789803	-0.75887394	0.0	-7.3125	-43.125	-29.9375	-2.0084019	0.76700294	-0.51603407
1277308116248	3.8681788	6.5922484	7.3549876	0.800724	0.0	-7.5625	-42.875	-29.4375	-2.007457	0.76617527	-0.5306399
1277308116288	4.7943625	7.1234417	8.19945	2.066021	0.0	-7.5625	-42.625	-28.6875	-1.9304601	0.76233965	-0.59240204
1277308116328	5.5571017	7.1234417	8.471856	2.5787106	0.0	-7.8125	-42.625	-28.9375	-1.8229058	0.7532618	-0.66249764
1277308116368	5.134871	6.3607025	7.8180795	1.5047512	0.0	-7.8125	-42.125	-29.6875	-1.7923741	0.7631041	-0.6791645
1277308116408	3.8273177	5.012288	6.891896	-0.46482944	0.0	-8.3125	-41.625	-30.4375	-1.9567853	0.82972616	-0.6521402
1277308116448	2.7921712	4.0588636	6.238119	-1.857768	0.0	-8.0625	-40.625	-32.375	-2.1093376	0.9023402	-0.6025721
1277308116488	2.2201166	3.7864566	5.7886477	-2.5420365	0.0	-8.0625	-39.375	-34.375	-2.2056055	0.9220271	-0.5303081
1277308116528	2.7240696	4.2904096	6.742072	-1.3636827	0.0	-8.5625	-37.9375	-35.375	-2.1158519	0.92487067	-0.5657015
1277308116568	3.6774938	5.09401	7.7772183	0.1912508	0.0	-8.5625	-36.4375	-37.0625	-1.8153334	0.89129335	-0.6252898
1277308116608	4.2495484	5.938472	8.240311	1.2036552	0.0	-10.0625	-35.4375	-38.0625	-1.6275713	0.8456735	-0.62111676
1277308116648	4.399372	6.3607025	8.240311	1.4944878	0.0	-11.5	-34.1875	-38.8125	-1.4424411	0.8170902	-0.6050991
1277308116678	4.372132	6.5513873	7.7363577	1.2336149	0.0	-12.75	-33.1875	-39.5	-1.110421	0.77643454	-0.58848226
1277308116718	4.2904096	6.742072	7.43671	1.1097507	0.0	-14.0	-32.4375	-39.5	-0.8272806	0.7494578	-0.5667292
1277308116758	4.440233	6.4424243	7.3958488	0.95992184	0.0	-14.25	-31.75	-40.0	-0.846837	0.757252	-0.60345286
1277308116798	4.6036777	5.9793324	7.6273947	0.9229078	0.0	-14.0	-31.5	-40.75	-1.032969	0.7907442	-0.65613586
1277308116838	5.2165933	5.5162406	7.8180795	1.0912447	0.0	-14.0	-31.25	-41.5	-1.1020375	0.80005383	-0.75748664
1277308116878	6.238119	5.09401	8.390134	1.8233719	0.0	-13.5	-30.5	-42.25	-1.0937343	0.8058511	-0.88601875
1277308116918	7.246025	4.7126403	8.730643	2.4790325	0.0	-13.25	-29.25	-43.0	-1.0032341	0.7904012	-0.9941569
1277308116958	7.014479	4.0588636	7.9679036	1.5584183	0.0	-12.75	-27.75	-43.6875	-0.9112733	0.776921	-1.0462302
1277308116998	7.246025	4.2495484	7.3141265	1.3315716	0.0	-12.5	-26.25	-44.6875	-0.7392054	0.7163937	-1.0403876
1277308117038	7.43671	4.1814466	7.0553403	1.2643471	0.0	-12.5	-25.75	-45.6875	-0.67899054	0.6909653	-1.0585809
1277308117078	6.782933	3.6774938	5.325556	-0.43148708	0.0	-12.5	-25.75	-46.4375	-0.58827794	0.60413384	-1.0739856
1277308117118	6.3607025	3.336985	4.862464	-1.1326914	0.0	-12.25	-26.5	-46.1875	-0.6131106	0.5950883	-1.0876431
1277308117158	6.238119	2.9556155	5.434519	-1.0212193	0.0	-11.75	-27.25	-45.9375	-0.72073346	0.66693807	-1.1283282
1277308117198	5.9793324	2.8738933	6.0201936	-0.8481674	0.0	-11.0	-27.75	-45.6875	-0.8147063	0.73692024	-1.1227582
1277308117238	5.366417	2.6014864	6.2789803	-1.1468716	0.0	-10.75	-28.0	-45.6875	-0.9206492	0.81114185	-1.1194055
1277308117278	4.5219555	2.4925237	6.4424243	-1.5504045	0.0	-11.0	-26.75	-46.4375	-1.0072312	0.8951601	-1.0670286
1277308117318	4.1814466	3.0237172	6.891896	-1.1970282	0.0	-11.25	-25.25	-47.6875	-0.9731519	0.9281084	-0.9447169
1277308117358	4.3312707	3.9499009	7.668256	-0.15451145	0.0	-12.5	-23.8125	-48.375	-0.7788125	0.9181209	-0.8314183
1277308117398	4.5628166	4.3312707	8.240311	0.5606985	0.0	-12.5	-21.5625	-48.875	-0.5834687	0.91873235	-0.811426
1277308117428	4.399372	4.2086873	8.240311	0.4388485	0.0	-12.75	-20.8125	-49.875	-0.5286989	0.93447286	-0.80754644
1277308117468	4.3312707	4.2086873	8.158588	0.34399128	0.0	-13.0	-20.3125	-49.625	-0.47716513	0.9335733	-0.7997513
1277308117508	5.053149	4.4810944	8.580819	1.1132851	0.0	-12.75	-20.0625	-49.625	-0.47506005	0.90397877	-0.84532636
1277308117548	5.175732	4.6036777	8.349273	1.0419636	0.0	-12.75	-20.3125	-49.375	-0.45206505	0.8782404	-0.84382737
1277308117588	5.012288	4.671779	8.430995	1.0575218	0.0	-12.5	-20.0625	-48.875	-0.4387372	0.88835704	-0.8205455
1277308117628	5.434519	5.243834	9.765789	2.5384884	0.0	-12.25	-19.8125	-48.875	-0.44557264	0.9125456	-0.80325335
1277308117658	5.938472	5.012288	10.079058	2.9203243	0.0	-12.0	-19.0625	-49.875	-0.46959603	0.91398716	-0.86977446
1277308117688	6.2108784	4.630918	9.575105	2.510128	0.0	-11.5	-18.3125	-50.125	-0.45761338	0.890527	-0.9301082
1277308117728	6.0201936	4.372132	8.812365	1.7266073	0.0	-10.75	-18.3125	-50.625	-0.44572172	0.86961854	-0.9426729
1277308117758	5.829509	4.099725	8.430995	1.2329416	0.0	-10.0625	-19.5625	-50.625	-0.5208727	0.86903346	-0.9578784
1277308117798	5.5571017	3.990762	7.8180795	0.582283	0.0	-8.8125	-20.8125	-49.375	-0.57906526	0.85190934	-0.94800115
1277308117838	4.7943625	3.9499009	7.1234417	-0.35513973	0.0	-7.8125	-22.8125	-49.125	-0.64471114	0.85364777	-0.8816728
1277308117878	4.7535014	3.759216	7.1234417	-0.45406246	0.0	-7.0625	-24.3125	-48.375	-0.7540395	0.8658628	-0.9016713
1277308117918	5.434519	3.8273177	8.62168	1.0798426	0.0	-5.8125	-25.0	-47.6875	-0.88620263	0.9140145	-0.9572166
1277308117958	4.903325	4.099725	9.152874	1.356926	0.0	-4.0625	-26.5	-46.9375	-1.0409606	0.9612141	-0.87442094
1277308117988	3.405087	3.486809	9.084772	0.5028372	0.0	-2.125	-27.0	-46.1875	-1.3714511	1.0784053	-0.77354103
1277308118018	2.6423476	3.214402	8.662541	-0.19655132	0.0	0.375	-27.5	-44.9375	-1.5413442	1.1229916	-0.6880327
1277308118058	1.6889231	4.099725	6.3607025	-2.0530224	0.0	2.625	-28.0	-43.5	-1.2426171	0.962026	-0.39077413
1277308118098	0.50395286	6.4424243	2.8330324	-2.7508106	0.0	4.3125	-29.5	-41.25	-0.24763146	0.41317153	-0.07806513
1277308118138	1.879608	7.5456724	-0.10896278	-2.029635	0.0	5.3125	-32.1875	-36.3125	-0.3386155	-0.014011333	-0.24412906
1277308118178	2.8330324	9.80665	-0.6946377	0.42462444	0.0	6.8125	-35.6875	-29.6875	-0.47714138	-0.06794583	-0.2812322
1277308118218	3.718355	9.80665	0.5720546	0.6968632	0.0	10.0625	-38.6875	-22.8125	-0.83345413	0.05449013	-0.36241865
1277308118258	3.7864566	9.80665	0.6537767	0.72592163	0.0	13.75	-40.125	-17.125	-1.0659285	0.062111825	-0.36847615
1277308118298	3.8681788	9.847511	0.27240697	0.7768507	0.0	17.25	-40.125	-14.4375	-1.1531754	0.025741676	-0.37429082
1277308118338	4.8216033	10.18802	2.5333846	1.7459097	0.0	19.1875	-39.375	-14.875	-1.32688	0.22108881	-0.44202936
1277308118378	4.5219555	9.80665	2.1792557	1.2100477	0.0	19.9375	-37.9375	-17.375	-1.2348754	0.19912723	-0.4320554
1277308118418	5.134871	7.5456724	3.1054392	-0.16570473	0.0	21.4375	-36.6875	-21.0625	-1.219618	0.3279568	-0.5975222
1277308118458	5.325556	7.43671	4.7943625	0.5206013	0.0	22.1875	-36.1875	-24.75	-1.2211568	0.48278067	-0.62146115
1277308118498	4.0180025	8.19945	3.7864566	0.07831669	0.0	23.9375	-36.1875	-27.6875	-1.1407573	0.3930981	-0.4556424
1277308118538	3.8681788	6.2789803	3.3778462	-1.6950378	0.0	25.375	-36.9375	-30.6875	-1.1099368	0.4295053	-0.552139
1277308118578	3.568531	7.504812	2.9147544	-1.0002651	0.0	26.125	-37.4375	-33.625	-1.0220698	0.337344	-0.44385546
1277308118618	3.8273177	6.8237944	2.9556155	-1.4431467	0.0	27.125	-36.9375	-37.3125	-0.97633415	0.36119717	-0.5111566
1277308118658	5.9793324	7.0553403	2.4516625	-0.23894978	0.0	26.125	-33.6875	-41.0	-0.8401787	0.25913408	-0.70303524
1277308118698	6.0201936	6.701211	2.3426998	-0.49873924	0.0	23.1875	-29.0	-43.6875	-0.73218	0.25442514	-0.731916
1277308118728	5.09401	6.3607025	0.7627395	-1.6219549	0.0	19.6875	-25.75	-45.1875	-0.61793727	0.09332636	-0.675263
1277308118758	5.829509	6.4424243	1.0351465	-1.0568199	0.0	16.5	-23.0625	-45.4375	-0.5578779	0.11858247	-0.73549515
1277308118798	6.4424243	5.597963	1.1441092	-1.1955528	0.0	14.0	-21.8125	-44.9375	-0.52733475	0.13325857	-0.8554192
1277308118838	4.372132	5.012288	2.5606253	-2.679563	0.0	11.5	-22.5625	-44.4375	-0.5528976	0.3674971	-0.71728885
1277308118878	3.486809	3.990762	7.0553403	-0.9827137	0.0	7.8125	-23.0625	-43.25	-0.9150847	0.92657614	-0.71810466
1277308118918	2.9147544	7.014479	6.5513873	0.22427082	0.0	4.3125	-24.5625	-42.75	-0.6235746	0.71169627	-0.3938256
1277308118958	2.9147544	8.308413	10.691973	4.044119	0.0	0.625	-27.0	-43.0	-0.8830681	0.8818885	-0.33740485
1277308118998	0.50395286	6.932757	12.789507	4.7497425	0.0	-1.625	-29.25	-43.25	-3.0435486	1.0729601	-0.072563924
1277308119038	0.38136974	9.343558	12.258313	5.6113176	0.0	-3.375	-30.0	-43.9375	0.6708423	0.91911757	-0.040793683
1277308119078	-1.2258313	11.75436	10.651112	6.1029005	0.0	-4.3125	-29.0	-44.6875	0.47514153	0.7335073	0.10391174
1277308119118	-0.08172209	8.539958	8.539958	2.2709503	0.0	-3.5625	-26.75	-45.1875	0.28436846	0.7853754	0.009569086
1277308119158	-0.6946377	6.238119	9.084772	1.2355299	0.0	-2.625	-23.0625	-46.4375	0.5858742	0.96620345	0.110896856
1277308119198	-1.7570249	5.8976107	9.384419	1.4154835	0.0	-0.875	-18.0625	-48.125	0.45930415	0.9903939	0.2895488
1277308119238	-0.040861044	3.5276701	8.117727	-0.95545673	0.0	1.125	-13.375	-49.375	-0.13030325	1.1608285	0.011582494
1277308119278	1.1441092	4.0588636	8.853226	-3.7765503E-4	0.0	3.375	-9.1875	-49.625	-0.38460782	1.1262655	-0.27475044
1277308119318	-2.6423476	5.47538	9.234595	1.2495489	0.0	7.0625	-6.1875	-48.125	-0.1885042	0.9885716	0.4496205
1277308119358	-2.3426998	7.43671	8.076866	1.4195986	0.0	11.5	-4.4375	-44.1875	-0.36575228	0.8030283	0.30517748
1277308119398	-2.4516625	6.238119	8.689782	1.1677332	0.0	17.25	-3.9375	-38.3125	-0.7559516	0.91379	0.3744687
1277308119438	-2.4925237	4.7535014	10.038197	1.5763998	0.0	23.4375	-5.6875	-33.375	-1.4773973	1.0797813	0.48294145
1277308119478	-2.3018389	3.486809	8.812365	-0.054005623	0.0	29.375	-8.6875	-30.9375	-1.952581	1.1280702	0.5834819
1277308119518	-2.5333846	2.5606253	3.1463003	-5.023968	0.0	34.5625	-11.875	-34.375	-1.3090448	0.7179641	0.78005064
1277308119558	-1.6480621	1.2258313	-0.9125633	-7.5590863	0.0	37.0625	-15.375	-40.75	-0.18239118	-0.4180983	0.931274
1277308119598	-6.742072	6.701211	5.9793324	1.4234066	0.0	36.8125	-21.5625	-48.375	-0.5122657	0.5614807	0.78843766
1277308119638	-12.217452	12.176591	1.0760075	7.476095	0.0	33.5625	-27.5	-54.8125	-0.080844276	0.062299356	0.7870732
1277308119678	-6.510526	5.2165933	2.9147544	-0.96947956	0.0	29.875	-32.0	-56.75	0.1588118	0.33612233	0.8952905
1277308119718	-8.880466	3.5957718	4.5219555	0.78770447	0.0	26.375	-36.1875	-57.75	0.58119434	0.4409811	1.186066
1277308119758	-5.7477865	4.7943625	3.6774938	-1.4671707	0.0	22.6875	-36.4375	-57.5	0.38040188	0.45668364	0.875592
1277308119798	-7.3549876	5.434519	1.4982382	-0.5397978	0.0	18.6875	-36.1875	-56.75	0.34492618	0.16238992	0.9344443
1277308119838	-6.4015636	6.2108784	3.1054392	-0.3621397	0.0	14.0	-37.4375	-57.25	0.38548863	0.33504212	0.80051583
1277308119878	-5.202973	2.2201166	2.982856	-3.4115524	0.0	8.8125	-38.1875	-57.0	0.67390966	0.48524886	1.1674854
1277308119918	-3.445948	3.2961242	-0.84446156	-4.9639125	0.0	3.375	-37.9375	-55.5625	0.3976916	-0.17527293	0.8076167
1277308119958	-3.568531	7.668256	-0.23154591	-1.3455524	0.0	-1.625	-33.4375	-50.375	0.29559326	-0.027369358	0.435557
1277308119998	-4.099725	14.369467	2.6423476	5.368043	0.0	-3.5625	-28.25	-42.25	0.29302013	0.17502075	0.27792406
1277308120028	-4.5900574	16.88923	1.9477097	7.8032436	0.0	-4.0625	-23.5625	-33.875	0.31240964	0.1108299	0.26536477
1277308120058	-5.243834	9.765789	0.3405087	1.2831821	0.0	-2.625	-19.0625	-26.25	0.41438377	0.03070941	0.49277627
1277308120098	-3.214402	8.539958	1.6889231	-0.52679443	0.0	-0.125	-18.3125	-22.3125	0.3356274	0.18301886	0.35999358
1277308120138	-1.920469	8.812365	1.5390993	-0.6570711	0.0	0.375	-18.3125	-21.0625	0.19658647	0.16901891	0.21457398
1277308120168	-1.6480621	9.00305	1.4982382	-0.5321827	0.0	0.625	-18.3125	-19.8125	0.1599905	0.1622554	0.18105142
1277308120198	-1.9885708	9.343558	1.1168685	-0.18875599	0.0	0.125	-18.5625	-18.625	0.22448307	0.1163866	0.2096992
1277308120238	-2.4108016	2.9147544	1.5390993	-5.7229524	0.0	0.875	-19.5625	-17.625	0.8465113	0.3864349	0.69105
1277308120278	-1.7978859	12.871228	0.61291564	3.2039833	0.0	2.625	-22.5625	-16.875	0.0330241	0.047126267	0.13878457
1277308120318	-2.1792557	9.534244	0.88532263	0.013469696	0.0	3.8125	-25.5	-16.125	0.14206079	0.09027653	0.22471118
1277308120358	-0.46309182	8.853226	0.3405087	-0.93478394	0.0	6.0625	-29.5	-16.375	-0.2882726	0.03839016	0.052260064
1277308120398	-2.2201166	10.310603	-0.0	0.7402668	0.0	7.5625	-33.4375	-15.875	-0.022326464	-0.0	0.21208549
1277308120438	-1.1168685	9.425281	-0.29964766	-0.3106985	0.0	8.0625	-36.4375	-15.125	-0.22444834	-0.031560544	0.1179471
1277308120478	-0.84446156	6.973618	-1.4573772	-2.6325016	0.0	8.0625	-40.375	-14.1875	-0.1407715	-0.20456667	0.120507
1277308120518	0.61291564	10.95076	-2.8330324	1.5212307	0.0	6.8125	-44.375	-12.1875	-0.38682467	-0.2527771	-0.05591181
1277308120558	-0.6537767	13.021052	-0.9942854	3.2686634	0.0	4.3125	-47.3125	-11.4375	-0.12814234	-0.07611643	0.05016708
1277308120598	0.88532263	9.724928	-2.2609777	0.21682453	0.0	1.375	-49.0625	-10.4375	-0.26827562	-0.22752628	-0.090786174
1277308120638	1.920469	9.847511	-3.0645783	0.68398	0.0	-0.875	-50.0625	-10.0	-0.34909025	-0.2964483	-0.19260326
1277308120678	0.9942854	11.264028	-3.445948	2.0145798	0.0	-1.875	-50.3125	-9.0	-0.109425716	-0.2957998	-0.08804267
1277308120718	0.6946377	7.1234417	-3.636633	-1.7785091	0.0	-1.375	-51.3125	-6.5	-0.12394391	-0.4701115	-0.097207
1277308120759	-1.1849703	6.2789803	-5.012288	-1.6855183	0.0	-0.125	-51.8125	-3.5625	0.2771201	-0.6651674	0.18652643
1277308120798	-2.2201166	6.1291566	-6.428804	-0.65105057	0.0	1.875	-52.0625	-1.125	0.42141858	-0.77844316	0.34752142
1277308120838	-0.29964766	11.34575	-4.671779	2.4669533	0.0	3.8125	-52.0625	0.125	-0.12286097	-0.39048433	0.026404427
1277308120878	2.0294318	14.750836	0.14982383	5.083891	0.0	5.8125	-51.3125	0.375	-1.6395774	0.010061847	-0.13672246
1277308120918	4.372132	4.903325	-3.3642259	-2.4258542	0.0	7.8125	-51.0625	-0.625	-1.1982743	-0.47327977	-0.728192
1277308120958	-1.2258313	8.921328	1.9885708	-0.584548	0.0	9.0625	-50.3125	-2.3125	-2.903035	0.21733795	0.13654952
1277308120988	-2.4108016	13.33432	-0.6946377	3.7616434	0.0	9.3125	-50.0625	-3.5625	-0.041695878	-0.051218044	0.17886457
1277308121028	-0.27240697	8.853226	-2.7921712	-0.5195608	0.0	8.5625	-49.8125	-5.5625	-0.33241367	-0.30537498	0.03075953
1277308121068	1.0760075	8.499097	-0.95342433	-1.186821	0.0	7.5625	-49.8125	-6.5	-0.8610141	-0.110835046	-0.12593259
1277308121108	-0.08172209	8.853226	-0.38136974	-0.94483757	0.0	5.8125	-49.8125	-7.5	-0.50689924	-0.04304848	0.009230508
1277308121148	0.7627395	8.19945	-0.84446156	-1.528616	0.0	4.5625	-49.3125	-9.5	-0.56358474	-0.10219009	-0.092756316
1277308121188	1.0351465	8.281172	-0.6946377	-1.4321737	0.0	4.0625	-49.0625	-11.1875	-0.58890295	-0.08304241	-0.124354996
1277308121228	1.2258313	9.112013	-0.7218784	-0.5842562	0.0	3.125	-48.5625	-13.6875	-0.5034066	-0.078354664	-0.13372627
1277308121258	1.6889231	8.812365	-1.0351465	-0.7743883	0.0	2.875	-48.5625	-15.875	-0.51431817	-0.11485783	-0.18935764
1277308121318	0.7218784	10.310603	-0.9125633	0.56939983	0.0	2.375	-48.0625	-17.625	-0.25732294	-0.088062786	-0.06989915
1277308121358	-1.4165162	10.691973	-0.95342433	1.0208063	0.0	1.125	-47.0625	-19.0625	0.21579209	-0.088170364	0.13171703
1277308121398	-3.486809	11.34575	0.42223078	2.0703096	0.0	0.375	-46.8125	-20.8125	0.60897946	0.0355579	0.29816145
1277308121438	-1.0351465	12.980191	0.14982383	3.2156134	0.0	-0.625	-46.3125	-21.5625	0.20189826	0.01150546	0.07957975
1277308121478	2.4925237	12.53072	0.27240697	2.9724665	0.0	-0.375	-46.125	-21.8125	-0.39261234	0.021318188	-0.19635019
1277308121518	6.1700177	11.604536	0.3405087	3.3406057	0.0	1.375	-46.5625	-21.3125	-0.85029453	0.0259025	-0.48867717
1277308121558	4.3312707	11.536434	1.0760075	2.5629501	0.0	3.375	-47.0625	-19.0625	-0.9117364	0.087098144	-0.35915878
1277308121598	0.27240697	13.0619135	0.88532263	3.288066	0.0	5.3125	-47.8125	-16.125	-0.45593107	0.06766076	-0.020852035
1277308121638	0.040861044	11.604536	-1.6480621	1.9144001	0.0	6.8125	-48.3125	-12.9375	-0.3422571	-0.14107451	-0.0035211123
1277308121678	0.42223078	8.580819	-1.9477097	-0.99743366	0.0	8.3125	-48.5625	-8.75	-0.5087183	-0.2229413	-0.04916669
1277308121718	0.53119355	5.8567495	-0.9942854	-3.8424	0.0	9.5625	-48.5625	-4.8125	-0.8322564	-0.16748953	-0.090450205
1277308121748	0.9942854	5.012288	-0.5720546	-4.664775	0.0	11.0	-48.0625	-1.375	-1.2643414	-0.111484885	-0.19582734
1277308121778	1.4165162	4.8216033	-1.3075534	-4.613956	0.0	12.25	-48.3125	1.625	-1.2218832	-0.25454628	-0.28574553
1277308121818	1.4165162	5.6252036	-2.4925237	-3.4930058	0.0	12.25	-48.0625	3.3125	-1.030187	-0.40583235	-0.24668711
1277308121858	0.5720546	7.1234417	-3.9090397	-1.6610212	0.0	12.25	-47.5625	4.0625	-0.70785075	-0.50053406	-0.08013397
1277308121898	-0.5720546	8.853226	-4.9850473	0.36967278	0.0	12.25	-47.8125	4.3125	-0.42871574	-0.5119375	0.064525686
1277308121928	-0.9942854	11.032481	-5.175732	2.4200602	0.0	11.75	-47.3125	4.3125	-0.42471132	-0.4370996	0.08988064
1277308121958	0.27240697	10.651112	-5.8567495	2.351553	0.0	11.5	-47.5625	4.5625	-0.595452	-0.502607	-0.025569875
1277308121988	0.313268	8.921328	-6.973618	1.5211735	0.0	11.5	-47.3125	5.0625	-0.48647404	-0.66317064	-0.035100084
1277308122028	1.1441092	13.484144	-6.891896	5.379836	0.0	11.75	-46.3125	5.3125	-0.78112775	-0.47104493	-0.08464575
1277308122068	-0.040861044	16.126492	-1.6889231	6.4080906	0.0	13.25	-45.875	5.8125	-1.6467195	-0.104349	0.0025337783
1277308122108	2.3426998	3.6774938	-1.8387469	-5.0745053	0.0	14.5	-45.125	5.3125	-1.3847289	-0.39907393	-0.5672084
1277308122148	1.1441092	7.6954966	1.8387469	-1.8122368	0.0	15.75	-44.875	5.0625	-2.1530957	0.23208177	-0.14759147
1277308122189	-2.1792557	15.6634	3.1054392	6.3096447	0.0	16.0	-45.375	4.5625	-2.5258694	0.19390218	0.138243
1277308122228	1.6480621	7.0553403	-3.1054392	-1.923904	0.0	15.0	-46.125	3.0625	-1.0762041	-0.4049295	-0.22947603
1277308122268	2.6423476	7.014479	-1.0351465	-2.239851	0.0	14.0	-46.8125	1.875	-1.4544333	-0.13723144	-0.3602594
1277308122308	0.88532263	10.119919	-0.5720546	0.36801434	0.0	12.5	-47.5625	-0.125	-1.40792	-0.0562531	-0.08726102
1277308122348	-0.27240697	7.8180795	-1.1441092	-1.9006042	0.0	11.75	-48.0625	-2.5625	-0.8120775	-0.14522313	0.034829117
1277308122388	-0.8036005	8.539958	-1.334794	-1.1257324	0.0	10.5625	-48.0625	-4.8125	-0.4558398	-0.15437429	0.09382261
1277308122428	-0.3405087	9.00305	-0.9942854	-0.742465	0.0	9.5625	-47.5625	-6.75	-0.5753429	-0.10991504	0.037803464
1277308122469	-0.0	8.771504	-1.4982382	-0.9081106	0.0	8.5625	-47.0625	-9.0	-0.4714669	-0.16917482	0.0
1277308122508	0.6946377	9.615966	-1.1849703	-0.09307861	0.0	6.8125	-46.3125	-10.6875	-0.5593699	-0.12229582	-0.072112694
1277308122548	-0.42223078	10.378705	-0.19068487	0.58238983	0.0	5.8125	-45.875	-12.1875	-0.29382086	-0.018355457	0.04065999
1277308122588	-1.3756552	10.841797	-0.23154591	1.1245251	0.0	4.8125	-46.125	-13.9375	0.06906001	-0.021183746	0.12620999
1277308122628	-1.8387469	12.4489975	-0.14982383	2.7783003	0.0	4.3125	-46.3125	-14.875	0.16071092	-0.011905281	0.14664216
1277308122668	-0.27240697	12.367276	-0.08172209	2.5638962	0.0	4.3125	-46.125	-15.375	-0.20717216	-0.0066062305	0.022022871
1277308122698	1.8387469	12.026767	-0.040861044	2.3599339	0.0	5.0625	-46.3125	-15.625	-0.650425	-0.003358471	-0.15171309
1277308122738	5.47538	11.264028	-0.29964766	2.7212343	0.0	5.8125	-45.875	-14.4375	-1.0248846	-0.02392074	-0.4524613
1277308122778	5.706926	11.75436	1.2666923	3.321125	0.0	6.8125	-45.625	-11.9375	-1.2655948	0.09663984	-0.45199314
1277308122818	0.10896278	13.443283	0.3405087	3.641386	0.0	8.5625	-45.875	-9.25	-0.8351055	0.025323033	-0.008105192
1277308122858	-0.08172209	12.830367	-2.9147544	3.3508873	0.0	10.0625	-45.125	-6.0625	-0.5505861	-0.22338045	0.0063693407
1277308122898	0.53119355	7.668256	-0.9125633	-2.0660377	0.0	12.0	-44.875	-3.0625	-1.071458	-0.11816773	-0.06916127
1277308122928	0.3405087	5.134871	-0.6946377	-4.6138315	0.0	13.25	-44.375	-0.375	-1.2056162	-0.13417111	-0.06621606
1277308122958	0.61291564	4.9850473	-0.95342433	-4.6943727	0.0	14.0	-43.625	2.5625	-1.3046695	-0.18759535	-0.12233683
1277308122998	1.334794	4.2904096	-1.4573772	-5.082961	0.0	14.25	-43.125	5.5625	-1.3436047	-0.31364223	-0.30161905
1277308123038	1.3756552	4.4810944	-2.6014864	-4.4456463	0.0	13.5	-42.625	7.75	-1.1598545	-0.5066617	-0.29785803
1277308123078	0.19068487	6.5922484	-3.568531	-2.3080826	0.0	12.5	-42.375	9.25	-0.8583907	-0.49598143	-0.028917557
1277308123118	-0.50395286	9.084772	-6.0201936	1.1034269	0.0	12.0	-42.125	9.5	-0.552388	-0.5845225	0.05541547
1277308123158	-0.3405087	11.563675	-6.0474343	3.2473145	0.0	11.0	-42.125	9.75	-0.72478515	-0.48167494	0.029437903
1277308123198	0.040861044	10.310603	-7.014479	2.6638403	0.0	10.75	-42.125	10.25	-0.6229764	-0.59738976	-0.0039629913
1277308123238	0.5720546	11.563675	-8.499097	4.5558176	0.0	11.75	-42.125	10.25	-0.7034097	-0.6332372	-0.049429674
1277308123268	1.2258313	18.0061	-1.6480621	8.316219	0.0	12.0	-41.875	11.1875	-2.0348632	-0.091064066	-0.067973785
1277308123308	1.1441092	5.829509	-0.08172209	-3.8653674	0.0	13.0	-41.375	11.4375	-2.0554452	-0.01375539	-0.19379845
1277308123348	3.255263	4.2904096	-1.1441092	-4.300895	0.0	13.75	-40.875	11.1875	-1.7348604	-0.20932782	-0.649065
1277308123388	-2.4108016	16.970953	3.6774938	7.7247257	0.0	13.5	-40.375	10.4375	-2.7569215	0.21133605	0.14111046
1277308123428	0.08172209	9.384419	-2.7921712	-0.0153160095	0.0	13.25	-40.375	8.5	-1.3304613	-0.2891813	-0.008708054
1277308123468	2.6423476	5.175732	-1.7570249	-3.7356257	0.0	13.0	-41.125	6.5	-1.4829079	-0.29361203	-0.47203317
1277308123508	1.4982382	9.043911	-0.10896278	-0.6388302	0.0	12.0	-41.875	4.0625	-1.7608738	-0.011885633	-0.16417164
1277308123548	-0.23154591	9.112013	-0.88532263	-0.6488018	0.0	11.25	-42.625	1.625	-1.3268616	-0.09682487	0.025405593
1277308123588	0.19068487	7.8589406	-1.56634	-1.7908697	0.0	10.5625	-43.125	-0.875	-0.89878505	-0.19667248	-0.024258671
1277308123628	0.10896278	8.812365	-1.3756552	-0.8868933	0.0	9.5625	-43.625	-3.8125	-0.76717186	-0.15484366	-0.0123641305
1277308123668	-0.08172209	8.390134	-1.3075534	-1.314847	0.0	8.5625	-44.375	-6.25	-0.55815244	-0.15459335	0.009739952
1277308123708	0.040861044	9.193735	-0.7627395	-0.58123875	0.0	7.8125	-44.375	-9.25	-0.5561946	-0.082772575	-0.004444415
1277308123748	-0.3405087	10.800936	-0.46309182	1.0095692	0.0	6.3125	-44.125	-11.6875	-0.34767348	-0.042827666	0.031515416
1277308123788	-0.3405087	12.217452	-1.920469	2.565507	0.0	4.8125	-43.625	-12.6875	-0.18395136	-0.15585528	0.027863467
1277308123828	-1.6889231	14.015338	0.10896278	4.310504	0.0	3.8125	-42.875	-14.4375	0.09502951	0.0077185435	0.11992706
1277308123868	-0.42223078	12.830367	1.1168685	3.079156	0.0	2.875	-42.625	-14.1875	-0.14011022	0.086783215	0.032896835
1277308123908	4.4810944	11.645397	0.14982383	2.6720486	0.0	3.375	-42.875	-13.1875	-0.96963143	0.012006655	-0.36733058
1277308123948	7.9679036	12.762266	0.84446156	5.262393	0.0	4.5625	-43.125	-11.1875	-1.2372179	0.056068867	-0.55811954
1277308123978	2.070293	13.184497	2.4108016	3.755394	0.0	6.0625	-43.625	-7.5	-1.5796719	0.17871068	-0.15575299
1277308124018	-2.070293	13.0619135	-1.1849703	3.4712963	0.0	7.8125	-43.875	-4.5625	-0.09917188	-0.08936238	0.15719084
1277308124058	-0.7627395	9.043911	-2.1111538	-0.48833084	0.0	9.5625	-43.875	-1.125	-0.48137063	-0.22854388	0.084138244
1277308124098	0.42223078	4.372132	-1.1168685	-5.274409	0.0	10.3125	-43.375	2.0625	-1.0439552	-0.24899225	-0.096274644
1277308124138	0.5720546	3.9090397	-0.53119355	-5.820423	0.0	11.0	-42.875	4.8125	-1.5315381	-0.1336548	-0.14531001
1277308124178	0.8036005	3.3778462	-0.7627395	-6.2517395	0.0	10.75	-42.625	8.25	-1.5557615	-0.21624067	-0.23356146
1277308124218	1.1849703	4.7126403	-2.5606253	-4.313934	0.0	10.3125	-42.625	10.25	-1.1539547	-0.4849743	-0.24633828
1277308124248	1.3075534	7.9270425	-4.8216033	-0.4367218	0.0	9.8125	-42.875	10.4375	-0.94667876	-0.54052097	-0.16347644
1277308124278	0.27240697	11.141444	-5.175732	2.4813194	0.0	9.3125	-42.875	10.4375	-0.8840913	-0.43477157	-0.02444501
1277308124318	-0.50395286	12.026767	-6.4015636	3.8270254	0.0	9.0625	-42.625	10.25	-0.5788242	-0.48877034	0.041878104
1277308124358	-1.6480621	9.656827	-7.6954966	2.6509209	0.0	8.8125	-42.125	10.4375	-0.08694037	-0.6658611	0.16903438
1277308124398	-0.3405087	18.537292	-5.053149	9.410048	0.0	9.8125	-41.625	11.9375	-1.6289089	-0.26608494	0.018366782
1277308124438	0.53119355	11.34575	-0.10896278	1.5520506	0.0	10.5625	-41.625	12.4375	-2.3376622	-0.009593038	-0.04678456
1277308124478	7.43671	1.334794	-4.2904096	-1.1179247	0.0	12.25	-41.875	12.4375	-1.8644108	-0.5164433	-1.3932002
1277308124518	-0.27240697	11.182305	5.325556	2.5820427	0.0	13.5	-42.625	11.9375	-2.7387946	0.44435132	0.024355719
1277308124558	-1.0760075	14.2877445	-0.38136974	4.5266285	0.0	13.25	-43.875	10.25	-2.3107991	-0.026610432	0.07516793
1277308124598	1.2258313	4.944186	-3.7864566	-3.459612	0.0	13.5	-44.625	8.0	-0.9381358	-0.6392213	-0.24303313
1277308124638	1.0351465	7.43671	0.08172209	-2.2977977	0.0	13.0	-45.875	5.0625	-1.8515677	0.010883648	-0.1383055
1277308124678	-1.0351465	10.528529	-0.61291564	0.79038334	0.0	12.0	-46.5625	2.3125	-1.5113708	-0.05787071	0.098003276
1277308124718	-0.14982383	7.9270425	-0.95342433	-1.8210716	0.0	11.5	-47.3125	-0.625	-1.0351104	-0.11967876	0.018898092
1277308124762	0.23154591	8.308413	-1.9885708	-1.260438	0.0	10.3125	-47.8125	-3.0625	-0.69249284	-0.234837	-0.02786164
1277308124798	0.040861044	8.921328	-1.2666923	-0.7957535	0.0	9.3125	-47.8125	-4.8125	-0.69293	-0.14104053	-0.004580121
1277308124828	0.040861044	8.281172	-0.8036005	-1.4864788	0.0	8.8125	-47.8125	-7.25	-0.65295273	-0.0967354	-0.0049341703
1277308124858	-0.14982383	8.962189	-0.6946377	-0.8163338	0.0	7.5625	-48.0625	-10.0	-0.45847103	-0.07734218	0.016715769
1277308124898	-0.61291564	10.079058	-0.14982383	0.29213715	0.0	6.8125	-48.3125	-11.4375	-0.307981	-0.014836368	0.060736015
1277308124938	-0.46309182	11.563675	-0.6537767	1.7847462	0.0	5.3125	-48.3125	-13.1875	-0.20914511	-0.05643184	0.040025726
1277308124978	-1.525479	13.443283	0.14982383	3.7237377	0.0	4.8125	-48.8125	-14.4375	0.051910847	0.011073362	0.11299185
1277308125018	-1.1168685	12.830367	0.88532263	3.1026297	0.0	4.5625	-48.5625	-14.625	-0.02968555	0.068634205	0.08682996
1277308125058	3.5957718	13.565866	-0.19068487	4.2289715	0.0	5.3125	-48.5625	-14.875	-0.848351	-0.013586198	-0.25910202
1277308125098	6.932757	11.836082	-0.27240697	3.9130507	0.0	7.0625	-49.0625	-13.6875	-1.1331401	-0.019856475	-0.52986133
1277308125148	2.152015	12.14935	2.2201166	2.729968	0.0	8.3125	-49.0625	-10.6875	-1.4389673	0.17802948	-0.17531167
1277308125178	-0.6537767	13.443283	-1.9477097	3.7927198	0.0	10.75	-49.0625	-6.75	-0.5452054	-0.14371479	0.048593935
1277308125218	-0.6946377	11.34575	-2.2609777	1.7830257	0.0	12.0	-48.8125	-2.8125	-0.6273105	-0.19634463	0.06114816
1277308125258	0.6946377	5.284695	-0.95342433	-4.3918977	0.0	12.75	-48.5625	1.375	-1.2251191	-0.17700182	-0.13069405
1277308125298	0.7627395	3.759216	-0.9942854	-5.8440647	0.0	13.0	-47.8125	5.3125	-1.3087864	-0.25362885	-0.20018108
1277308125338	1.0351465	3.8681788	-2.1383946	-5.2671494	0.0	12.5	-47.5625	8.25	-1.0857612	-0.4904964	-0.2614788
1277308125378	0.14982383	4.7943625	-3.3642259	-3.9477782	0.0	12.0	-47.5625	10.4375	-0.6287341	-0.6116395	-0.031239834
1277308125419	-0.19068487	6.3198414	-4.2904096	-2.1656837	0.0	10.75	-47.8125	11.4375	-0.48737687	-0.5961985	0.030163264
1277308125458	1.1441092	8.921328	-5.243834	0.60473156	0.0	10.3125	-48.3125	11.1875	-0.8701462	-0.52783436	-0.12754808
1277308125498	1.6889231	12.762266	-7.273266	4.979434	0.0	10.0625	-48.5625	11.1875	-0.88811195	-0.51426995	-0.13157271
1277308125538	1.2666923	10.228881	-7.504812	2.9431229	0.0	10.3125	-48.3125	11.6875	-0.73117393	-0.62935466	-0.123207636
1277308125578	0.92618364	10.147159	-7.3141265	2.736041	0.0	11.75	-47.5625	12.1875	-0.7530308	-0.6225868	-0.09102295
1277308125618	0.95342433	15.5135765	-1.607201	5.819071	0.0	12.75	-47.0625	12.9375	-2.0502691	-0.10303834	-0.061380215
1277308125658	1.334794	7.43671	-1.334794	-2.1341019	0.0	13.75	-46.3125	12.4375	-1.7857106	-0.17485982	-0.17759615
1277308125698	3.336985	5.434519	-0.7218784	-3.3886619	0.0	14.5	-46.3125	11.6875	-1.7867695	-0.11271589	-0.5506756
1277308125738	-0.9125633	12.789507	3.1054392	3.386076	0.0	14.25	-46.8125	10.0	-2.6624994	0.23762009	0.07123178
1277308125778	-0.29964766	10.269742	-2.4516625	0.7559271	0.0	14.0	-47.3125	7.25	-1.2623023	-0.23424469	0.029169446
1277308125818	2.4925237	6.1700177	-1.3075534	-3.0249476	0.0	13.75	-47.8125	5.0625	-1.4866153	-0.19402109	-0.3839271
1277308125858	0.6537767	9.384419	-0.6946377	-0.3738737	0.0	13.25	-48.5625	2.3125	-1.4989916	-0.07370757	-0.06955381
1277308125898	-0.5720546	8.730643	-0.5720546	-1.0386047	0.0	12.75	-49.0625	-0.625	-1.1843028	-0.06528949	0.06542909
1277308125938	0.14982383	8.471856	-1.6480621	-1.1746807	0.0	12.0	-49.5625	-3.3125	-0.79331213	-0.19210479	-0.017683046
1277308125978	0.46309182	8.499097	-0.95342433	-1.2417145	0.0	10.5625	-49.8125	-6.25	-0.8483846	-0.11154835	-0.054433353
1277308126018	0.08172209	8.240311	-1.0760075	-1.4959831	0.0	9.0625	-49.8125	-9.25	-0.5493354	-0.12983754	-0.00991703
1277308126058	-0.8036005	9.765789	-1.334794	0.0826416	0.0	7.5625	-49.3125	-11.6875	-0.18862337	-0.1353869	0.08210233
1277308126098	-0.42223078	10.18802	-0.5720546	0.4061489	0.0	6.3125	-48.8125	-13.4375	-0.25920096	-0.056042835	0.041420147
1277308126138	-0.7627395	11.182305	-1.334794	1.4808388	0.0	5.5625	-48.8125	-14.875	-0.10786277	-0.11853165	0.068104014
1277308126168	-1.920469	12.639683	-0.08172209	2.9783592	0.0	4.0625	-48.5625	-16.625	0.19121937	-0.0063920678	0.15078638
1277308126198	-1.0760075	15.091345	-0.38136974	5.3278112	0.0	3.375	-48.5625	-17.375	0.004692727	-0.025201432	0.07117919
1277308126238	1.1441092	13.593107	0.50395286	3.8438272	0.0	3.125	-49.3125	-17.625	-0.42998892	0.036926728	-0.08397042
1277308126268	5.09401	11.34575	-1.2666923	2.6945295	0.0	3.125	-49.3125	-16.375	-0.838571	-0.101500005	-0.422005
1277308126308	6.0201936	12.680544	0.42223078	4.2367535	0.0	4.3125	-49.3125	-13.4375	-1.1191903	0.030070659	-0.4432511
1277308126348	-0.38136974	12.762266	0.84446156	2.9892092	0.0	5.5625	-49.8125	-10.0	-0.5473629	0.06604291	0.029873714
1277308126388	-0.9125633	11.223166	-1.879608	1.609355	0.0	6.5625	-49.8125	-5.8125	-0.17704119	-0.16539986	0.081132196
1277308126428	1.3756552	6.891896	-0.95342433	-2.7144241	0.0	7.8125	-50.3125	-1.375	-1.1522082	-0.13484055	-0.1970155
1277308126468	0.88532263	4.2904096	-0.3405087	-5.4126368	0.0	9.0625	-50.3125	2.3125	-1.498927	-0.07757155	-0.20349306
1277308126508	0.10896278	4.2904096	-0.23154591	-5.5086155	0.0	10.0625	-49.3125	5.8125	-1.8433906	-0.053898603	-0.025391366
1277308126548	0.95342433	4.6036777	-1.3075534	-4.9268384	0.0	11.25	-48.8125	8.25	-1.3704183	-0.27126625	-0.20421363
1277308126588	1.4573772	5.7886477	-3.759216	-2.752283	0.0	11.5	-48.3125	9.5	-0.9787881	-0.56201464	-0.24663888
1277308126628	0.27240697	9.112013	-4.7535014	0.47434044	0.0	11.25	-47.8125	10.4375	-0.78490007	-0.48065302	-0.029886464
1277308126668	-0.3405087	10.923519	-6.782933	3.0559855	0.0	11.5	-48.3125	10.6875	-0.5424343	-0.55546236	0.031161979
1277308126708	-2.5606253	10.337844	-6.973618	2.9235964	0.0	11.5	-48.0625	10.6875	0.021670159	-0.5797312	0.24280745
1277308126748	-0.95342433	12.9529505	-7.4639506	5.1732864	0.0	12.0	-47.3125	11.1875	-0.5375651	-0.5215944	0.07347423
1277308126788	0.6537767	17.965239	-0.88532263	8.192266	0.0	13.25	-46.8125	11.9375	-2.14398	-0.049207408	-0.036375154
1277308126828	5.366417	3.9499009	-3.214402	-2.4085064	0.0	14.5	-46.3125	12.1875	-1.6603895	-0.44946933	-0.93628925
1277308126868	2.3426998	5.6252036	-0.08172209	-3.7125683	0.0	15.25	-45.875	12.4375	-1.9310595	-0.013410476	-0.39461917
1277308126908	-1.4573772	15.894946	2.6423476	6.372202	0.0	15.5	-46.125	11.4375	-2.608406	0.164056	0.09143244
1277308126948	0.3405087	7.7772183	-4.2904096	-0.91796684	0.0	15.0	-47.0625	9.0	-0.86602753	-0.5037148	-0.043754894
1277308126978	1.9885708	5.434519	-0.6946377	-3.9781919	0.0	13.75	-48.0625	6.75	-1.634787	-0.11946431	-0.35078186
1277308127018	0.6537767	9.656827	0.040861044	-0.12763119	0.0	12.5	-49.0625	4.0625	-1.8347136	0.004221623	-0.067597836
1277308127058	-0.3405087	8.812365	-1.2258313	-0.9029217	0.0	11.75	-50.0625	1.375	-1.0529499	-0.13811485	0.03862067
1277308127098	0.5720546	7.504812	-1.7978859	-2.068314	0.0	10.5625	-50.8125	-0.875	-0.85824823	-0.23447762	-0.07607793
1277308127138	0.19068487	8.689782	-1.525479	-0.98192596	0.0	9.5625	-51.3125	-3.5625	-0.7136625	-0.17373693	-0.021940053
1277308127178	-0.23154591	8.308413	-0.9942854	-1.4357519	0.0	8.3125	-52.0625	-6.25	-0.504745	-0.119059905	0.02786164
1277308127218	0.040861044	9.112013	-0.50395286	-0.6806202	0.0	6.5625	-52.5625	-9.0	-0.5194921	-0.05524958	-0.004484275
1277308127248	-1.1168685	10.528529	-0.08172209	0.7812681	0.0	5.5625	-52.3125	-11.6875	-0.0010837674	-0.007718505	0.10568496
1277308127288	-1.2258313	11.536434	-1.525479	1.8945913	0.0	4.3125	-52.0625	-13.1875	0.060914095	-0.13074113	0.10586016
1277308127328	-1.6889231	13.443283	0.040861044	3.7423716	0.0	3.5625	-51.5625	-14.875	0.1940528	0.0030157978	0.12497844
1277308127368	0.14982383	12.176591	-0.040861044	2.3709307	0.0	3.8125	-51.3125	-15.375	-0.27839175	-0.0033554384	-0.01230363
1277308127408	3.173541	11.795221	-0.6946377	2.4277744	0.0	4.3125	-51.5625	-14.1875	-0.8037497	-0.05680786	-0.26282907
1277308127448	6.742072	12.108489	0.313268	4.0558596	0.0	6.3125	-51.8125	-12.6875	-1.2060354	0.022600142	-0.50805306
1277308127488	3.568531	13.143636	2.2609777	3.9992037	0.0	8.5625	-52.3125	-9.25	-1.5151123	0.16451052	-0.26511177
1277308127528	0.5720546	13.33432	-1.3756552	3.6106434	0.0	11.0	-52.3125	-5.8125	-0.87314886	-0.102709	-0.042874634
1277308127568	1.3756552	9.888372	-2.070293	0.3893509	0.0	14.0	-51.8125	-2.8125	-1.0241382	-0.2044713	-0.13823125
1277308127608	0.7627395	5.6660647	-0.38136974	-4.0767717	0.0	16.5	-51.3125	0.625	-1.4585629	-0.066607326	-0.13381098
1277308127648	0.19068487	4.372132	-0.50395286	-5.401441	0.0	17.9375	-50.0625	4.0625	-1.4915452	-0.11465032	-0.043586083
1277308127678	1.2258313	3.8681788	-1.4165162	-5.508745	0.0	19.4375	-49.0625	7.75	-1.3880831	-0.3358618	-0.30688962
1277308127718	0.92618364	3.8681788	-2.1792557	-5.2712584	0.0	19.9375	-48.5625	10.9375	-1.2304733	-0.50122476	-0.23501222
1277308127748	-1.1441092	6.469665	-3.405087	-2.4066386	0.0	19.4375	-48.0625	12.9375	-0.73777616	-0.47815982	0.17503248
1277308127788	-1.3756552	8.430995	-5.243834	0.21691704	0.0	19.6875	-48.5625	13.4375	-0.6497455	-0.5505435	0.16174111
1277308127828	-0.6537767	10.147159	-5.202973	1.6153975	0.0	18.9375	-49.0625	13.4375	-0.9654487	-0.47295642	0.06434061
1277308127868	-1.334794	11.75436	-6.428804	3.6572342	0.0	18.6875	-49.0625	13.9375	-0.8250487	-0.49779022	0.11307298
1277308127908	0.040861044	9.997335	-8.19945	3.1231356	0.0	19.1875	-48.3125	14.1875	-0.7794298	-0.6869113	-0.0040871706
1277308127948	2.3699405	15.4046135	-4.8216033	6.507963	0.0	18.9375	-47.5625	15.625	-1.6433083	-0.3000196	-0.15264933
1277308127978	1.1168685	13.252599	0.19068487	3.4942942	0.0	19.4375	-46.5625	17.125	-2.2226496	0.014336681	-0.08407676
1277308128018	2.3018389	3.2961242	-1.2258313	-5.6036086	0.0	19.9375	-46.125	16.875	-1.7657245	-0.29595488	-0.6096158
1277308128058	1.6889231	7.0553403	0.88532263	-2.498156	0.0	19.4375	-46.125	16.875	-2.2013328	0.12143435	-0.23496078
1277308128088	-1.56634	16.249075	2.6014864	6.723734	0.0	19.4375	-46.125	15.375	-2.560109	0.15803301	0.09609871
1277308128128	0.53119355	8.390134	-2.6832085	-0.981905	0.0	19.4375	-46.8125	12.9375	-1.503502	-0.30894637	-0.0632273
1277308128168	2.2201166	5.8567495	-1.0760075	-3.4514775	0.0	18.6875	-47.8125	10.6875	-1.6889215	-0.17013162	-0.3623339
1277308128199	0.7218784	9.466142	-0.14982383	-0.311841	0.0	18.4375	-48.8125	8.0	-1.8879727	-0.015780207	-0.076111674
1277308128238	-0.6537767	9.534244	-0.5720546	-0.23291111	0.0	17.9375	-49.8125	5.3125	-1.7255589	-0.059788093	0.06846426
1277308128271	0.5720546	8.349273	-0.95342433	-1.383668	0.0	17.25	-50.3125	2.5625	-1.4264138	-0.11343633	-0.06840859
1277308128308	0.7627395	8.580819	-1.56634	-1.0507584	0.0	17.0	-50.3125	0.625	-1.2095518	-0.17985795	-0.08865588
1277308128348	-0.29964766	9.152874	-1.4982382	-0.52712345	0.0	16.5	-50.3125	-1.875	-0.97537446	-0.16216615	0.032726407
1277308128388	-0.10896278	8.921328	-1.0351465	-0.8248081	0.0	15.75	-50.3125	-4.0625	-0.99357235	-0.115505464	0.012213133
1277308128428	-0.27240697	9.847511	-0.8036005	0.07734966	0.0	14.75	-50.3125	-5.5625	-0.94421333	-0.08139301	0.027655466
1277308128468	0.313268	10.460427	-1.2666923	0.734848	0.0	13.5	-50.0625	-7.25	-0.85033035	-0.120453514	-0.02993897
1277308128508	-0.14982383	12.176591	-0.46309182	2.3796644	0.0	12.5	-50.0625	-8.5	-0.85176355	-0.038010128	0.01230363
1277308128538	0.313268	13.293459	-0.42223078	3.497201	0.0	12.25	-49.5625	-9.25	-0.8925498	-0.031742815	-0.023561215
1277308128568	0.6537767	12.217452	-1.0351465	2.4719934	0.0	12.5	-49.0625	-9.5	-0.8399333	-0.08440481	-0.053460713
1277308128608	2.152015	10.501288	-1.2666923	0.9874563	0.0	13.0	-48.8125	-8.75	-1.0150551	-0.117621385	-0.20213014
1277308128648	3.214402	11.795221	0.88532263	2.4507322	0.0	13.5	-48.3125	-6.25	-1.4499884	0.07229066	-0.2660566
1277308128678	0.3405087	13.021052	0.88532263	3.2489061	0.0	14.5	-48.0625	-2.8125	-1.5978581	0.06786402	-0.02614467
1277308128718	0.6946377	12.980191	-1.3075534	3.2577133	0.0	15.25	-47.3125	0.375	-1.3345975	-0.10025336	-0.053464215
1277308128748	1.4165162	9.915613	-2.7240696	0.57344913	0.0	15.75	-46.5625	3.5625	-1.2216164	-0.2655416	-0.14189707
1277308128778	1.5390993	6.851035	-1.607201	-2.6032753	0.0	16.75	-45.875	6.0625	-1.4480065	-0.22501172	-0.22098327
1277308128818	0.92618364	5.2165933	-0.53119355	-4.4819126	0.0	17.5	-44.625	8.5	-1.7440051	-0.09992579	-0.17571464
1277308128858	1.0351465	5.284695	-0.6537767	-4.3819885	0.0	17.25	-43.375	10.6875	-1.7994195	-0.12081303	-0.19342732
1277308128898	1.3756552	5.6252036	-1.920469	-3.7055402	0.0	17.5	-42.125	13.4375	-1.614563	-0.32021827	-0.23984466
1277308128938	1.56634	6.851035	-3.0645783	-2.1397247	0.0	17.0	-41.125	15.125	-1.5456988	-0.41120496	-0.22476514
1277308128978	1.1849703	7.273266	-4.140586	-1.353899	0.0	16.25	-41.125	15.875	-1.3635408	-0.5119185	-0.16150238
1277308129018	-0.3405087	8.281172	-5.8567495	0.34200764	0.0	16.5	-41.375	15.875	-0.9189519	-0.61516833	0.04109527
1277308129058	-2.1111538	10.079058	-5.8158884	2.019969	0.0	16.25	-41.375	15.375	-0.7377834	-0.5141128	0.20647441
1277308129088	-2.4516625	10.95076	-6.2789803	3.0524082	0.0	16.25	-40.625	15.875	-0.76743895	-0.51013196	0.22024871
1277308129128	-0.5720546	10.56939	-8.267551	3.6243458	0.0	16.5	-39.375	15.625	-0.8566138	-0.6630933	0.054070957
1277308129168	2.7921712	17.502148	1.7297841	8.001032	0.0	16.75	-38.6875	16.375	-2.288275	0.09729037	-0.15819995
1277308129208	2.982856	8.076866	-0.0	-1.1965866	0.0	17.75	-38.1875	16.375	-2.0721166	-0.0	-0.35377163
1277308129248	2.7240696	6.8237944	-2.1111538	-2.1619334	0.0	18.6875	-38.4375	15.875	-1.7981615	-0.2797949	-0.3798179
1277308129288	-1.1849703	13.565866	4.0180025	4.39128	0.0	19.1875	-38.6875	15.125	-2.5950465	0.28691968	0.08712825
1277308129328	0.040861044	9.466142	-1.8387469	-0.1634922	0.0	19.1875	-39.1875	13.4375	-1.8588202	-0.1918537	-0.00431652
1277308129368	2.7649305	6.8237944	-1.56634	-2.2792048	0.0	18.9375	-40.125	11.1875	-1.7134207	-0.20961554	-0.38497213
1277308129408	0.8036005	8.662541	-0.50395286	-1.09233	0.0	18.4375	-41.125	8.5	-1.8443104	-0.05786271	-0.09250254
1277308129448	-0.50395286	9.234595	-1.1168685	-0.49111938	0.0	17.9375	-42.375	5.8125	-1.607984	-0.120182276	0.054518193
1277308129488	0.38136974	8.117727	-1.4573772	-1.5503263	0.0	17.75	-42.875	2.8125	-1.3397467	-0.17744623	-0.04694535
1277308129528	-0.46309182	8.771504	-1.1849703	-0.9433603	0.0	16.75	-43.375	-0.125	-1.1750476	-0.1340957	0.052746058
1277308129568	-0.38136974	8.730643	-0.3405087	-1.0610504	0.0	15.75	-43.625	-3.0625	-1.2378017	-0.038944703	0.043654
1277308129608	0.95342433	9.152874	0.14982383	-0.60303307	0.0	15.5	-43.625	-5.5625	-1.3306642	0.016279519	-0.10379233
1277308129648	0.95342433	9.915613	-0.53119355	0.16884804	0.0	14.25	-43.875	-7.0	-1.1049289	-0.053275023	-0.095859155
1277308129678	-0.10896278	10.691973	-0.95342433	0.92830086	0.0	13.5	-43.875	-8.75	-0.8020654	-0.08893215	0.010190731
1277308129708	-1.6889231	11.182305	-1.56634	1.6104355	0.0	12.5	-43.875	-10.0	-0.34592068	-0.13762668	0.14990234
1277308129748	-3.2961242	10.732834	-1.9885708	1.5956554	0.0	11.0	-43.625	-11.6875	0.117927074	-0.17529717	0.2979638
1277308129788	-3.405087	12.762266	-0.14982383	3.4029112	0.0	10.3125	-43.375	-13.1875	0.08870379	-0.011342318	0.2607352
1277308129828	3.8681788	14.2877445	1.2666923	5.0495596	0.0	10.3125	-43.125	-13.6875	-1.1182804	0.085367136	-0.26439586
1277308129868	6.3198414	12.14935	0.19068487	3.8894615	0.0	10.75	-43.125	-12.6875	-1.1772562	0.013923005	-0.47966048
1277308129908	4.4810944	13.102775	0.313268	4.0447407	0.0	11.75	-43.375	-9.75	-1.2305316	0.022618286	-0.32952645
1277308129938	-0.61291564	13.252599	0.040861044	3.4601774	0.0	12.75	-43.625	-5.8125	-1.0838499	0.0030799457	0.046215784
1277308129968	-1.334794	11.795221	-0.95342433	2.1020832	0.0	14.0	-43.875	-2.0625	-1.0073026	-0.080146715	0.112684585
1277308130008	0.313268	8.117727	-1.2666923	-1.5847197	0.0	15.25	-43.375	1.125	-1.2576792	-0.1546787	-0.038571466
1277308130048	1.0760075	4.0588636	-0.7218784	-5.545984	0.0	16.0	-42.625	4.0625	-1.4845209	-0.17024979	-0.2591398
1277308130088	0.46309182	3.5957718	-0.95342433	-6.057911	0.0	17.0	-42.125	7.0	-1.4233288	-0.25715694	-0.12808286
1277308130128	0.50395286	4.2495484	-1.7297841	-5.1909394	0.0	17.0	-41.375	10.25	-1.338578	-0.384138	-0.11803846
1277308130168	0.19068487	6.0474343	-3.7864566	-2.6690683	0.0	16.75	-41.375	12.9375	-1.0359381	-0.5591852	-0.03152109
1277308130198	-0.19068487	8.390134	-5.8158884	0.40389633	0.0	16.0	-41.625	14.4375	-0.8959022	-0.60601443	0.022723362
1277308130238	-0.19068487	11.141444	-5.7477865	2.7314997	0.0	15.75	-41.125	14.875	-1.2055101	-0.47622085	0.017113244
1277308130271	1.9885708	11.304889	-5.706926	3.0122385	0.0	15.5	-40.625	15.625	-1.4535966	-0.4613938	-0.17412229
1277308130308	0.27240697	9.343558	-7.504812	2.1807804	0.0	15.0	-39.875	16.375	-0.9355007	-0.676486	-0.029146265
1277308130348	0.14982383	14.818938	-5.706926	6.0739164	0.0	15.75	-39.1875	17.125	-1.6913768	-0.36758775	-0.010109951
1277308130388	0.42223078	9.724928	-0.5720546	-0.055765152	0.0	16.25	-39.1875	17.125	-2.2620554	-0.058700647	-0.04339012
1277308130428	3.718355	4.944186	-2.070293	-3.2830582	0.0	16.5	-39.1875	16.875	-1.816431	-0.3229387	-0.6448221
1277308130458	0.38136974	10.460427	2.7649305	1.0197449	0.0	17.25	-39.875	15.875	-2.506529	0.25824893	-0.036442194
1277308130498	-0.7218784	13.0619135	2.4516625	3.502946	0.0	17.25	-40.375	14.625	-2.542796	0.18526055	0.055209737
1277308130538	1.56634	7.8861814	-2.982856	-1.2309456	0.0	16.25	-40.875	13.4375	-1.560528	-0.3552517	-0.19606665
1277308130578	2.1792557	7.43671	-0.6946377	-2.0261407	0.0	15.75	-42.125	11.6875	-1.8737475	-0.089398235	-0.2850596
1277308130618	0.46309182	9.888372	-1.0351465	0.14653492	0.0	15.0	-42.625	9.5	-1.8622514	-0.10418993	-0.046797764
1277308130658	-0.42223078	7.7772183	-1.1168685	-1.9383082	0.0	14.25	-43.125	6.5	-1.5886372	-0.1424256	0.054237474
1277308130698	-0.5720546	8.390134	-1.3075534	-1.2959929	0.0	14.25	-43.625	4.0625	-1.3250486	-0.15424812	0.06807646
1277308130738	-0.3405087	9.193735	-1.7570249	-0.44033623	0.0	13.5	-43.875	2.0625	-1.0832226	-0.18870778	0.037020113
1277308130778	-0.23154591	8.390134	-1.7297841	-1.2369299	0.0	12.75	-44.375	-0.375	-0.88685614	-0.20324478	0.0275904
1277308130818	-0.14982383	8.499097	-0.9125633	-1.2573891	0.0	11.5	-44.875	-1.875	-1.013328	-0.10694552	0.01762638
1277308130858	-0.3405087	9.765789	-0.19068487	-0.03306675	0.0	10.3125	-45.125	-3.5625	-1.0996841	-0.01951147	0.034853384
1277308130898	0.9942854	11.304889	-0.7627395	1.567482	0.0	8.8125	-45.375	-5.8125	-0.96795976	-0.067109495	-0.087726064
1277308130938	-2.070293	12.489859	-2.0294318	3.015256	0.0	7.8125	-45.625	-7.75	-0.016450638	-0.15894692	0.16426437
1277308130978	-4.0588636	13.443283	-0.7218784	4.25455	0.0	6.8125	-45.875	-8.5	0.5559481	-0.0513609	0.29322195
1277308131018	-0.38136974	12.980191	0.61291564	3.1935997	0.0	6.3125	-46.125	-9.25	-0.61215776	0.047163934	0.029372454
1277308131058	3.8681788	10.991621	-0.27240697	1.848939	0.0	6.8125	-46.3125	-8.25	-1.1708393	-0.02337349	-0.3383849
1277308131098	6.932757	11.75436	2.2201166	4.0193043	0.0	8.3125	-46.3125	-5.0625	-1.5946002	0.16127421	-0.53288794
1277308131138	2.070293	13.211738	0.84446156	3.592949	0.0	10.75	-46.3125	-1.875	-1.6217544	0.0630632	-0.155437
1277308131178	-0.10896278	12.639683	-1.4573772	2.917241	0.0	13.0	-45.625	2.5625	-1.3603477	-0.11479057	0.008620476
1277308131208	0.23154591	8.471856	-1.2258313	-1.2434368	0.0	15.25	-44.625	6.5	-1.5772941	-0.14364433	-0.027324386
1277308131248	0.19068487	4.4810944	-0.8036005	-5.250079	0.0	15.5	-42.875	10.6875	-1.7469848	-0.17728807	-0.042527534
1277308131288	0.6946377	4.1814466	-0.9942854	-5.452845	0.0	15.5	-41.125	14.1875	-1.7994919	-0.23040475	-0.16462041
1277308131328	1.7570249	3.2961242	-1.0351465	-5.930686	0.0	15.0	-40.375	17.125	-1.8394221	-0.27034935	-0.48974282
1277308131368	1.334794	4.0588636	-2.3426998	-4.9338384	0.0	13.5	-39.375	19.3125	-1.6097356	-0.5015322	-0.31771833
1277308131408	0.23154591	8.049625	-5.7886477	0.110936165	0.0	12.5	-39.875	20.0625	-1.1104696	-0.6232473	-0.028756877
1277308131448	-0.9125633	11.686258	-6.3198414	3.5103245	0.0	11.5	-40.125	21.0625	-1.4669145	-0.49447584	0.077930436
1277308131488	0.5720546	11.563675	-7.273266	3.8661776	0.0	10.75	-40.125	21.5625	-1.35582	-0.5609022	-0.049429674
1277308131528	0.3405087	7.1234417	-7.43671	0.49694252	0.0	10.75	-39.875	22.5625	-0.7807251	-0.8063402	-0.047764793
1277308131568	5.6252036	13.402422	-3.718355	5.1964817	0.0	11.25	-39.1875	23.0	-2.084383	-0.25044858	-0.39738607
1277308131608	-0.0	15.28203	1.6480621	5.5639896	0.0	10.75	-39.1875	23.75	-2.7727916	0.107427955	0.0
1277308131648	1.6480621	3.405087	1.2666923	-5.81726	0.0	10.5625	-39.375	23.75	-2.4517393	0.323108	-0.45076588
1277308131678	0.53119355	6.742072	2.0294318	-2.745751	0.0	10.75	-40.125	22.8125	-2.7448742	0.2915303	-0.078625455
1277308131708	-0.5720546	13.906375	2.6014864	4.3525248	0.0	10.3125	-40.875	22.0625	-2.8550572	0.18478124	0.041112963
1277308131748	1.4573772	9.888372	-2.1111538	0.4090643	0.0	10.75	-42.125	19.8125	-2.1551373	-0.20815746	-0.14632948
1277308131788	2.7921712	7.3141265	-2.8330324	-1.4808626	0.0	10.5625	-42.875	18.125	-1.7553053	-0.34720615	-0.3646757
1277308131828	0.6946377	7.014479	-0.3405087	-2.7496405	0.0	10.3125	-44.375	15.375	-2.307509	-0.048269875	-0.0987073
1277308131868	-1.4165162	7.8180795	-0.9942854	-1.7993107	0.0	10.3125	-45.375	12.6875	-2.8484347	-0.124493085	0.17924018
1277308131908	-0.3405087	9.00305	-1.4573772	-0.6800518	0.0	10.3125	-46.3125	10.0	-1.8464043	-0.16037114	0.037803467
1277308131938	-0.29964766	9.724928	-2.1792557	0.16396523	0.0	10.3125	-47.3125	6.5	-1.1404567	-0.22034656	0.030802581
1277308131968	-0.5720546	9.615966	-1.56634	-0.047169685	0.0	9.5625	-47.8125	4.3125	-1.0904127	-0.16119131	0.059420053
1277308131998	0.8036005	9.507003	-1.1441092	-0.19739151	0.0	8.8125	-48.3125	2.3125	-1.315971	-0.11934633	-0.08432677
1277308132038	-0.3405087	10.61025	-0.88532263	0.8459158	0.0	7.8125	-48.5625	0.625	-1.0686965	-0.083204836	0.032081418
1277308132078	-2.1111538	11.958665	-1.1849703	2.3946114	0.0	7.0625	-48.8125	-0.375	0.2883964	-0.097271994	0.17473717
1277308132118	-1.334794	14.09706	-0.50395286	4.3624277	0.0	6.3125	-48.8125	-1.125	-0.52981365	-0.035574593	0.09440453
1277308132158	0.53119355	13.484144	0.6946377	3.7058191	0.0	6.3125	-48.8125	-1.875	-1.6462477	0.05142983	-0.03937358
1277308132188	2.9556155	10.651112	-0.27240697	1.2502956	0.0	6.5625	-48.5625	-0.625	-1.4812099	-0.02463922	-0.27068302
1277308132228	5.938472	12.176591	2.0294318	3.8920135	0.0	7.3125	-48.3125	2.0625	-1.851407	0.14869551	-0.45375586
1277308132268	3.336985	13.33432	1.3075534	4.00093	0.0	8.8125	-47.8125	5.3125	-2.0103562	0.09484034	-0.24521898
1277308132308	-0.9942854	12.4489975	-1.1849703	2.738082	0.0	10.5625	-46.8125	10.25	-2.2697332	-0.09460063	0.07969953
1277308132348	-0.88532263	7.6954966	-1.1168685	-1.9802938	0.0	11.75	-45.375	14.4375	-2.4392512	-0.14319491	0.114540696
1277308132388	0.10896278	2.6014864	-0.42223078	-7.16887	0.0	12.25	-43.375	18.125	-2.236484	-0.16076209	-0.04186035
1277308132428	0.6946377	2.2201166	-0.08172209	-7.478965	0.0	11.25	-41.375	22.0625	-2.3035638	-0.035115954	-0.30323416
1277308132469	1.607201	2.8738933	-0.9942854	-6.367034	0.0	9.8125	-40.625	24.75	-2.0520842	-0.29325387	-0.5099109
1277308132508	2.1111538	5.47538	-3.636633	-2.9028935	0.0	7.3125	-40.125	26.5	-1.7654012	-0.5547861	-0.368007
1277308132548	1.920469	9.343558	-4.4810944	0.73234844	0.0	6.0625	-40.125	27.4375	-2.1232576	-0.43917364	-0.20271616
1277308132588	0.88532263	12.980191	-5.8158884	4.4444456	0.0	5.5625	-40.375	27.6875	-2.3963988	-0.42037314	-0.0681002
1277308132628	-0.9125633	12.217452	-9.575105	5.742676	0.0	5.3125	-40.125	27.1875	-0.5881699	-0.663387	0.07455498
1277308132668	2.7649305	18.34661	-4.440233	9.271048	0.0	6.8125	-39.1875	27.6875	-2.5355039	-0.23489894	-0.14957961
1277308132708	4.0588636	9.534244	1.6889231	0.69233227	0.0	7.8125	-38.9375	27.9375	-2.5422199	0.16156742	-0.40247548
1277308132748	1.1849703	5.243834	0.42223078	-4.4140415	0.0	8.8125	-38.4375	27.9375	-2.6332862	0.078378275	-0.22224133
1277308132778	-1.1441092	12.571581	3.718355	3.3531294	0.0	9.5625	-38.4375	27.9375	-2.983405	0.28645605	0.09075758
1277308132828	-1.607201	11.604536	-4.099725	2.6052837	0.0	9.8125	-39.625	26.25	-2.7812154	-0.33662677	0.13762218
1277308132868	1.5390993	6.0201936	-3.1054392	-2.860046	0.0	9.5625	-41.125	24.0	-1.8086308	-0.46345824	-0.25029495
1277308132908	1.8387469	5.134871	0.42223078	-4.336169	0.0	9.8125	-42.875	21.0625	-2.359716	0.077260315	-0.34386384
1277308132948	0.14982383	8.812365	-0.50395286	-0.9786167	0.0	9.8125	-44.625	17.625	-2.5295944	-0.057116568	-0.01699991
1277308132978	1.7978859	7.4639506	-2.3018389	-1.7915754	0.0	9.5625	-46.125	14.1875	-1.6380993	-0.29129058	-0.23637302
1277308133018	0.313268	7.5865335	-1.6480621	-2.0368533	0.0	9.5625	-46.5625	11.4375	-1.691587	-0.21373495	-0.041269194
1277308133058	-1.4982382	7.4639506	-0.27240697	-2.1889415	0.0	8.8125	-47.5625	8.75	3.039262	-0.035767324	0.1980973
1277308133098	-2.0294318	8.812365	-0.9942854	-0.7091255	0.0	7.5625	-48.0625	6.5	1.8972465	-0.109510615	0.22634728
1277308133138	-3.1054392	10.378705	-1.1441092	1.0869379	0.0	6.3125	-48.8125	4.8125	1.5310936	-0.105219975	0.29073426
1277308133178	-3.405087	11.604536	-0.7218784	2.30867	0.0	4.5625	-50.0625	2.8125	1.5572871	-0.059619244	0.2854159
1277308133208	3.214402	15.213928	1.0351465	5.7775574	0.0	4.0625	-50.5625	2.0625	-1.9221357	0.066471726	-0.20821801
1277308133248	6.973618	14.750836	-0.61291564	6.521061	0.0	4.8125	-50.5625	2.3125	-1.5966806	-0.03754719	-0.4416198
1277308133278	10.419566	18.115063	-0.3405087	11.094038	0.0	6.8125	-49.8125	4.0625	-1.6813928	-0.016292468	-0.5219755
1277308133318	6.66035	17.733692	0.38136974	9.140369	0.0	10.3125	-48.5625	6.5	-1.8388301	0.020129578	-0.35927558
1277308133358	-2.3699405	14.206022	-2.070293	4.743738	0.0	13.25	-47.0625	10.25	-2.1160936	-0.14276889	0.16530417
1277308133398	-1.2258313	7.3549876	-0.53119355	-2.3313127	0.0	15.75	-45.625	13.1875	-2.4534423	-0.07111941	0.16514869
1277308133438	0.38136974	0.5720546	1.2666923	-8.365401	0.0	17.25	-43.625	16.375	-2.2528076	1.0735201	-0.5880026
1277308133478	1.3075534	-0.7627395	0.27240697	-8.268576	0.0	17.25	-41.625	20.0625	-2.027384	0.17804833	-2.0988708
1277308133518	0.92618364	1.4573772	-2.3426998	-6.8963223	0.0	16.0	-40.125	22.5625	-1.3745029	-0.9356094	-0.56612426
1277308133558	-0.6537767	4.944186	-5.243834	-2.5699248	0.0	14.5	-39.875	24.25	-0.6021353	-0.8104744	0.1314687
1277308133598	0.61291564	13.6748295	-6.428804	5.3163834	0.0	13.25	-40.125	25.0	-1.9413712	-0.43907252	-0.044790734
1277308133638	0.14982383	15.213928	-9.997335	8.398645	0.0	12.25	-40.375	25.5	-1.5081493	-0.5813401	-0.009847488
1277308133678	0.313268	6.2108784	-7.504812	-0.060094833	0.0	12.5	-39.875	25.5	-0.80593157	-0.87883544	-0.050395887
1277308133718	5.47538	18.0061	0.19068487	9.014502	0.0	13.0	-38.9375	26.25	-2.4121788	0.010131586	-0.29520002
1277308133758	3.6774938	7.3141265	-0.040861044	-1.6199484	0.0	13.25	-38.6875	27.0	-2.3141348	-0.0049911696	-0.46587977
1277308133798	0.23154591	5.5162406	1.56634	-4.067665	0.0	14.0	-38.1875	26.5	-2.730359	0.27643713	-0.041950684
1277308133838	-0.6537767	15.173067	1.607201	5.4653015	0.0	14.5	-39.375	25.25	-2.7301548	0.10543397	0.04306134
1277308133878	-0.0	9.466142	-2.4925237	-0.01785469	0.0	14.25	-40.875	23.0	-2.2638288	-0.25746536	0.0
1277308133918	3.1463003	5.6252036	-1.1441092	-3.2605743	0.0	14.5	-42.375	19.5625	-1.9692317	-0.17568018	-0.5099721
1277308133958	0.6946377	7.4639506	-0.53119355	-2.2916489	0.0	14.5	-44.375	15.375	-2.15663	-0.07074342	-0.09279839
1277308133998	-0.7627395	8.390134	-1.1441092	-1.3045855	0.0	14.25	-45.625	11.9375	-2.0742047	-0.13497788	0.090659894
1277308134038	0.10896278	7.082581	-1.920469	-2.467507	0.0	14.5	-46.8125	8.0	-1.2851931	-0.26475707	-0.015383401
1277308134078	-1.3756552	8.049625	-1.4982382	-1.5040226	0.0	13.75	-47.5625	4.8125	-0.9286122	-0.18144749	0.16926163
1277308134108	-2.7921712	8.62168	-1.0351465	-0.68518543	0.0	12.5	-48.5625	1.875	0.6773646	-0.11372969	0.31319562
1277308134148	-3.173541	9.80665	-0.50395286	0.51302624	0.0	11.0	-49.3125	-1.125	0.9215825	-0.048853606	0.3129752
1277308134188	-0.50395286	11.413852	-1.9885708	1.7900906	0.0	9.5625	-49.5625	-2.3125	-0.59686387	-0.17232838	0.044124085
1277308134228	-1.4573772	14.137921	0.08172209	4.4064226	0.0	8.8125	-49.8125	-3.3125	-0.88030535	0.005749815	0.10272003
1277308134268	1.1168685	13.565866	1.6480621	3.904522	0.0	8.8125	-50.0625	-3.0625	-1.7898631	0.12048982	-0.08214406
1277308134298	6.932757	14.09706	-0.19068487	5.904065	0.0	10.0625	-49.5625	-1.625	-1.5025963	-0.012137547	-0.457056
1277308134338	7.273266	14.09706	1.4165162	6.1192417	0.0	11.75	-48.8125	0.125	-1.6771364	0.08906193	-0.47631973
1277308134378	0.14982383	14.015338	-0.23154591	4.211401	0.0	13.5	-47.5625	2.8125	-1.7146399	-0.016518446	-0.010689584
1277308134419	-1.879608	12.067628	-2.070293	2.5807095	0.0	15.5	-46.125	6.25	-1.3489211	-0.16791748	0.15451469
1277308134458	0.6537767	6.851035	-0.88532263	-2.8677812	0.0	17.0	-44.875	10.25	-1.7878726	-0.12793763	-0.09513935
1277308134498	0.6537767	1.4165162	-0.7627395	-8.070069	0.0	18.1875	-43.125	14.1875	-1.5388682	-0.45472917	-0.43240777
1277308134538	-0.29964766	2.3426998	-0.50395286	-7.391697	0.0	17.9375	-41.875	18.125	-2.173267	-0.21022521	0.12721622
1277308134578	0.040861044	2.6014864	-1.4165162	-6.8442326	0.0	17.0	-40.875	20.8125	-1.5064977	-0.498561	-0.015705515
1277308134618	1.4573772	4.862464	-4.2904096	-3.160214	0.0	15.25	-40.625	21.8125	-1.3595141	-0.7017044	-0.2911998
1277308134658	2.0294318	11.141444	-4.440233	2.357479	0.0	13.5	-41.125	22.3125	-1.8926998	-0.37366158	-0.18017623
1277308134698	0.88532263	16.507862	-7.9270425	8.527235	0.0	12.5	-42.125	21.8125	-1.6903334	-0.44712073	-0.053579032
1277308134738	-2.8738933	7.082581	-9.084772	2.0658092	0.0	11.75	-42.375	22.0625	0.2566591	-0.87134755	0.38546994
1277308134780	4.862464	12.258313	-1.56634	3.4735308	0.0	12.5	-41.875	22.8125	-2.173149	-0.118220866	-0.3776295
1277308134818	-0.19068487	16.507862	2.8738933	6.95059	0.0	12.5	-41.625	23.5	-2.7641487	0.17235363	0.011550641
1277308134848	-0.5720546	6.0474343	2.070293	-3.38911	0.0	13.0	-41.375	24.0	-2.898017	0.32847416	0.09431396
1277308134888	3.214402	5.829509	-0.19068487	-3.1469269	0.0	13.5	-41.375	23.5	-2.1894846	-0.028636467	-0.5039188
1277308134928	2.6014864	13.715691	0.08172209	4.1538143	0.0	12.75	-42.625	22.5625	-2.4098496	0.005853857	-0.18744564
1277308134968	1.607201	9.575105	-0.9942854	-0.04681778	0.0	12.75	-43.875	19.5625	-2.2267578	-0.10205231	-0.16630182
1277308135008	0.313268	5.2165933	-0.38136974	-4.5667624	0.0	13.25	-44.875	15.875	-2.2416	-0.07284646	-0.059980188
1277308135048	-2.8330324	8.19945	-1.0351465	-1.0700283	0.0	13.75	-46.5625	11.6875	2.7809036	-0.11876259	0.33267367
1277308135088	-1.4573772	8.689782	-1.525479	-0.86442757	0.0	14.0	-47.5625	6.75	-1.284915	-0.17143127	0.1661652
1277308135128	0.27240697	6.66035	-2.3018389	-2.7544923	0.0	13.5	-48.5625	3.0625	-0.88109714	-0.33249465	-0.040877014
1277308135168	-1.3756552	9.724928	-1.3756552	0.110964775	0.0	12.0	-49.0625	-0.125	-0.6148061	-0.13915695	0.14052424
1277308135208	-3.173541	10.651112	-0.53119355	1.3198814	0.0	10.5625	-49.0625	-2.3125	0.69114417	-0.047759317	0.28957865
1277308135248	-1.4165162	11.182305	-1.6480621	1.5848627	0.0	9.3125	-49.5625	-3.8125	-0.26583496	-0.14518407	0.12600368
1277308135288	-2.2201166	12.980191	-0.0	3.3620358	0.0	8.5625	-49.5625	-4.5625	-0.018445328	-0.0	0.16939962
1277308135328	2.8330324	13.443283	0.46309182	3.9397087	0.0	8.8125	-49.5625	-4.5625	-1.4135698	0.0336947	-0.20770048
1277308135398	7.014479	14.669114	1.3756552	6.511385	0.0	9.8125	-49.3125	-2.8125	-1.5904151	0.08440292	-0.44603983
1277308135438	1.3075534	13.797412	-1.8387469	4.1740246	0.0	11.5	-48.0625	0.625	-1.2376577	-0.13190275	-0.094485834
1277308135478	-3.2961242	12.489859	-2.3699405	3.3264236	0.0	14.25	-46.5625	5.0625	-0.46290416	-0.18144993	0.2580214
1277308135518	-0.46309182	6.742072	-0.8036005	-3.0010815	0.0	16.75	-45.625	10.25	-1.9017922	-0.118355975	0.06857915
1277308135558	0.23154591	1.1849703	-0.53119355	-8.487584	0.0	17.9375	-44.125	14.4375	-1.4623054	-0.41446948	-0.19297081
1277308135598	0.14982383	1.9477097	-0.08172209	-7.8514776	0.0	18.4375	-42.625	17.625	-2.2039626	-0.041810077	-0.07677189
1277308135638	0.6537767	1.4165162	-1.2258313	-7.822562	0.0	17.5	-41.875	19.8125	-1.470031	-0.6659815	-0.43240777
1277308135683	0.19068487	4.5219555	-2.7240696	-4.5241323	0.0	15.5	-41.125	21.0625	-1.4092782	-0.5417969	-0.042143703
1277308135725	4.1814466	15.554437	-7.082581	7.7884617	0.0	14.0	-41.375	21.0625	-1.7605628	-0.41428027	-0.26261786
1277308135780	0.7218784	7.082581	-9.425281	2.005207	0.0	12.5	-41.875	21.5625	-0.7144411	-0.9238876	-0.10157232
1277308135818	2.2609777	15.431854	-1.0351465	5.8242702	0.0	12.0	-41.875	22.3125	-2.401168	-0.06627279	-0.1454786
1277308135848	1.0760075	15.472715	0.9942854	5.7352715	0.0	12.25	-40.875	23.5	-2.6167972	0.064018145	-0.06943047
1277308135879	-0.27240697	8.471856	2.9147544	-0.84326077	0.0	12.5	-40.125	25.25	-2.84793	0.33120674	0.03214327
1277308135918	0.46309182	9.615966	1.4573772	-0.06985378	0.0	13.25	-39.625	25.5	-2.6877856	0.15024187	-0.04812146
1277308135948	2.3018389	13.102775	-1.7570249	3.6123037	0.0	13.25	-39.625	24.75	-2.3516707	-0.1313131	-0.1739012
1277308135988	2.0294318	11.454713	-2.4516625	2.0819864	0.0	13.5	-40.875	22.8125	-2.188431	-0.2077093	-0.17535043
1277308136028	0.84446156	6.5922484	-0.88532263	-3.1018271	0.0	13.75	-42.375	19.0625	-2.1906502	-0.13242939	-0.12740532
1277308136068	0.19068487	5.6252036	-1.1168685	-4.068474	0.0	13.5	-44.375	15.375	-1.9819342	-0.19588861	-0.03388533
1277308136108	-1.4573772	7.273266	-1.4573772	-2.2470016	0.0	13.5	-46.5625	10.9375	-1.9049382	-0.1939983	0.19775565
1277308136138	-1.4165162	7.3958488	-1.4573772	-2.1366405	0.0	12.75	-48.0625	6.5	-0.85241497	-0.19117217	0.18923683
1277308136168	-0.95342433	8.281172	-1.8387469	-1.2703857	0.0	11.5	-49.3125	3.3125	-0.6505044	-0.2171057	0.114626884
1277308136198	-1.1441092	8.962189	-1.8387469	-0.5865202	0.0	10.0625	-49.8125	0.625	-0.36914098	-0.2007736	0.1269728
1277308136238	-2.3699405	9.575105	-0.7627395	0.086833954	0.0	7.8125	-50.0625	-1.125	0.7253587	-0.07717171	0.24263439
1277308136268	-1.9885708	10.760075	-0.9942854	1.1807165	0.0	6.3125	-50.3125	-2.3125	0.40314418	-0.090617485	0.18274818
1277308136298	-1.56634	12.980191	0.14982383	3.2685642	0.0	5.3125	-50.3125	-3.0625	0.29460558	0.011458864	0.1200909
1277308136328	0.9942854	15.173067	0.08172209	5.3991795	0.0	4.8125	-51.0625	-3.8125	-1.1606003	0.0053744176	-0.06543607
1277308136368	3.336985	12.217452	-0.0	2.858325	0.0	5.5625	-51.0625	-3.5625	-1.3837162	-0.0	-0.26662934
1277308136408	6.932757	11.182305	-2.2609777	3.5432224	0.0	6.5625	-51.0625	-1.875	-1.3116288	-0.17018354	-0.55497813
1277308136448	6.701211	13.593107	0.84446156	5.372017	0.0	8.0625	-50.8125	0.875	-1.6784903	0.055663504	-0.45802066
1277308136488	-0.46309182	14.519291	0.42223078	4.726159	0.0	10.3125	-49.3125	4.5625	-2.1728215	0.029057713	0.031884126
1277308136528	0.14982383	13.252599	-1.9885708	3.595149	0.0	12.25	-48.3125	8.75	-1.6879172	-0.14893083	-0.011304759
1277308136568	1.0351465	7.668256	-1.6889231	-1.8866668	0.0	13.5	-46.8125	12.9375	-1.7289305	-0.21489856	-0.13418001
1277308136608	0.08172209	4.4810944	-0.27240697	-5.3165402	0.0	14.0	-44.875	17.125	-2.3415048	-0.060705498	-0.01823506
1277308136668	2.5333846	0.84446156	-0.040861044	-7.1359158	0.0	13.75	-43.375	21.0625	-2.004128	-0.01530015	-1.2490457
1277308136743	2.4925237	0.8036005	-1.920469	-6.5590897	0.0	13.0	-41.875	23.75	-1.9772321	-0.6327411	-1.2589139
1277308136778	1.7297841	13.402422	-5.9793324	4.9706793	0.0	12.25	-41.875	24.25	-1.9012461	-0.41657284	-0.12835547
1277308136809	-1.2258313	15.241169	-10.106298	8.52183	0.0	11.75	-41.875	24.5	-1.2159308	-0.58403987	0.0802562
1277308136849	0.84446156	9.234595	-8.430995	2.7262087	0.0	11.0	-42.375	24.0	-0.9790343	-0.73786706	-0.091191806
1277308136888	0.88532263	18.0061	-2.070293	8.339685	0.0	10.75	-42.375	23.75	-2.543835	-0.11433772	-0.049128365
1277308136918	6.0474343	9.847511	-2.0294318	1.9263601	0.0	11.25	-41.125	25.0	-2.1325712	-0.173842	-0.55072844
1277308136948	2.1111538	6.5513873	0.88532263	-2.8668056	0.0	10.75	-40.875	25.0	-2.481609	0.12791954	-0.31173834
1277308136988	-0.9942854	9.193735	4.5628166	0.50512314	0.0	11.0	-40.875	24.5	-2.981369	0.45836908	0.10772944
1277308137028	-1.1441092	13.252599	-1.7570249	3.6107826	0.0	11.0	-41.625	23.5	-2.7474709	-0.13132808	0.08611742
1277308137068	2.9556155	7.5456724	-2.4925237	-1.3281174	0.0	10.75	-43.375	21.0625	-1.9202139	-0.29838875	-0.373328
1277308137108	3.9499009	6.469665	-0.0	-2.2265258	0.0	12.0	-44.625	18.125	-2.066794	-0.0	-0.54812354
1277308137148	0.38136974	8.471856	0.23154591	-1.3230543	0.0	12.5	-45.875	14.875	-2.406862	0.02729676	-0.044985708
1277308137188	-0.6946377	8.008764	-1.1168685	-1.6906033	0.0	12.75	-46.5625	10.9375	-2.0306394	-0.13805045	0.086518176
1277308137218	-0.5720546	8.008764	-1.56634	-1.6261263	0.0	13.0	-47.5625	7.0	-1.3262084	-0.19266151	0.07130747
1277308137258	-1.607201	7.7363577	-2.070293	-1.6383924	0.0	12.0	-48.5625	3.5625	-0.2001704	-0.25625113	0.20483287
1277308137288	-0.6946377	8.499097	-2.3018389	-0.97400475	0.0	11.0	-49.0625	0.125	-0.4966041	-0.26364964	0.08154951
1277308137328	-2.070293	9.466142	-0.9942854	-0.06588268	0.0	9.8125	-50.0625	-2.5625	0.14218655	-0.10225274	0.21531479
1277308137368	-2.7921712	10.269742	-0.84446156	0.8693476	0.0	8.5625	-50.3125	-4.0625	0.54919124	-0.07918179	0.26546633
1277308137408	-0.29964766	14.941522	-0.08172209	5.1380997	0.0	8.0625	-50.5625	-5.3125	-0.90021515	-0.005468308	0.020052006
1277308137448	3.5957718	13.252599	0.92618364	3.9562988	0.0	8.5625	-50.5625	-5.3125	-1.4703424	0.06734633	-0.26494712
1277308137478	5.7477865	13.402422	-0.7627395	4.796217	0.0	9.8125	-50.0625	-3.0625	-1.389858	-0.05225595	-0.40513706
1277308137518	7.5865335	15.472715	0.10896278	7.4262333	0.0	11.5	-49.8125	-0.875	-1.551447	0.006322999	-0.45587116
1277308137558	1.6480621	14.7916975	1.1849703	5.1236744	0.0	14.0	-48.8125	2.5625	-1.8851663	0.07945024	-0.1109604
1277308137598	-3.486809	12.762266	-2.6832085	3.6927156	0.0	16.0	-47.5625	6.5	-0.67967767	-0.20009814	0.26670352
1277308137638	-0.5720546	6.1700177	-1.7978859	-3.3546147	0.0	17.5	-46.5625	10.25	-1.3084055	-0.28239238	0.09245093
1277308137678	0.313268	3.173541	-0.08172209	-6.616638	0.0	17.9375	-44.625	14.4375	-2.1112006	-0.025620913	-0.098393686
1277308137718	1.7297841	2.3426998	0.040861044	-6.894252	0.0	16.75	-43.125	18.375	-2.0174155	0.014030491	-0.6360177
1277308137760	2.4108016	1.3075534	-1.3075534	-6.7683353	0.0	15.25	-42.125	21.8125	-1.9335732	-0.4448858	-1.0738277
1277308137798	1.1849703	3.6774938	-3.636633	-4.50069	0.0	14.0	-41.625	23.25	-1.2986513	-0.7551342	-0.31171748
1277308137828	-0.0	9.507003	-4.4810944	0.70350266	0.0	12.25	-41.875	23.75	-1.8588341	-0.44046336	0.0
1277308137858	1.2666923	16.43976	-6.8237944	8.03808	0.0	12.0	-42.125	23.5	-1.947057	-0.3923905	-0.0768986
1277308137898	0.08172209	14.2877445	-10.337844	7.829033	0.0	11.75	-42.625	23.0	-1.086314	-0.6263469	-0.005719671
1277308137948	3.3778462	13.443283	-2.5333846	4.2841177	0.0	11.75	-42.125	23.0	-2.20083	-0.18077336	-0.24617028
1277308137978	3.336985	14.47843	0.27240697	5.053854	0.0	13.0	-41.625	23.25	-2.3979435	0.018331964	-0.22652401
1277308138018	1.0351465	9.425281	2.4108016	-0.023020744	0.0	13.5	-41.375	23.25	-2.634745	0.24897613	-0.109388195
1277308138058	1.334794	8.430995	1.334794	-1.1669149	0.0	14.25	-41.375	23.0	-2.5202024	0.15511607	-0.15701663
1277308138098	-0.53119355	12.408136	0.23154591	2.6150103	0.0	14.5	-42.375	21.8125	-2.6306658	0.018641576	0.042783976
1277308138138	0.95342433	9.425281	-1.1849703	-0.2594471	0.0	14.5	-43.375	19.5625	-2.2191265	-0.12443791	-0.10081314
1277308138178	1.920469	6.782933	-1.4573772	-2.608016	0.0	15.0	-45.125	16.375	-1.8641524	-0.20386103	-0.27591115
1277308138218	0.7218784	7.8180795	-0.29964766	-1.9495983	0.0	15.0	-46.8125	12.1875	-2.0684845	-0.038146667	-0.092073426
1277308138248	-0.46309182	8.771504	-0.88532263	-0.978426	0.0	15.25	-47.5625	8.5	-1.8475547	-0.10045206	0.052746058
1277308138288	-0.61291564	8.158588	-2.1111538	-1.3570824	0.0	15.25	-48.5625	5.3125	-1.0115668	-0.2525289	0.07498435
1277308138328	-1.879608	7.9270425	-1.607201	-1.5027943	0.0	14.5	-49.3125	2.3125	-0.34231707	-0.19477801	0.2328138
1277308138368	-2.2201166	7.8861814	-2.6832085	-1.1857233	0.0	13.25	-49.3125	-0.375	0.037451055	-0.31650138	0.2744175
1277308138408	-2.7513103	8.730643	-0.9942854	-0.59891224	0.0	11.5	-50.3125	-3.0625	0.44996986	-0.108194634	0.30528143
1277308138448	-1.8387469	9.724928	-1.1849703	0.16126633	0.0	10.0625	-50.8125	-5.3125	-0.039094407	-0.11916023	0.18686965
1277308138488	-1.6480621	14.818938	0.23154591	5.105448	0.0	9.0625	-50.5625	-6.75	-0.5212076	0.01552801	0.110758096
1277308138528	2.6832085	14.369467	1.3756552	4.8757753	0.0	9.3125	-50.5625	-6.25	-1.4774573	0.09383163	-0.18460386
1277308138558	6.891896	13.0619135	-0.38136974	4.9668827	0.0	10.5625	-50.0625	-4.8125	-1.3944831	-0.025817258	-0.4855088
1277308138598	8.62168	13.184497	-0.5720546	5.9569654	0.0	11.75	-49.3125	-2.0625	-1.4807292	-0.036297526	-0.57912993
1277308138638	1.1849703	14.859799	1.334794	5.1599617	0.0	13.5	-48.5625	1.625	-1.8960574	0.089303434	-0.079574965
1277308138678	-4.5628166	14.056199	-2.6832085	5.213191	0.0	15.25	-47.5625	5.0625	0.04566531	-0.17960837	0.31388128
1277308138718	-0.38136974	7.205164	-2.1383946	-2.2811894	0.0	16.5	-45.875	9.25	-1.2675751	-0.2881246	0.05288071
1277308138758	1.1441092	2.7921712	-0.6946377	-6.710244	0.0	17.25	-44.875	13.1875	-1.7213681	-0.22626242	-0.38888842
1277308138798	0.84446156	2.6423476	-0.08172209	-7.03144	0.0	17.0	-43.625	17.125	-2.0693552	-0.029451426	-0.30932882
1277308138828	1.2258313	1.7297841	-0.53119355	-7.6210194	0.0	15.75	-42.375	20.5625	-1.9236785	-0.24549757	-0.6165154
1277308138868	1.2666923	2.1792557	-1.607201	-6.817209	0.0	14.25	-42.375	22.3125	-1.658837	-0.56761885	-0.5265186
1277308138908	1.6480621	6.782933	-4.440233	-1.5338049	0.0	13.25	-42.375	22.5625	-1.5103675	-0.5665495	-0.23835312
1277308138948	2.7649305	16.276316	-6.2108784	7.8324623	0.0	12.5	-43.125	21.5625	-1.866228	-0.35982275	-0.16826816
1277308138988	0.313268	14.709975	-10.038197	8.004776	0.0	12.25	-43.625	20.5625	-1.056317	-0.5987154	-0.02129308
1277308139028	1.3075534	8.730643	-4.4810944	0.09355354	0.0	13.0	-43.625	20.3125	-1.5426512	-0.4697086	-0.14866109
1277308139068	4.2495484	15.5135765	-0.84446156	6.300579	0.0	13.25	-43.125	20.5625	-2.2250063	-0.052451536	-0.26736605
1277308139108	-0.08172209	10.651112	2.4516625	1.1232862	0.0	13.75	-42.375	21.5625	-2.7274632	0.22623198	0.007672484
1277308139138	0.7627395	7.6954966	0.6946377	-2.0423112	0.0	14.0	-42.375	21.0625	-2.5074885	0.089584924	-0.09879238
1277308139178	0.5720546	11.264028	-0.95342433	1.5121212	0.0	13.5	-42.875	19.5625	-2.3652604	-0.084333844	-0.050742377
1277308139208	1.0351465	12.299174	-1.3075534	2.605075	0.0	13.25	-44.125	17.875	-2.2359896	-0.10554408	-0.08396601
1277308139248	2.0294318	7.504812	-1.525479	-1.8840318	0.0	13.25	-45.625	14.4375	-1.8225381	-0.19375739	-0.26410085
1277308139288	0.7218784	6.1291566	-0.7627395	-3.5881748	0.0	13.25	-47.0625	11.4375	-1.8725017	-0.122966655	-0.11723767
1277308139318	-1.3075534	7.082581	0.08172209	-2.6039195	0.0	13.5	-48.0625	8.0	-2.6531994	0.01134623	0.18255986
1277308139358	-0.5720546	7.7772183	-0.53119355	-1.9903507	0.0	13.25	-48.8125	4.5625	-1.692427	-0.06801215	0.073422946
1277308139398	0.040861044	7.8180795	-2.070293	-1.718996	0.0	13.0	-49.0625	1.625	-0.8794591	-0.2588633	-0.0052264333
1277308139438	-0.7627395	8.499097	-1.879608	-1.0688391	0.0	11.75	-49.5625	-1.375	-0.53802246	-0.21680652	0.089503825
1277308139478	-2.1111538	9.888372	-1.2258313	0.3786106	0.0	10.0625	-49.8125	-3.8125	0.056480166	-0.12064592	0.21034068
1277308139518	-2.4516625	10.528529	-0.9942854	1.0491858	0.0	8.5625	-50.0625	-6.0625	0.27507237	-0.09171848	0.22878203
1277308139558	-0.8036005	14.982383	-0.38136974	5.202114	0.0	7.0625	-50.8125	-7.25	-0.4690248	-0.025412535	0.053585015
1277308139598	3.8681788	13.375181	0.61291564	4.1301346	0.0	7.3125	-50.5625	-7.0	-1.3402293	0.043992456	-0.2815246
1277308139638	7.6954966	15.472715	-1.0351465	7.5051117	0.0	8.3125	-50.3125	-4.8125	-1.3316852	-0.059830092	-0.46153268
1277308139678	3.9090397	15.745122	1.4165162	6.4781895	0.0	10.5625	-49.8125	-1.875	-1.6655933	0.0870938	-0.24334966
1277308139708	-1.4982382	14.437569	-2.2201166	4.8772535	0.0	12.75	-48.8125	2.3125	-0.96860814	-0.15177593	0.10340346
1277308139748	-1.607201	10.460427	-2.070293	0.9771223	0.0	15.0	-47.5625	5.8125	-1.1117157	-0.19318157	0.15245363
1277308139788	0.040861044	4.1814466	0.040861044	-5.6248045	0.0	16.75	-46.5625	9.25	-2.0843132	0.00977121	-0.009771677
1277308139828	0.38136974	1.4573772	0.42223078	-8.242147	0.0	17.5	-45.125	13.1875	-2.2583344	0.27327016	-0.25594315
1277308139868	1.0760075	1.4165162	-0.29964766	-8.002738	0.0	17.0	-43.625	16.375	-1.864721	-0.16688345	-0.6496266
1277308139908	1.2666923	2.1111538	-1.6480621	-6.8439503	0.0	15.25	-43.125	19.5625	-1.5722271	-0.5898909	-0.5404195
1277308139948	0.95342433	6.469665	-3.7864566	-2.250008	0.0	13.5	-42.625	20.8125	-1.4622453	-0.5248423	-0.14631529
1277308139988	3.173541	14.628253	-5.6252036	6.1839743	0.0	11.75	-43.125	20.8125	-1.8328737	-0.3594734	-0.21363544
1277308140028	0.46309182	12.067628	-11.264028	6.7075977	0.0	11.0	-43.375	20.8125	-0.73300344	-0.7506023	-0.038355898
1277308140116	2.3699405	12.639683	-4.4810944	3.8116608	0.0	11.75	-43.375	20.8125	-1.8844144	-0.33529654	-0.18534796
1277308140150	1.8387469	5.012288	1.5390993	-4.250316	0.0	12.25	-43.125	22.0625	-2.4409297	0.28066954	-0.35160446
1277308140188	0.53119355	8.240311	2.8738933	-1.0634155	0.0	12.75	-42.875	22.5625	-2.7262175	0.3349258	-0.06437374
1277308140219	0.10896278	14.750836	-0.8036005	4.966461	0.0	13.0	-44.125	21.5625	-2.5333035	-0.054423023	-0.007386754
1277308140259	2.2201166	9.152874	-2.9147544	0.05234623	0.0	12.25	-45.125	19.5625	-1.8546734	-0.3001297	-0.23796368
1277308140298	2.1792557	5.8567495	-1.1849703	-3.4462395	0.0	12.0	-46.5625	15.625	-1.8540725	-0.18739899	-0.35621965
1277308140338	-0.14982383	7.43671	-0.3405087	-2.3606415	0.0	11.75	-47.8125	11.6875	-2.2918239	-0.045746323	0.020143796
1277308140378	-0.61291564	8.240311	-1.3075534	-1.4407625	0.0	12.0	-48.3125	7.75	-1.5690541	-0.15693928	0.07424344
1277308140418	-0.040861044	7.8180795	-1.7570249	-1.7934628	0.0	12.0	-49.3125	3.8125	-1.026553	-0.22106278	0.0052264333
1277308140458	0.08172209	8.19945	-1.4982382	-1.4710417	0.0	11.25	-50.0625	0.625	-0.9521782	-0.18072164	-0.009966448
1277308140518	-2.6014864	9.507003	-1.8387469	0.21990585	0.0	10.3125	-50.0625	-2.0625	0.27947482	-0.18443148	0.26710042
1277308140558	-6.0882955	12.639683	0.7627395	4.243641	0.0	8.5625	-50.0625	-4.5625	1.4356192	0.05431308	0.44888532
1277308140598	-1.2258313	16.017529	2.4925237	6.449934	0.0	7.3125	-50.3125	-6.0625	-2.0483384	0.15393113	0.07638173
1277308140638	8.076866	15.745122	0.313268	7.8920155	0.0	7.8125	-50.3125	-6.25	-1.3883345	0.017701015	-0.47397423
1277308140668	9.80665	11.495573	-1.920469	5.4251184	0.0	9.3125	-50.8125	-4.8125	-1.3525244	-0.1264196	-0.7062798
1277308140698	5.9793324	11.795221	0.5720546	3.429924	0.0	11.5	-50.3125	-1.875	-1.5659931	0.043231186	-0.46917495
1277308140728	0.3405087	12.9529505	0.53119355	3.1616592	0.0	13.75	-49.5625	1.875	-1.8236477	0.040972356	-0.026282066
1277308140768	-2.4108016	14.437569	-0.6537767	4.8454075	0.0	14.75	-48.3125	5.8125	-2.0674148	-0.04463495	0.16545464
1277308140808	0.040861044	8.499097	-1.607201	-1.1568289	0.0	15.75	-47.0625	9.75	-1.6239399	-0.18689352	-0.0048076552
1277308140848	1.4165162	2.7649305	-1.2258313	-6.4668865	0.0	15.75	-46.125	14.1875	-1.5926378	-0.37582633	-0.47345123
1277308140888	0.92618364	2.982856	-1.1849703	-6.466081	0.0	15.25	-44.625	17.625	-1.6770803	-0.36261576	-0.30106387
1277308140928	0.50395286	3.1463003	-1.1168685	-6.430177	0.0	14.5	-44.125	21.0625	-1.8551133	-0.3371296	-0.1588241
1277308140968	0.88532263	3.3778462	-2.3018389	-5.624294	0.0	12.75	-43.125	22.8125	-1.4793589	-0.582806	-0.2563311
1277308141008	1.607201	6.5513873	-4.7535014	-1.5544052	0.0	12.0	-43.125	22.8125	-1.3978374	-0.6138578	-0.24057125
1277308141048	2.5606253	13.947236	-6.8237944	5.930134	0.0	12.0	-43.625	22.0625	-1.6828387	-0.44850695	-0.1815717
1277308141088	0.313268	12.680544	-9.80665	6.2265873	0.0	12.25	-43.375	21.5625	-0.962295	-0.6581383	-0.024699595
1277308141128	-0.23154591	9.466142	-6.3198414	1.577631	0.0	13.5	-43.375	21.3125	-1.0873647	-0.5885283	0.024455555
1277308141158	3.7864566	18.34661	-0.27240697	8.928598	0.0	14.0	-42.625	21.3125	-2.3194768	-0.014540323	-0.20352694
1277308141198	3.1463003	11.917805	1.2258313	2.5802755	0.0	15.0	-42.125	22.0625	-2.3630807	0.09912395	-0.2581111
1277308141228	1.2666923	6.701211	0.53119355	-2.9661164	0.0	15.75	-41.875	21.8125	-2.3866434	0.07773207	-0.18682015
1277308141268	-0.42223078	10.269742	3.255263	0.9749365	0.0	15.5	-42.375	21.3125	-2.7500336	0.30671442	0.041090917
1277308141308	1.0760075	11.645397	-0.9125633	1.9239016	0.0	15.5	-43.875	19.3125	-2.257613	-0.0778724	-0.09213606
1277308141338	2.0294318	7.7772183	-2.1383946	-1.4894123	0.0	14.25	-44.875	16.625	-1.7987599	-0.26002422	-0.2552537
1277308141378	1.6889231	6.66035	-1.2666923	-2.8197174	0.0	14.0	-46.3125	12.9375	-1.7765605	-0.1823026	-0.24834403
1277308141418	-0.29964766	8.19945	-0.0	-1.6017275	0.0	13.75	-47.5625	8.5	-2.186943	-0.0	0.0365286
1277308141448	-0.53119355	7.9679036	-1.2258313	-1.7275219	0.0	13.5	-47.8125	5.3125	-1.3672631	-0.15231644	0.066568166
1277308141488	-0.50395286	7.5456724	-1.6480621	-2.0666728	0.0	13.75	-48.3125	2.0625	-0.8934954	-0.21457125	0.06668797
1277308141528	-2.1383946	8.853226	-1.9885708	-0.48427105	0.0	12.5	-48.8125	-0.875	-0.059407074	-0.21496324	0.23699915
1277308141568	-2.2201166	9.00305	-2.1792557	-0.2812643	0.0	11.25	-49.0625	-3.3125	0.055843245	-0.23082834	0.2417724
1277308141608	-2.2609777	9.384419	-0.23154591	-0.1509285	0.0	10.0625	-49.5625	-5.5625	0.2633822	-0.023982475	0.2364231
1277308141648	0.61291564	11.686258	-2.2201166	2.1044044	0.0	8.3125	-49.8125	-7.5	-0.5825699	-0.18748777	-0.052399542
1277308141688	0.38136974	12.340035	-0.95342433	2.5760365	0.0	7.3125	-50.0625	-8.25	-0.6333301	-0.077072844	-0.030895242
1277308141728	-0.3405087	15.241169	0.46309182	5.4453535	0.0	7.0625	-50.5625	-8.25	-0.72413653	0.030367354	0.02233766
1277308141798	8.689782	16.467001	2.1111538	8.93185	0.0	8.3125	-50.8125	-6.25	-1.519844	0.11290368	-0.4855682
1277308141839	1.879608	14.369467	-2.5606253	4.909712	0.0	10.75	-50.5625	-2.3125	-1.0123072	-0.17488869	-0.13006721
1277308141878	-3.336985	11.454713	-1.7978859	2.258933	0.0	13.5	-49.8125	2.3125	0.17784187	-0.14956647	0.28347445
1277308141918	-0.95342433	5.8567495	0.27240697	-3.8665543	0.0	15.75	-47.8125	8.25	-2.4998016	0.045875106	0.1613751
1277308141958	1.6480621	1.8387469	0.50395286	-7.2865176	0.0	16.5	-45.375	13.9375	-1.9750022	0.2013281	-0.7307651
1277308141998	1.1849703	1.334794	-0.42223078	-7.9724994	0.0	16.0	-43.875	18.625	-1.8775581	-0.2322884	-0.72600865
1277308142038	0.38136974	2.4516625	-2.1111538	-6.5488806	0.0	15.0	-42.375	21.8125	-1.170511	-0.70500356	-0.15431878
1277308142078	-0.0	5.47538	-4.862464	-2.4838538	0.0	13.75	-41.625	23.5	-0.9387555	-0.7261789	0.0
1277308142118	2.4516625	13.021052	-5.5571017	4.561364	0.0	12.75	-42.375	23.75	-1.8889027	-0.39712527	-0.18610571
1277308142148	1.4573772	16.249075	-10.18802	9.42749	0.0	12.25	-41.875	23.75	-1.48522	-0.5582282	-0.089450516
1277308142188	-0.53119355	5.6660647	-9.656827	1.4023085	0.0	12.0	-41.875	24.25	-0.31618446	-1.0382707	0.09347678
1277308142218	2.3426998	14.015338	-5.597963	5.4660416	0.0	12.0	-41.625	25.0	-2.0166574	-0.37528116	-0.16562143
1277308142258	2.9556155	16.3989	1.7297841	6.9460125	0.0	12.25	-40.875	25.75	-2.562749	0.10343864	-0.17831817
1277308142298	4.7943625	6.973618	-1.7978859	-1.1550808	0.0	12.25	-40.875	25.75	-2.562749	0.10343864	-0.17831817
1277308142338	0.46309182	6.1700177	4.1814466	-2.338848	0.0	12.25	-41.125	25.0	-2.8010697	0.59430134	-0.07491472
1277308142368	-0.53119355	15.241169	0.3405087	5.4475737	0.0	12.0	-42.375	23.25	-2.731622	0.02232411	0.034838445
1277308142408	0.19068487	10.310603	-3.7864566	1.1788931	0.0	11.75	-43.875	20.3125	-1.8807601	-0.35189396	-0.018491946
1277308142448	2.2609777	4.372132	-2.070293	-4.4668307	0.0	11.75	-45.625	17.125	-1.6396657	-0.39814427	-0.47726062
1277308142488	0.313268	7.164303	0.7627395	-2.5950522	0.0	11.25	-46.8125	13.4375	-2.5125554	0.105963856	-0.043698404
1277308142528	-0.38136974	9.507003	-1.334794	-0.19882965	0.0	11.75	-48.0625	10.0	-1.8828294	-0.1393787	0.040093116
1277308142568	1.2258313	7.43671	-1.607201	-2.1001325	0.0	11.5	-48.8125	6.75	-1.4138108	-0.21009302	-0.16336615
1277308142608	-0.38136974	8.730643	-0.8036005	-1.0308113	0.0	11.0	-49.3125	3.5625	-1.4572669	-0.09169811	0.043653995
1277308142648	-0.6946377	9.534244	-0.14982383	-0.24596119	0.0	10.5625	-49.8125	1.125	-1.6191024	-0.01567146	0.07272864
1277308142688	-0.8036005	11.645397	-0.9125633	1.9020567	0.0	9.3125	-49.8125	-1.625	-0.8132808	-0.07801799	0.06889663
1277308142728	-1.9477097	13.797412	-0.61291564	4.1410313	0.0	8.5625	-50.0625	-3.5625	-0.2503768	-0.043958064	0.14023823
1277308142768	2.3018389	15.745122	-1.7570249	6.202549	0.0	8.3125	-50.3125	-4.8125	-0.99268985	-0.10997249	-0.14516543
1277308142808	2.4925237	13.988097	0.3405087	4.405862	0.0	8.3125	-51.0625	-5.0625	-1.3475506	0.023960669	-0.17633812
1277308142838	3.9499009	12.258313	-1.334794	3.1413078	0.0	9.3125	-51.3125	-3.5625	-1.2459899	-0.103272624	-0.31171745
1277308142878	4.3312707	12.14935	1.7978859	3.2163677	0.0	9.8125	-51.0625	-1.125	-1.7606394	0.13849682	-0.3424557
1277308142918	1.3756552	13.143636	-1.7978859	3.5305147	0.0	11.25	-50.3125	2.5625	-1.329149	-0.13521436	-0.10428354
1277308142958	1.4982382	10.18802	-1.3075534	0.5736275	0.0	13.5	-48.8125	6.25	-1.5886056	-0.12630068	-0.14601226
1277308142998	0.92618364	5.012288	-0.0	-4.709509	0.0	14.75	-47.5625	10.0	-1.9786011	-0.0	-0.18272156
1277308143038	0.27240697	2.2609777	-0.08172209	-7.527856	0.0	16.5	-46.3125	13.6875	-2.0751734	-0.035869673	-0.11990399
1277308143078	1.0351465	1.4982382	-1.0760075	-7.6914577	0.0	16.5	-45.125	16.875	-1.5813396	-0.5336792	-0.60459864
1277308143118	0.27240697	2.6423476	-2.2201166	-6.344696	0.0	15.5	-44.625	19.5625	-1.0143403	-0.6961783	-0.10272987
1277308143148	-0.84446156	5.09401	-4.2086873	-3.1451864	0.0	14.5	-44.125	21.0625	-0.5099256	-0.6838683	0.16428138
1277308143178	-0.42223078	8.499097	-6.4015636	0.84196186	0.0	13.25	-43.875	21.0625	-0.84017295	-0.644957	0.049638677
1277308143208	2.7240696	13.443283	-6.851035	5.5256395	0.0	12.5	-44.375	20.8125	-1.584801	-0.46322668	-0.19992721
1277308143238	4.5219555	16.208214	-9.00305	9.2776165	0.0	12.75	-44.375	20.8125	-1.562675	-0.49127725	-0.27207336
1277308143278	-0.23154591	8.689782	-9.888372	3.359436	0.0	12.75	-43.625	21.5625	-0.5528849	-0.8496491	0.026639463
1277308143308	3.8681788	17.161638	-1.2666923	7.83107	0.0	13.25	-42.875	23.0	-2.304309	-0.07187911	-0.2216921
1277308143338	0.7627395	12.340035	0.50395286	2.5672016	0.0	14.25	-41.875	23.5	-2.552445	0.040738508	-0.061731618
1277308143378	1.879608	7.6954966	1.1168685	-1.8065882	0.0	14.75	-41.375	23.25	-2.4325233	0.140065	-0.23955753
1277308143418	0.95342433	10.691973	2.4516625	1.2041607	0.0	15.75	-42.125	21.3125	-2.5639503	0.2245417	-0.08893674
1277308143458	0.08172209	11.223166	-0.38136974	1.4232912	0.0	16.25	-43.625	18.8125	-2.3785262	-0.033966616	-0.007281425
1277308143498	2.4108016	7.164303	-2.4108016	-1.8724728	0.0	16.25	-45.375	15.625	-1.6839185	-0.30873138	-0.32459956
1277308143538	0.7218784	7.014479	-0.8036005	-2.7094817	0.0	16.25	-46.5625	11.6875	-1.8743411	-0.11347168	-0.102551594
1277308143568	-1.0760075	8.049625	0.14982383	-1.6840458	0.0	15.75	-47.8125	8.0	-2.3361263	0.018446341	0.13288401
1277308143608	-0.50395286	8.008764	-0.61291564	-1.7586727	0.0	15.75	-48.5625	4.0625	-1.5932301	-0.07623154	0.06284232
1277308143648	0.53119355	7.668256	-1.607201	-1.9537902	0.0	15.0	-48.8125	0.375	-1.0976665	-0.20612085	-0.06916127
1277308143688	-0.27240697	9.384419	-2.1792557	-0.16866875	0.0	13.75	-48.8125	-3.0625	-0.71824026	-0.22808366	0.029019428
1277308143728	-0.46309182	9.656827	-0.9942854	-0.087732315	0.0	12.5	-49.0625	-5.8125	-0.7510552	-0.10248343	0.047918156
1277308143768	-1.879608	10.269742	-1.2666923	0.7102423	0.0	10.5625	-49.0625	-8.25	-0.108972274	-0.12073671	0.18102036
1277308143808	-2.6423476	10.991621	-1.0351465	1.5454102	0.0	9.3125	-49.5625	-10.25	0.16931428	-0.09131262	0.23591988
1277308143838	-1.4982382	15.363752	-0.61291564	5.642145	0.0	8.5625	-50.3125	-11.1875	-0.26902363	-0.039684426	0.097210355
1277308143878	1.920469	14.137921	0.08172209	4.4613457	0.0	8.3125	-50.5625	-10.9375	-0.9544313	0.0057276813	-0.13501178
1277308143918	5.9793324	12.367276	-0.29964766	3.9334993	0.0	9.0625	-50.5625	-9.5	-1.2386824	-0.021809908	-0.4503446
1277308143958	6.4424243	14.206022	2.1792557	5.943431	0.0	10.5625	-50.0625	-6.25	-1.5547888	0.13881007	-0.4257603
1277308143998	1.0760075	14.206022	-1.2666923	4.4962645	0.0	13.0	-49.3125	-2.8125	-1.170087	-0.088678	-0.0755987
1277308144038	-1.9477097	11.645397	-1.9885708	2.16679	0.0	15.25	-48.3125	0.625	-0.741877	-0.16685498	0.16571762
1277308144078	-0.38136974	4.0588636	-0.46309182	-5.703691	0.0	17.0	-47.0625	4.8125	-1.516048	-0.11310879	0.09368468
1277308144118	0.08172209	0.84446156	-0.08172209	-8.954317	0.0	17.9375	-45.875	9.0	-1.7807459	-0.09602793	-0.096473776
1277308144158	0.88532263	2.3699405	-0.6537767	-7.193637	0.0	17.5	-44.625	13.4375	-1.6976697	-0.25288713	-0.35751045
1277308144198	1.4982382	3.1463003	-2.5333846	-5.498291	0.0	16.75	-43.875	16.625	-1.4071637	-0.6286039	-0.4444192
1277308144238	0.53119355	5.6252036	-4.0588636	-2.849678	0.0	16.0	-43.375	18.375	-1.1318655	-0.6229381	-0.094151795
1277308144278	1.4573772	11.223166	-5.366417	2.7185984	0.0	15.25	-43.625	18.625	-1.5291097	-0.4427744	-0.1291318
1277308144318	1.1441092	18.087822	-10.378705	11.078651	0.0	14.5	-44.125	18.625	-1.2745976	-0.520067	-0.06316885
1277308144358	-0.7218784	10.079058	-7.9679036	3.061761	0.0	14.5	-43.875	19.0625	-0.72566074	-0.6677021	0.07149953
1277308144398	3.255263	14.601013	-0.6537767	5.167119	0.0	14.5	-43.875	19.8125	-2.2219934	-0.04367535	-0.21936023
1277308144428	0.7627395	8.076866	2.0294318	-1.4438677	0.0	15.0	-43.375	20.0625	-2.5706613	0.24512154	-0.09415585
1277308144468	1.3075534	8.076866	0.7627395	-1.5891552	0.0	16.0	-42.625	19.8125	-2.3733447	0.09295277	-0.1604963
1277308144508	0.46309182	12.14935	1.7297841	2.473957	0.0	15.75	-43.375	18.625	-2.523532	0.14132491	-0.038098145
1277308144548	2.5333846	9.112013	-2.0294318	-0.13372898	0.0	15.5	-44.625	16.625	-1.8636011	-0.211376	-0.2711781
1277308144588	1.7570249	7.246025	-1.6480621	-2.1706743	0.0	14.75	-46.125	14.1875	-1.7639064	-0.21754038	-0.23788972
1277308144628	0.23154591	7.8180795	-0.3405087	-1.9777341	0.0	14.0	-47.8125	10.4375	-2.068238	-0.043507446	-0.02960807
1277308144668	-0.3405087	7.7772183	-0.53119355	-2.003879	0.0	13.75	-48.5625	6.75	-1.8548694	-0.06813025	0.043754894
1277308144708	-0.040861044	7.8589406	-1.4165162	-1.8209667	0.0	13.25	-48.8125	2.8125	-1.1444639	-0.1783256	0.0051992596
1277308144748	-0.040861044	8.308413	-1.4165162	-1.378252	0.0	12.25	-49.3125	-0.375	-0.9455622	-0.16886611	0.0049179927
1277308144788	-0.88532263	9.384419	-1.3075534	-0.29030514	0.0	11.0	-50.0625	-2.8125	-0.5687857	-0.13783686	0.09406124
1277308144828	-1.56634	9.234595	-1.1441092	-0.37054157	0.0	9.8125	-50.5625	-5.0625	-0.10774704	-0.12154705	0.16801743
1277308144868	-4.5628166	12.026767	0.46309182	3.0649014	0.0	8.3125	-51.0625	-7.0	1.1070473	0.0359857	0.36261252
1277308144908	1.2258313	17.474907	1.920469	7.8161545	0.0	7.8125	-51.0625	-8.25	-1.3367895	0.10919321	-0.070033364
1277308144948	7.5865335	14.750836	-0.5720546	6.790636	0.0	8.3125	-50.3125	-7.75	-1.2782702	-0.034473587	-0.4750316
1277308144988	7.8861814	10.56939	-1.6480621	3.4831953	0.0	9.5625	-50.0625	-6.0625	-1.3038722	-0.12432919	-0.64102226
1277308145028	2.0294318	11.454713	1.4982382	1.922534	0.0	11.5	-50.0625	-2.3125	-1.755478	0.12808587	-0.17535043
1277308145068	-0.9942854	13.525005	-1.2258313	3.8101416	0.0	13.5	-49.3125	1.875	-1.3080283	-0.09014554	0.07338259
1277308145108	0.08172209	8.240311	-0.88532263	-1.5185146	0.0	14.75	-48.8125	5.5625	-1.5926199	-0.10702225	-0.00991703
1277308145148	1.1168685	3.0645783	-1.4573772	-6.2341185	0.0	15.5	-47.5625	10.0	-1.3496826	-0.42019624	-0.3494845
1277308145188	0.9942854	3.1463003	-1.7978859	-6.0489645	0.0	15.75	-46.125	13.4375	-1.3341839	-0.49889514	-0.30608603
1277308145218	0.040861044	3.9090397	-1.6889231	-5.5481615	0.0	15.25	-45.125	16.125	-1.3804026	-0.4078118	-0.010452582
1277308145258	0.42223078	3.7864566	-2.6014864	-5.193271	0.0	14.5	-44.375	18.125	-1.1352564	-0.5991012	-0.11105201
1277308145298	1.1168685	5.09401	-4.2495484	-3.0794668	0.0	13.75	-44.375	18.625	-1.1206547	-0.6837416	-0.2158361
1277308145338	1.9885708	9.888372	-4.372132	1.1865234	0.0	13.0	-44.125	18.125	-1.5915239	-0.40902326	-0.19845487
1277308145378	2.6014864	16.276316	-9.275456	9.106844	0.0	12.5	-44.375	17.875	-1.320607	-0.5125656	-0.15849207
1277308145418	1.6889231	10.923519	-8.308413	4.021055	0.0	13.0	-44.375	18.375	-1.0808448	-0.64456725	-0.1533988
1277308145448	2.9147544	16.126492	-2.0294318	6.706318	0.0	13.25	-44.125	18.8125	-2.148738	-0.12321078	-0.17881276
1277308145488	-0.6537767	9.847511	-0.6537767	0.08417034	0.0	14.0	-43.875	19.5625	-2.5527687	-0.066147566	0.066292755
1277308145528	0.9942854	8.19945	1.3756552	-1.4333591	0.0	15.0	-43.625	19.5625	-2.4845994	0.16503906	-0.12067328
1277308145568	-1.0760075	13.906375	2.2609777	4.3233557	0.0	15.25	-43.875	18.375	-2.7049336	0.16070333	0.07722127
1277308145638	3.255263	7.205164	-1.6889231	-1.7218752	0.0	15.75	-44.625	16.625	-1.8425026	-0.21045174	-0.42434633
1277308145678	1.9477097	7.8180795	-0.5720546	-1.7293243	0.0	16.0	-46.125	13.4375	-1.9460437	-0.07088161	-0.24415866
1277308145718	0.53119355	8.62168	-0.61291564	-1.146904	0.0	15.0	-47.3125	9.25	-1.8920134	-0.070836775	-0.06153359
1277308145758	-0.27240697	7.5865335	-1.2666923	-2.1102738	0.0	14.25	-48.8125	4.8125	-1.3075535	-0.16533516	0.035891227
1277308145798	-1.3075534	7.9270425	-1.4573772	-1.6413794	0.0	13.25	-49.5625	0.375	-0.5200457	-0.17944637	0.16347645
1277308145838	-1.4165162	7.8589406	-1.2258313	-1.7275333	0.0	12.0	-50.0625	-3.3125	-0.25863805	-0.15231666	0.17832795
1277308145878	-1.607201	8.771504	-1.56634	-0.75260067	0.0	11.0	-50.8125	-6.0625	-0.11063585	-0.1738736	0.18121961
1277308145918	-2.1383946	10.95076	0.14982383	1.3519487	0.0	9.3125	-51.3125	-7.75	0.09818638	0.0134271635	0.19284686
1277308145958	-4.099725	13.6748295	0.61291564	4.4826593	0.0	7.8125	-51.5625	-9.5	0.7886463	0.042906463	0.29127404
1277308145998	-0.27240697	15.894946	2.6832085	6.315481	0.0	7.5625	-51.5625	-9.75	-1.4203717	0.1672082	0.017136283
1277308146038	8.076866	14.246883	-1.4982382	6.6388416	0.0	8.8125	-50.8125	-8.75	-1.2100854	-0.091229774	-0.51574194
1277308146078	7.3958488	11.75436	-0.23154591	4.0828123	0.0	10.75	-50.0625	-7.0	-1.3611158	-0.01667139	-0.56161416
1277308146118	1.0760075	13.021052	1.7978859	3.3819046	0.0	12.25	-49.5625	-3.3125	-1.7715166	0.13674748	-0.082448654
1277308146158	-1.879608	14.369467	-1.1441092	4.73032	0.0	13.75	-48.8125	0.875	-1.1719884	-0.0787849	0.13006721
1277308146198	-0.6946377	7.9270425	-2.0294318	-1.5945177	0.0	14.75	-48.3125	5.5625	-0.9935933	-0.24971318	0.0874056
1277308146228	0.7627395	3.445948	-1.7297841	-5.8761945	0.0	15.0	-46.8125	10.25	-1.2050097	-0.4557074	-0.21783179
1277308146268	0.61291564	3.759216	-1.3756552	-5.7569838	0.0	15.75	-45.625	14.1875	-1.5231256	-0.3465936	-0.16162135
1277308146308	0.5720546	3.0645783	-0.9942854	-6.53442	0.0	14.5	-44.875	17.625	-1.7552675	-0.308737	-0.1845428
1277308146338	1.0351465	3.0237172	-2.1111538	-5.976329	0.0	13.0	-44.625	19.8125	-1.4071345	-0.58376443	-0.32983667
1277308146378	1.2258313	5.134871	-3.9499009	-3.213375	0.0	12.0	-44.875	21.0625	-1.2388513	-0.6423519	-0.23434077
1277308146418	2.2201166	10.61025	-5.47538	2.3377361	0.0	11.25	-45.125	21.3125	-1.5781341	-0.46772507	-0.20626669
1277308146448	2.152015	14.410328	-6.2108784	6.032028	0.0	11.25	-45.125	21.0625	-1.7118416	-0.4029498	-0.14824282
1277308146478	1.6889231	10.56939	-9.084772	4.2324934	0.0	11.5	-44.375	20.8125	-1.0184889	-0.70377845	-0.15845421
1277308146518	-1.4982382	3.8681788	-7.273266	-1.4336033	0.0	11.5	-43.875	21.3125	0.17731403	-1.0524753	0.36953118
1277308146558	0.23154591	5.053149	-5.7477865	-2.1499553	0.0	11.5	-43.125	21.3125	-0.645787	-0.8491023	-0.04579007
