#timestamp	accel_x	accel_y	accel_z	accel_mag	temperature	mag_x	mag_y	mag_z	azimuth	pitch	roll
1277483142307	1.1441092	4.5628166	9.466142	0.7638807	0.0	0.0	0.0	0.0	0.0	0.0	0.0
1277483142537	1.4573772	5.938472	8.580819	0.72994614	0.0	-4.6875	-7.0	-50.8125	0.12451816	0.9516642	-0.24065669
1277483142568	1.9885708	5.7477865	8.117727	0.3367691	0.0	-5.5	-9.5	-50.3125	0.096784666	0.92778695	-0.3330815
1277483142607	2.3426998	5.5162406	7.9679036	0.16353703	0.0	-6.25	-12.25	-49.5625	0.051163465	0.92591804	-0.40160918
1277483142648	2.2201166	5.597963	7.8589406	0.094311714	0.0	-8.25	-14.3125	-48.5625	0.14345497	0.91695833	-0.37756646
1277483142687	2.0294318	5.407278	7.4639506	-0.36907578	0.0	-9.75	-14.3125	-48.5625	0.24475579	0.9122391	-0.3590467
1277483142718	2.3699405	5.243834	7.8180795	-0.09908676	0.0	-11.0	-14.0625	-48.3125	0.2808704	0.9362819	-0.42447275
1277483142757	2.9147544	5.407278	7.8861814	0.18966389	0.0	-12.0	-13.5625	-48.5625	0.25351387	0.9090315	-0.4943919
1277483142787	2.4925237	5.012288	7.9679036	-0.06892967	0.0	-12.75	-12.25	-49.3125	0.38464773	0.9583627	-0.46147135
1277483142817	2.3018389	5.2165933	7.9270425	-0.041953087	0.0	-12.5	-12.25	-49.0625	0.3976346	0.9472388	-0.4155564
1277483142857	2.6014864	5.366417	8.499097	0.576067	0.0	-12.25	-11.75	-49.3125	0.36800697	0.9589365	-0.45139083
1277483142897	2.7240696	5.6660647	8.689782	0.91888714	0.0	-11.5	-11.25	-49.5625	0.3158413	0.94448566	-0.448145
1277483142927	2.3426998	5.325556	8.62168	0.59446335	0.0	-10.5	-11.75	-49.5625	0.3086775	0.97717226	-0.41442117
1277483142957	2.070293	5.053149	8.730643	0.49114323	0.0	-10.25	-11.25	-50.0625	0.34714884	1.0118549	-0.3888434
1277483142999	2.3699405	5.175732	8.662541	0.5588913	0.0	-9.5	-10.75	-50.0625	0.25418922	0.9894164	-0.4293998
1277483143027	2.1111538	4.903325	8.539958	0.26461887	0.0	-9.0	-10.5	-50.0625	0.26200753	1.0121107	-0.40656683
1277483143057	1.7978859	4.9850473	9.343558	0.93509865	0.0	-7.75	-9.5	-49.8125	0.27322382	1.0548697	-0.34613594
1277483143087	1.4573772	4.9850473	9.697687	1.1942492	0.0	-7.0	-8.75	-50.0625	0.2859683	1.0791055	-0.28442347
1277483143127	1.3075534	5.134871	9.425281	1.0059586	0.0	-6.0	-8.0	-51.0625	0.22249153	1.0586474	-0.24934274
1277483143167	1.2666923	5.134871	8.962189	0.5997057	0.0	-4.6875	-7.75	-51.0625	0.1446203	1.0376704	-0.24185562
1277483143207	1.5390993	4.862464	8.771504	0.33985996	0.0	-3.9375	-7.75	-51.3125	0.076854035	1.0441247	-0.30654904
1277483143237	1.56634	4.7535014	8.499097	0.056607246	0.0	-2.9375	-7.5	-50.8125	0.023478568	1.038596	-0.31830823
1277483143277	1.607201	4.6036777	8.390134	-0.10246086	0.0	-2.9375	-7.5	-50.3125	0.01644457	1.0443316	-0.33588386
1277483143317	1.607201	4.8216033	8.812365	0.36629105	0.0	-4.4375	-7.25	-50.5625	0.105598055	1.0476576	-0.32175052
1277483143347	1.0760075	4.7126403	9.112013	0.50817204	0.0	-5.5	-6.75	-50.3125	0.22733596	1.0830477	-0.22447573
1277483143377	1.7297841	4.4810944	7.8180795	-0.63088226	0.0	-6.5	-6.5	-51.0625	0.18800578	1.0198613	-0.36839533
1277483143418	1.920469	4.2086873	7.9270425	-0.6284561	0.0	-7.25	-6.5	-51.0625	0.21287933	1.04253	-0.4280895
1277483143457	1.9477097	4.440233	8.580819	0.049297333	0.0	-7.0	-6.0	-51.0625	0.21999976	1.0564682	-0.41337556
1277483143497	1.7978859	4.2086873	8.390134	-0.24946499	0.0	-7.5	-5.75	-51.3125	0.26131988	1.0714328	-0.40371948
1277483143542	1.5390993	4.1814466	9.152874	0.37315464	0.0	-7.25	-5.75	-50.5625	0.31022552	1.1177566	-0.35268846
1277483143579	1.8387469	3.990762	9.534244	0.69139576	0.0	-6.5	-4.5	-50.5625	0.26218918	1.1389445	-0.43175825
1277483143621	1.9477097	4.0180025	9.956474	1.105238	0.0	-5.5	-3.5	-50.5625	0.21559815	1.1492146	-0.45136994
1277483143657	1.6480621	3.6774938	10.419566	1.3650742	0.0	-4.1875	-2.5	-50.8125	0.18935508	1.2017536	-0.42131287
1277483143698	1.56634	3.6774938	11.032481	1.9276171	0.0	-2.9375	-0.75	-51.5625	0.15096961	1.2231978	-0.40265465
1277483143738	1.4165162	3.336985	10.460427	1.2641459	0.0	-2.1875	0.25	-52.0625	0.12758647	1.2371875	-0.40143842
1277483143777	1.334794	2.6014864	9.765789	0.38746834	0.0	-1.4375	2.0	-52.3125	0.13547741	1.2798845	-0.4740639
1277483143807	0.95342433	2.7649305	9.724928	0.34854984	0.0	0.0625	3.5	-52.3125	0.059198532	1.2786584	-0.33205947
1277483143849	0.3405087	2.9147544	10.119919	0.73016644	0.0	1.3125	4.75	-52.3125	-0.039076045	1.288557	-0.11629529
1277483143897	-0.23154591	1.8387469	9.466142	-0.16079903	0.0	3.3125	6.0	-51.5625	-0.25724024	1.377463	0.12526658
1277483143951	-1.1168685	1.879608	10.18802	0.6133337	0.0	5.125	6.25	-51.3125	-0.51391405	1.3593985	0.536146
1277483144017	-1.3075534	1.9885708	10.691973	1.1469975	0.0	6.875	6.75	-50.8125	-0.63392794	1.3517756	0.5816535
1277483144067	-0.95342433	2.5606253	9.956474	0.5179415	0.0	8.875	6.5	-50.0625	-0.5805633	1.3029593	0.35643697
1277483144108	-0.50395286	2.7240696	9.534244	0.12191105	0.0	9.625	5.5	-50.3125	-0.53767884	1.28802	0.18293175
1277483144137	-0.95342433	3.0645783	10.038197	0.7321377	0.0	10.375	4.25	-50.5625	-0.5999431	1.2613425	0.30161905
1277483144177	-0.95342433	3.3778462	9.724928	0.5322609	0.0	10.125	3.5	-51.0625	-0.5381809	1.2244354	0.2751014
1277483144207	-0.9125633	3.486809	9.80665	0.6413641	0.0	9.375	2.5	-51.5625	-0.49836314	1.2185897	0.2559773
1277483144237	-1.0760075	3.990762	9.343558	0.4102993	0.0	9.375	2.75	-51.3125	-0.4361865	1.1543086	0.26336187
1277483144277	-0.7218784	3.9499009	9.043911	0.0885582	0.0	9.125	3.25	-51.8125	-0.40264338	1.1529591	0.18076368
1277483144317	-1.2258313	3.2961242	9.043911	-0.10307217	0.0	9.375	3.25	-51.8125	-0.4906051	1.1999422	0.3560508
1277483144347	-0.27240697	3.1463003	9.343558	0.056183815	0.0	9.125	4.0	-51.8125	-0.448284	1.2448567	0.086364724
1277483144447	-0.42223078	2.9556155	9.888372	0.52262115	0.0	9.375	4.25	-51.8125	-0.5083584	1.2775674	0.14189705
1277483144495	-0.5720546	2.070293	10.460427	0.872015	0.0	8.625	4.5	-51.0625	-0.65948164	1.3682781	0.2695891
1277483144537	-0.6946377	1.7570249	9.575105	-0.046922684	0.0	7.375	4.5	-51.3125	-0.6423053	1.3759795	0.37649032
1277483144567	-1.2258313	1.9477097	10.419566	0.86403847	0.0	6.625	4.0	-51.5625	-0.6138552	1.3534175	0.56173605
1277483144607	-2.2609777	1.9477097	9.888372	0.5222168	0.0	5.875	3.75	-52.5625	-0.4661462	1.2776971	0.8596948
1277483144638	-2.5606253	2.9147544	10.147159	1.0569324	0.0	6.125	3.75	-52.5625	-0.3817531	1.2055973	0.72081155
1277483144667	-1.9477097	2.7649305	9.112013	-0.08722687	0.0	6.875	4.0	-52.5625	-0.42210934	1.215391	0.61369526
1277483144707	-1.7297841	2.8330324	9.384419	0.14752293	0.0	7.625	4.75	-52.8125	-0.46994203	1.2308195	0.5481604
1277483144747	-1.525479	2.5333846	9.507003	0.14966583	0.0	7.625	6.0	-52.3125	-0.5232059	1.2692269	0.5419993
1277483144778	-1.879608	2.1111538	9.915613	0.5039892	0.0	7.875	6.75	-53.0625	-0.62546426	1.2930926	0.7274427
1277483144817	-2.1383946	2.0294318	9.888372	0.51183987	0.0	7.875	7.25	-52.5625	-0.640589	1.2810482	0.811536
1277483144851	-2.2201166	2.3699405	10.119919	0.82153416	0.0	7.875	7.0	-52.0625	-0.5925273	1.2602854	0.75276875
1277483144887	-2.0294318	2.4108016	9.956474	0.6366224	0.0	7.875	6.0	-51.8125	-0.5775067	1.2642666	0.69971883
1277483144917	-2.1792557	2.5606253	10.460427	1.1809111	0.0	7.625	5.0	-51.5625	-0.5517296	1.2597848	0.7051114
1277483144949	-1.9477097	2.3426998	10.337844	0.9707718	0.0	7.375	4.5	-51.5625	-0.5687563	1.284205	0.6935935
1277483144988	-2.3699405	2.3018389	9.724928	0.46414852	0.0	6.875	5.0	-51.8125	-0.50104576	1.2433046	0.7999743
1277483145017	-1.3075534	2.8330324	9.765789	0.4454918	0.0	5.875	4.75	-52.3125	-0.39268622	1.2615422	0.43240777
1277483145047	-0.84446156	2.7649305	9.80665	0.41726017	0.0	4.5625	5.5	-52.0625	-0.31233212	1.2841158	0.29642066
1277483145087	-0.9942854	2.152015	9.656827	0.13689423	0.0	3.8125	5.75	-52.8125	-0.34961915	1.3300714	0.43280908
1277483145136	-1.920469	1.3756552	9.847511	0.3202505	0.0	2.8125	5.75	-52.8125	-0.4416068	1.3353536	0.94920635
1277483145178	-0.88532263	4.099725	9.152874	0.2614498	0.0	3.3125	6.0	-52.8125	-0.1671473	1.1411101	0.212681
1277483145207	-1.2258313	3.5276701	10.419566	1.2619762	0.0	3.3125	5.75	-52.8125	-0.22508793	1.2266399	0.33443728
1277483145238	-1.7297841	3.0645783	10.419566	1.1911297	0.0	3.8125	5.75	-52.5625	-0.30117622	1.2450887	0.5138653
1277483145267	-2.1792557	3.3778462	10.228881	1.1837549	0.0	4.5625	5.25	-52.3125	-0.30883685	1.1963495	0.57296616
1277483145307	-2.5606253	3.214402	10.337844	1.3181057	0.0	4.8125	5.5	-52.3125	-0.3368235	1.1924177	0.6726706
1277483145347	-2.4516625	3.214402	10.038197	1.0150137	0.0	5.625	5.75	-52.5625	-0.36689308	1.1879417	0.6515872
1277483145387	-2.070293	2.7921712	9.847511	0.6363287	0.0	5.125	6.25	-52.5625	-0.38489932	1.2314701	0.63801533
1277483145417	-1.9885708	2.5606253	9.847511	0.560832	0.0	4.5625	7.0	-52.5625	-0.39334035	1.252743	0.6603063
1277483145457	-2.1111538	2.4925237	9.847511	0.56847	0.0	4.0625	7.0	-53.0625	-0.37650967	1.2505145	0.7027466
1277483145497	-2.2609777	2.2609777	9.507003	0.22366142	0.0	3.8125	7.75	-53.0625	-0.39602062	1.2463497	0.7853982
1277483145537	-1.9885708	2.2201166	9.507003	0.15660381	0.0	3.8125	8.0	-52.8125	-0.40532708	1.2669963	0.7304374
1277483145577	-1.7297841	2.3426998	9.193735	-0.16273212	0.0	4.0625	7.75	-52.8125	-0.38206285	1.2640448	0.6360176
1277483145617	-1.879608	3.0237172	10.119919	0.92128277	0.0	4.3125	7.25	-52.0625	-0.343529	1.2325083	0.55616623
1277483145657	-1.7978859	3.486809	10.269742	1.1868858	0.0	4.5625	5.0	-51.8125	-0.2976708	1.205903	0.47606933
1277483145697	-1.7297841	3.8273177	9.888372	0.9367399	0.0	4.8125	2.75	-51.8125	-0.2600553	1.1691396	0.42448044
1277483145737	-1.56634	3.568531	9.152874	0.14136124	0.0	5.125	1.0	-51.3125	-0.2613373	1.1682609	0.41361117
1277483145777	-1.8387469	3.3778462	9.343558	0.29745388	0.0	5.375	0.5	-51.5625	-0.27386555	1.180323	0.49849877
1277483145817	-1.7570249	2.9556155	9.193735	0.009029388	0.0	5.625	0.5	-52.0625	-0.30898345	1.2129052	0.5363434
1277483145857	-1.9885708	2.5606253	9.343558	0.08341026	0.0	5.625	1.25	-52.5625	-0.33625472	1.2368075	0.6603063
1277483145897	-1.6889231	2.7649305	9.466142	0.19860554	0.0	5.875	1.75	-53.3125	-0.35924911	1.2410264	0.54835016
1277483145940	-1.7297841	3.0645783	9.534244	0.35630226	0.0	6.125	2.0	-53.0625	-0.35229543	1.2172109	0.5138653
1277483145977	-1.7570249	3.486809	9.507003	0.4709015	0.0	6.375	1.75	-53.0625	-0.3295042	1.1811042	0.46676773
1277483146017	-1.56634	3.8681788	9.534244	0.6009445	0.0	6.625	0.75	-52.5625	-0.3191369	1.1582059	0.38474876
1277483146057	-1.8387469	4.0180025	9.724928	0.87508965	0.0	6.625	-0.25	-51.8125	-0.30634674	1.1443114	0.4291785
1277483146097	-2.070293	4.0588636	9.425281	0.66217995	0.0	6.375	-1.5	-51.8125	-0.26060995	1.1205007	0.47166884
1277483146137	-2.0294318	4.440233	8.730643	0.19626904	0.0	5.875	-2.25	-51.0625	-0.20686461	1.0609295	0.42870554
1277483146177	-2.3018389	4.372132	8.62168	0.13052082	0.0	5.625	-3.0	-51.0625	-0.17032887	1.050394	0.48460633
1277483146227	-2.3018389	4.372132	9.275456	0.7027788	0.0	5.375	-3.75	-51.3125	-0.15718348	1.0813307	0.4846063
1277483146267	-1.920469	4.099725	9.112013	0.36805916	0.0	4.8125	-4.75	-51.0625	-0.13664886	1.1096772	0.43808115
1277483146307	-1.2258313	4.1814466	8.499097	-0.25563908	0.0	4.5625	-5.5	-51.3125	-0.15974036	1.0970461	0.28516945
1277483146347	-1.1849703	5.5162406	8.662541	0.5312748	0.0	3.8125	-6.25	-51.3125	-0.10828517	0.99349415	0.21159916
1277483146387	-1.4165162	5.9793324	9.302697	1.3423014	0.0	3.3125	-7.0	-51.8125	-0.07226192	0.9870452	0.23261371
1277483146427	-0.9942854	5.407278	9.00305	0.74238586	0.0	2.8125	-7.25	-52.0625	-0.07046441	1.0225649	0.18184774
1277483146467	-0.3405087	5.706926	9.084772	0.9273157	0.0	2.0625	-7.5	-52.0625	-0.07558246	1.0091087	0.05959522
1277483146497	-0.3405087	5.47538	8.580819	0.37795544	0.0	1.8125	-7.75	-51.8125	-0.062273797	1.0019599	0.062109068
1277483146537	-1.1168685	5.012288	8.689782	0.2870474	0.0	1.5625	-7.5	-51.5625	0.0054024607	1.037059	0.21924432
1277483146577	-1.0351465	4.7126403	8.689782	0.13280773	0.0	1.3125	-7.75	-51.5625	0.020955207	1.0639325	0.21621948
1277483146617	-0.9125633	5.012288	8.771504	0.33707142	0.0	1.8125	-8.0	-51.3125	-0.018741174	1.0445976	0.18009262
1277483146657	-0.84446156	5.175732	9.507003	1.0508089	0.0	2.0625	-7.75	-52.0625	-0.043348387	1.0667169	0.16173281
1277483146697	-1.56634	3.759216	8.19945	-0.65153694	0.0	2.0625	-8.0	-51.8125	0.07446811	1.1098102	0.39479113
1277483146737	-2.2609777	4.399372	9.656827	1.043272	0.0	2.0625	-8.25	-51.8125	0.118612655	1.0974252	0.47473094
1277483146777	-2.1792557	6.0474343	10.269742	2.3089685	0.0	2.0625	-8.75	-52.0625	0.05112522	1.0115306	0.34587458
1277483146818	-1.525479	5.597963	8.689782	0.6421099	0.0	3.0625	-9.25	-51.5625	-0.025444755	0.98208475	0.26604617
1277483146857	-1.607201	5.434519	9.084772	0.9008322	0.0	4.3125	-10.0	-51.3125	-0.07212949	1.0130513	0.28754336
1277483146897	-2.2609777	4.862464	7.1234417	-0.89042854	0.0	6.625	-10.75	-50.5625	-0.07220204	0.9255149	0.43524617
1277483146941	-1.9477097	4.903325	7.164303	-0.9092684	0.0	8.875	-10.75	-50.0625	-0.22150561	0.9360375	0.37810946
1277483146977	-2.3699405	5.325556	8.349273	0.37610626	0.0	10.375	-11.25	-49.5625	-0.2891827	0.9613102	0.41869885
1277483147018	-2.6423476	5.407278	7.9679036	0.17874622	0.0	11.875	-11.25	-49.3125	-0.31649905	0.92389566	0.45453855
1277483147065	-2.5606253	5.053149	7.7772183	-0.1849947	0.0	13.375	-11.0	-49.5625	-0.40209213	0.941265	0.46902388
1277483147097	-3.214402	5.5571017	7.8861814	0.3622055	0.0	14.625	-11.0	-49.3125	-0.37690112	0.8875431	0.52440923
1277483147137	-3.255263	5.5571017	7.7772183	0.2910347	0.0	16.4375	-11.25	-49.3125	-0.45030484	0.8791518	0.5299012
1277483147167	-3.1463003	5.6660647	7.7772183	0.31701565	0.0	17.6875	-11.25	-49.3125	-0.5212832	0.87605846	0.50689435
1277483147197	-3.3642259	5.434519	7.4639506	0.019975662	0.0	18.9375	-11.25	-48.8125	-0.5418507	0.8626424	0.5543075
1277483147227	-3.445948	5.829509	7.205164	0.08132839	0.0	19.1875	-11.75	-48.8125	-0.50765324	0.81639135	0.53386563
1277483147267	-4.399372	8.19945	8.499097	2.7957344	0.0	18.4375	-11.75	-48.5625	-0.4352071	0.740157	0.4924543
1277483147307	-3.6774938	7.5456724	7.6273947	1.5352316	0.0	17.4375	-12.8125	-48.5625	-0.41145945	0.7375791	0.45348832
1277483147347	-1.9885708	8.580819	5.243834	0.44433308	0.0	13.875	-13.8125	-49.0625	-0.29952776	0.53698134	0.22772606
1277483147387	-0.95342433	6.2108784	6.2789803	-0.92354107	0.0	9.375	-15.5625	-48.3125	-0.30032998	0.7850278	0.15231973
1277483147427	-1.334794	6.891896	7.205164	0.25288677	0.0	3.5625	-18.5625	-47.3125	0.0016435331	0.7984167	0.19130737
1277483147467	-1.879608	7.8589406	6.1291566	0.33546162	0.0	-2.6875	-21.8125	-45.3125	0.31416246	0.64892143	0.23475826
1277483147507	-1.3075534	7.273266	6.1291566	-0.20578289	0.0	-5.5	-27.0625	-42.0625	0.5678054	0.69241273	0.17787527
1277483147547	2.7921712	4.862464	10.760075	2.3267326	0.0	-5.25	-32.8125	-38.3125	-2.2667933	1.0904084	-0.5212552
1277483147587	-2.5606253	9.656827	2.2609777	0.4365492	0.0	-4.4375	-37.0625	-35.75	0.46900398	0.2225625	0.25919726
1277483147627	-1.920469	8.730643	4.099725	0.027986526	0.0	-3.6875	-40.625	-33.75	0.7057386	0.4299946	0.21652055
1277483147667	-0.23154591	8.117727	3.5276701	-0.95252323	0.0	-5.75	-41.625	-33.0	0.46694162	0.40979466	0.028515758
1277483147707	0.7218784	7.9679036	3.1463003	-1.2096853	0.0	-9.75	-40.625	-33.25	0.36509866	0.37468356	-0.09035163
1277483147747	2.3018389	9.575105	3.9090397	0.78871155	0.0	-13.25	-40.125	-32.25	0.23809123	0.37786698	-0.23592156
1277483147787	2.8330324	9.425281	3.8273177	0.75319576	0.0	-16.8125	-39.375	-31.5	0.32953557	0.37088528	-0.29198703
1277483147827	1.6480621	10.18802	2.7649305	0.87776375	0.0	-19.3125	-39.125	-30.0	0.6139399	0.26176068	-0.16037545
1277483147867	2.5606253	9.275456	2.982856	0.26749134	0.0	-21.0625	-39.625	-29.5	0.57048887	0.30059683	-0.2693557
1277483147907	1.4982382	8.962189	4.0180025	0.12863445	0.0	-22.0625	-39.375	-29.25	1.0107132	0.41634178	-0.16564152
1277483147947	1.5390993	9.152874	3.990762	0.29632473	0.0	-21.5625	-39.125	-30.0	0.9349104	0.4060772	-0.1665962
1277483147988	1.1168685	8.812365	4.0180025	-0.057315826	0.0	-21.3125	-38.875	-30.75	0.9751138	0.42479166	-0.12606667
1277483148027	1.1168685	9.302697	4.140586	0.4369831	0.0	-20.3125	-38.375	-30.5	0.9346139	0.41611567	-0.11948666
1277483148067	0.84446156	10.228881	4.7126403	1.4872465	0.0	-19.0625	-38.625	-30.75	0.9535634	0.43044275	-0.082369804
1277483148107	0.6537767	9.384419	5.2165933	0.95009613	0.0	-18.3125	-39.375	-30.25	1.1587508	0.5063176	-0.06955381
1277483148147	0.6946377	8.771504	3.8273177	-0.21132946	0.0	-17.5625	-40.125	-30.0	0.9163488	0.4102879	-0.07902761
1277483148187	0.53119355	8.158588	3.9090397	-0.7443476	0.0	-17.3125	-40.625	-30.25	1.0038184	0.44599053	-0.06501675
1277483148227	0.6537767	7.7772183	3.568531	-1.2248688	0.0	-17.0625	-41.375	-29.75	0.96796584	0.42885128	-0.08386587
1277483148267	-0.040861044	9.915613	3.0237172	0.55983067	0.0	-16.8125	-41.375	-29.0	0.82491845	0.29598495	0.0041208556
1277483148307	0.040861044	9.084772	2.6832085	-0.33382797	0.0	-15.8125	-41.625	-29.0	0.77348673	0.2871847	-0.004497721
1277483148347	0.14982383	8.662541	3.8273177	-0.33509064	0.0	-15.0625	-41.875	-28.75	0.9965829	0.4159786	-0.017293872
1277483148387	-0.040861044	8.662541	4.440233	-0.072330475	0.0	-14.75	-41.875	-28.75	1.1597147	0.4736552	0.004716946
1277483148417	0.10896278	9.425281	3.8681788	0.3820982	0.0	-14.25	-42.125	-29.0	0.90656495	0.38942012	-0.011560179
1277483148447	-0.19068487	9.656827	3.990762	0.6440363	0.0	-14.75	-42.375	-28.0	1.0089247	0.39181447	0.019743554
1277483148487	-0.0	9.466142	4.440233	0.64913845	0.0	-15.3125	-42.375	-27.5	1.1473343	0.43859452	0.0
1277483148527	0.38136974	9.193735	3.9499009	0.20693684	0.0	-15.3125	-42.375	-27.25	1.0323534	0.40547374	-0.04145771
1277483148567	0.040861044	10.419566	3.405087	1.1552677	0.0	-16.3125	-42.125	-26.75	0.9189719	0.31585446	-0.0039215484
1277483148607	0.50395286	10.800936	3.405087	1.529522	0.0	-16.8125	-41.875	-26.75	0.86245334	0.30508432	-0.046624444
1277483148647	1.0351465	9.997335	3.1054392	0.7129507	0.0	-17.5625	-42.125	-26.0	0.83293796	0.2996701	-0.103174575
1277483148687	1.0760075	8.689782	2.6832085	-0.64860916	0.0	-18.5625	-42.625	-25.0	0.88262707	0.2973519	-0.12319736
1277483148727	0.95342433	7.43671	1.7570249	-2.1059484	0.0	-18.3125	-43.375	-24.5	0.75260186	0.2301918	-0.12750955
1277483148768	1.0351465	7.9270425	1.9885708	-1.5686922	0.0	-18.0625	-44.375	-23.75	0.79800946	0.24379922	-0.12984945
1277483148807	0.95342433	8.771504	3.0237172	-0.47974396	0.0	-17.0625	-44.875	-23.25	1.0509272	0.33015847	-0.108270586
1277483148847	0.50395286	9.888372	3.336985	0.6417637	0.0	-16.0625	-44.625	-23.25	1.0699732	0.3250722	-0.050920133
1277483148887	0.23154591	10.528529	4.0588636	1.4795322	0.0	-15.8125	-44.125	-23.5	1.1901507	0.36787266	-0.021988694
1277483148927	0.27240697	9.915613	3.9499009	0.8702078	0.0	-15.5625	-42.875	-25.0	1.1058712	0.37895492	-0.02746562
1277483148967	0.10896278	9.384419	4.099725	0.43478298	0.0	-15.5625	-42.125	-26.75	1.1048774	0.41185263	-0.011610509
1277483148997	-0.14982383	9.384419	5.012288	0.83350086	0.0	-15.5625	-40.875	-28.75	1.2042241	0.49050683	0.015963811
1277483149037	-0.0	9.112013	5.053149	0.61271095	0.0	-14.5	-39.875	-30.5	1.1024909	0.50633675	0.0
1277483149077	-0.5720546	8.281172	6.1700177	0.53618145	0.0	-13.0	-38.375	-32.75	1.32117	0.63919574	0.06896938
1277483149117	-0.10896278	8.349273	4.7126403	-0.21857357	0.0	-11.75	-36.0625	-35.75	0.736193	0.5138234	0.013049832
1277483149157	-0.10896278	7.205164	5.407278	-0.797493	0.0	-10.0	-34.3125	-38.5625	0.79376835	0.64374864	0.015121721
1277483149197	-0.3405087	7.3549876	4.9850473	-0.9149418	0.0	-9.25	-31.8125	-40.8125	0.58367175	0.59515846	0.046263263
1277483149237	-0.95342433	7.6954966	6.0882955	0.052205086	0.0	-8.25	-30.8125	-41.3125	0.69937396	0.66561866	0.12326567
1277483149277	-0.6537767	7.668256	6.2789803	0.12588024	0.0	-7.25	-30.5625	-41.3125	0.6414661	0.6843419	0.08505187
1277483149317	-0.53119355	7.8180795	5.829509	-0.03998661	0.0	-7.0	-31.0625	-40.3125	0.57165843	0.63960457	0.06783999
1277483149357	-0.7627395	8.076866	6.0474343	0.3120947	0.0	-6.5	-32.3125	-39.5625	0.63674486	0.64056265	0.09415584
1277483149397	-0.6537767	8.281172	6.0882955	0.49250412	0.0	-7.0	-32.8125	-39.0625	0.653122	0.6324779	0.07878396
1277483149437	-0.6537767	8.19945	5.7477865	0.22806168	0.0	-7.5	-33.3125	-38.5625	0.664262	0.60990596	0.07956589
1277483149477	-0.5720546	8.19945	5.366417	0.0094919205	0.0	-8.0	-33.3125	-38.0625	0.6339865	0.5784098	0.06965458
1277483149517	-0.6537767	8.308413	5.09401	-0.03904724	0.0	-8.25	-33.5625	-38.0625	0.6151855	0.54863256	0.07852671
1277483149557	-0.84446156	8.308413	4.7126403	-0.21749973	0.0	-8.0	-34.0625	-38.0625	0.5938028	0.5137602	0.1012915
1277483149597	-0.61291564	8.539958	4.440233	-0.16184711	0.0	-8.75	-34.5625	-37.5	0.5640552	0.4784184	0.07164749
1277483149637	-0.53119355	8.499097	5.325556	0.23717213	0.0	-8.75	-35.5625	-37.0	0.70616615	0.55887413	0.06241881
1277483149677	-0.38136974	8.812365	4.7943625	0.232728	0.0	-9.5	-36.3125	-35.5	0.6665329	0.49787062	0.043249678
1277483149717	-0.27240697	8.921328	4.7535014	0.30572224	0.0	-10.25	-37.3125	-34.25	0.725137	0.48936766	0.03052487
1277483149757	-0.19068487	8.894087	4.671779	0.24156666	0.0	-10.0	-38.625	-32.5	0.7810891	0.48356247	0.021436227
1277483149797	-0.29964766	9.193735	4.1814466	0.29775715	0.0	-10.25	-39.875	-31.0	0.7715905	0.42665067	0.032581057
1277483149837	-0.23154591	9.043911	4.099725	0.12580585	0.0	-10.0	-40.875	-30.0	0.8075212	0.4254826	0.025596818
1277483149877	-0.42223078	8.730643	4.140586	-0.13468742	0.0	-9.5	-41.625	-29.25	0.91587865	0.44239146	0.048324283
1277483149917	-0.50395286	9.234595	4.3312707	0.40567684	0.0	-9.0	-41.875	-29.75	0.8747153	0.43799192	0.054518197
1277483149957	-0.8036005	9.193735	3.8681788	0.20001507	0.0	-8.25	-41.375	-30.25	0.76788056	0.39689896	0.087185815
1277483149997	-0.7218784	8.771504	4.3312707	0.002544403	0.0	-7.75	-41.375	-31.5	0.8218126	0.45732784	0.08211308
1277483150027	-0.8036005	8.539958	4.099725	-0.29957867	0.0	-7.5	-40.875	-32.25	0.76142776	0.44585446	0.09382261
1277483150067	-0.8036005	8.471856	4.0588636	-0.37836838	0.0	-7.5	-39.875	-32.5	0.7300447	0.44504532	0.09457234
1277483150117	-0.9125633	8.281172	4.3312707	-0.41673565	0.0	-7.75	-39.375	-33.0	0.8022482	0.47942424	0.10975453
1277483150157	-1.1441092	8.308413	4.3312707	-0.367445	0.0	-7.25	-38.125	-33.5	0.7654081	0.47671136	0.13684426
1277483150198	-1.3756552	8.281172	4.5219555	-0.27154064	0.0	-6.75	-37.0625	-34.25	0.76212823	0.49410358	0.1646152
1277483150237	-1.3075534	8.812365	4.099725	2.450943E-4	0.0	-5.25	-36.5625	-36.0	0.5328173	0.43129233	0.14730242
1277483150278	-2.1792557	10.310603	4.7943625	1.7710705	0.0	-3.4375	-36.3125	-36.5	0.5241912	0.4269565	0.20829502
1277483150317	-2.5606253	10.501288	5.8567495	2.4870625	0.0	-2.1875	-37.0625	-36.0	0.6368051	0.49655795	0.23917188
1277483150357	-1.7570249	9.956474	5.053149	1.49613	0.0	-1.1875	-37.875	-35.0	0.4845735	0.46348858	0.1746722
1277483150398	-1.1168685	8.921328	4.2086873	0.120612144	0.0	-1.9375	-39.125	-33.0	0.46466216	0.43780494	0.1245429
1277483150437	-0.5720546	8.008764	3.6774938	-0.97536945	0.0	-2.9375	-39.875	-32.0	0.42895174	0.42950058	0.071307465
1277483150477	-0.08172209	7.43671	3.5276701	-1.5752592	0.0	-4.1875	-40.125	-31.0	0.40373805	0.4429018	0.010988569
1277483150517	0.23154591	7.7363577	3.8681788	-1.1540403	0.0	-5.75	-40.625	-31.0	0.44515306	0.46346852	-0.029920645
1277483150557	-0.0	8.117727	4.099725	-0.71240807	0.0	-6.5	-40.625	-30.75	0.6184754	0.46766636	0.0
1277483150597	-0.10896278	8.812365	4.372132	0.031295776	0.0	-7.25	-40.125	-31.0	0.6600258	0.46052125	0.012364131
1277483150637	-0.27240697	9.425281	4.4810944	0.633193	0.0	-7.25	-40.375	-31.5	0.6435113	0.4436401	0.02889369
1277483150677	-0.8036005	9.956474	4.630918	1.2034616	0.0	-7.0	-39.875	-31.5	0.6997806	0.4341131	0.08053677
1277483150717	-0.88532263	9.302697	3.8681788	0.30704308	0.0	-6.25	-39.875	-32.0	0.6001716	0.3924675	0.09488262
1277483150757	-0.9942854	9.193735	3.7864566	0.1858778	0.0	-5.75	-40.125	-31.75	0.6051891	0.38863847	0.10772945
1277483150797	-0.8036005	9.043911	3.255263	-0.1611929	0.0	-5.5	-40.125	-31.75	0.49913833	0.34425113	0.088622674
1277483150837	-0.6946377	8.499097	3.255263	-0.67900467	0.0	-5.5	-40.125	-31.5	0.5187828	0.36466652	0.0815495
1277483150877	-0.23154591	9.112013	4.1814466	0.22165394	0.0	-6.0	-40.125	-31.25	0.5386706	0.43010306	0.025405593
1277483150917	-0.3405087	9.275456	4.3312707	0.43590546	0.0	-6.0	-40.375	-31.5	0.57349366	0.43661022	0.036694244
1277483150950	-0.61291564	9.384419	4.399372	0.5759058	0.0	-5.75	-40.375	-31.75	0.61507183	0.43755633	0.06521942
1277483150987	-0.8036005	9.275456	4.440233	0.5081711	0.0	-5.75	-40.875	-31.75	0.6845254	0.44501474	0.0864215
1277483151017	-0.8036005	8.580819	3.8273177	-0.37666607	0.0	-5.25	-41.125	-31.5	0.63228303	0.4179271	0.09337843
1277483151057	-0.95342433	9.00305	3.759216	-0.0038118362	0.0	-4.6875	-41.375	-31.25	0.5968595	0.39356402	0.105506904
1277483151097	-1.2666923	9.152874	3.405087	0.040899277	0.0	-4.6875	-41.625	-30.75	0.6096715	0.35307008	0.13751934
1277483151137	-1.8387469	9.724928	3.7864566	0.790164	0.0	-4.4375	-41.625	-30.5	0.70662004	0.36539719	0.18686965
1277483151177	-1.6480621	8.580819	3.636633	-0.34241962	0.0	-4.6875	-41.625	-30.0	0.7904515	0.39439556	0.1897528
1277483151217	-1.3756552	8.689782	3.1054392	-0.47667217	0.0	-5.25	-41.875	-29.5	0.6862635	0.33931932	0.1570043
1277483151257	-1.3756552	8.580819	3.405087	-0.47297478	0.0	-4.9375	-41.875	-29.0	0.7559452	0.37343666	0.15896478
1277483151297	-1.4573772	8.812365	3.9499009	-0.040205956	0.0	-4.9375	-42.375	-28.5	0.8932483	0.416362	0.16389523
1277483151357	-1.3075534	9.152874	3.405087	0.0462389	0.0	-4.1875	-42.875	-28.25	0.7030486	0.35287037	0.14189704
1277483151387	-1.3756552	9.534244	3.636633	0.4899187	0.0	-2.9375	-43.125	-28.25	0.66749275	0.3609774	0.14329676
1277483151417	-1.3756552	9.534244	3.6774938	0.50442123	0.0	-2.4375	-43.125	-28.25	0.6492086	0.36468485	0.1432968
1277483151450	-1.334794	9.275456	3.445948	0.17785454	0.0	-2.1875	-43.375	-29.0	0.5882583	0.35237685	0.1429248
1277483151487	-1.334794	8.771504	3.214402	-0.36984158	0.0	-1.6875	-42.375	-29.75	0.528097	0.3475803	0.15101533
1277483151527	-1.4982382	8.812365	3.5276701	-0.19691849	0.0	-1.9375	-41.375	-30.5	0.57946044	0.37588245	0.16840519
1277483151567	-1.7297841	8.853226	3.7864566	-0.02355194	0.0	-2.4375	-40.625	-31.0	0.6522096	0.39741993	0.19295377
1277483151607	-1.7978859	9.00305	3.486809	0.013998032	0.0	-1.9375	-39.375	-31.5	0.5444393	0.36296624	0.1971046
1277483151647	-1.7570249	8.894087	4.0588636	0.12644005	0.0	-2.1875	-39.625	-32.25	0.6213643	0.42094204	0.19503847
1277483151687	-1.7570249	8.499097	4.140586	-0.19071388	0.0	-2.1875	-39.375	-32.5	0.6641687	0.4451533	0.20385902
1277483151727	-1.8387469	8.349273	4.099725	-0.32513714	0.0	-1.6875	-39.375	-33.5	0.63479006	0.44714326	0.21676815
1277483151768	-2.0294318	8.580819	4.099725	-0.08261871	0.0	-1.4375	-39.125	-33.75	0.61620325	0.43521735	0.2322405
1277483151807	-2.0294318	8.689782	4.2495484	0.077153206	0.0	-0.9375	-38.625	-33.75	0.5929394	0.44443822	0.22943011
1277483151848	-2.1383946	8.662541	4.1814466	0.04712391	0.0	0.3125	-38.875	-33.75	0.5557619	0.43824363	0.2420168
1277483151888	-2.2201166	8.771504	3.990762	0.08245468	0.0	0.8125	-38.875	-33.25	0.52428025	0.41539502	0.2478994
1277483151928	-2.3699405	8.921328	4.140586	0.31022453	0.0	1.5625	-38.875	-33.0	0.5266765	0.4216595	0.25965193
1277483151967	-2.3699405	8.921328	3.9090397	0.21768475	0.0	2.0625	-38.875	-32.75	0.48115602	0.40058273	0.25965193
1277483152008	-2.5333846	8.921328	3.8681788	0.24177933	0.0	2.5625	-39.125	-32.5	0.49485162	0.39515752	0.27668577
1277483152047	-2.5606253	9.00305	3.6774938	0.2499733	0.0	3.5625	-39.375	-32.0	0.4405944	0.374362	0.27710038
1277483152087	-2.5606253	9.234595	3.568531	0.41924667	0.0	4.0625	-39.875	-31.5	0.4047748	0.35647178	0.27049038
1277483152127	-2.4516625	9.234595	3.486809	0.3642025	0.0	4.5625	-40.875	-30.75	0.3863842	0.34992105	0.25950047
1277483152157	-2.2201166	8.962189	3.214402	-0.030038834	0.0	3.8125	-41.375	-30.0	0.39883125	0.33501664	0.24283198
1277483152197	-2.2609777	8.921328	3.445948	0.020692825	0.0	3.3125	-42.125	-29.25	0.5090537	0.358264	0.24820909
1277483152237	-2.1111538	8.921328	2.9556155	-0.17427158	0.0	3.0625	-42.875	-28.5	0.45452464	0.31187287	0.23236673
1277483152277	-2.1792557	8.921328	3.173541	-0.090138435	0.0	2.5625	-43.375	-28.0	0.55794984	0.33271804	0.23958305
1277483152317	-2.1792557	8.812365	2.6014864	-0.36341667	0.0	2.3125	-43.875	-27.75	0.51077944	0.2790961	0.24243139
1277483152357	-2.2609777	8.730643	2.5333846	-0.43892956	0.0	1.8125	-43.875	-26.75	0.5789242	0.27384764	0.25340337
1277483152397	-2.3018389	8.894087	2.4925237	-0.28741074	0.0	1.0625	-44.375	-26.5	0.6158643	0.26492888	0.2532489
1277483152427	-2.3018389	8.921328	2.4516625	-0.27254295	0.0	0.5625	-44.875	-25.75	0.6624514	0.26006827	0.25250813
1277483152457	-2.3018389	9.043911	2.3426998	-0.1848507	0.0	0.5625	-45.375	-24.75	0.6763428	0.24595049	0.24922644
1277483152497	-2.2609777	9.697687	2.3018389	0.41370296	0.0	0.3125	-46.125	-24.75	0.628822	0.22716993	0.22905436
1277483152537	-1.9885708	9.656827	2.4108016	0.34326077	0.0	-0.1875	-46.125	-24.0	0.6456774	0.23981148	0.20308502
1277483152567	-1.920469	9.575105	2.3426998	0.23621178	0.0	-0.1875	-46.375	-23.5	0.64939696	0.23543926	0.1979426
1277483152597	-1.920469	9.575105	2.1111538	0.18473625	0.0	-0.6875	-46.375	-22.25	0.67768717	0.21290213	0.19794261
1277483152637	-2.070293	9.615966	1.9477097	0.22063637	0.0	-1.1875	-46.375	-22.0	0.7054791	0.19548361	0.21206045
1277483152677	-2.070293	9.275456	1.9885708	-0.097138405	0.0	-0.9375	-46.875	-21.5	0.7595724	0.20626597	0.21960165
1277483152717	-2.070293	9.084772	1.5390993	-0.36270905	0.0	-1.4375	-46.625	-20.75	0.73099077	0.16370232	0.22405973
1277483152757	-2.070293	9.275456	1.1441092	-0.23433685	0.0	-1.4375	-46.625	-21.5	0.6273133	0.11980918	0.21960166
1277483152797	-2.0294318	9.343558	1.4982382	-0.12856197	0.0	-1.1875	-47.125	-21.0	0.6852509	0.15543236	0.21387912
1277483152837	-1.9477097	9.343558	1.7297841	-0.10676384	0.0	-1.1875	-46.875	-20.75	0.7181649	0.17928934	0.20551181
1277483152877	-1.879608	9.234595	1.7297841	-0.22527122	0.0	-0.6875	-46.875	-21.25	0.67069906	0.18153141	0.20079693
1277483152917	-1.8387469	9.084772	1.56634	-0.4062519	0.0	-0.1875	-46.875	-21.25	0.6192501	0.16740568	0.19970103
1277483152947	-1.879608	9.00305	1.6889231	-0.455698	0.0	0.5625	-46.375	-21.5	0.604388	0.18161179	0.20581825
1277483152988	-1.879608	8.962189	2.152015	-0.40000725	0.0	1.3125	-46.625	-21.5	0.6713905	0.23082024	0.20673019
1277483153028	-1.8387469	9.193735	2.1792557	-0.1809082	0.0	1.8125	-46.625	-21.25	0.6223813	0.2283788	0.19739555
1277483153067	-1.6480621	9.302697	2.2609777	-0.09231472	0.0	2.3125	-46.375	-21.0	0.53981286	0.2349008	0.17534032
1277483153108	-1.525479	9.302697	1.8387469	-0.20205498	0.0	2.5625	-46.125	-21.0	0.39558595	0.19263366	0.16253588
1277483153147	-1.525479	9.534244	1.7570249	0.007422447	0.0	3.3125	-45.625	-21.75	0.28907558	0.18000162	0.15865526
1277483153187	-1.6480621	9.847511	1.7570249	0.3312359	0.0	3.8125	-45.375	-22.5	0.2552203	0.17419232	0.16582148
1277483153227	-1.6889231	10.18802	1.7570249	0.6688137	0.0	4.5625	-45.375	-23.0	0.19173433	0.1685242	0.16428137
1277483153267	-1.4573772	9.765789	1.8387469	0.23703289	0.0	5.625	-44.625	-23.75	0.06758435	0.18411335	0.14813967
1277483153307	-1.607201	9.765789	1.9477097	0.28033638	0.0	6.125	-43.875	-24.5	0.06969626	0.1943118	0.16311249
1277483153347	-1.6480621	9.534244	2.3018389	0.13902092	0.0	6.625	-43.125	-25.25	0.056432355	0.23355892	0.17116573
1277483153387	-1.334794	8.853226	2.6423476	-0.4715929	0.0	6.625	-42.375	-26.25	-0.017910557	0.28697932	0.14964217
1277483153427	-1.0760075	8.812365	2.7921712	-0.5001049	0.0	6.625	-42.625	-26.5	-0.11372591	0.30471602	0.12150059
1277483153457	-0.88532263	9.152874	3.2961242	-0.038163185	0.0	6.125	-42.375	-26.75	-0.18545023	0.34417933	0.09642622
1277483153497	-0.6946377	9.275456	3.1463003	0.012505531	0.0	5.875	-42.875	-26.5	-0.23165411	0.32617784	0.074750334
1277483153537	-0.19068487	8.730643	2.7649305	-0.6466646	0.0	5.375	-43.375	-26.75	-0.343464	0.30663133	0.0218374
1277483153577	0.92618364	8.158588	4.3312707	-0.5233164	0.0	4.0625	-43.375	-27.5	-1.1103305	0.48540223	-0.11303861
1277483153617	0.19068487	8.471856	1.4982382	-1.2012196	0.0	2.8125	-43.375	-27.75	-0.1891385	0.1749956	-0.02250424
1277483153657	-0.3405087	9.507003	0.27240697	-0.28965187	0.0	0.5625	-42.875	-28.75	0.03533502	0.028627113	0.035801314
1277483153697	-0.61291564	11.454713	2.1111538	1.8571014	0.0	-1.6875	-42.125	-28.75	0.18809459	0.18200445	0.05345675
1277483153737	-0.0	11.073342	3.5957718	1.8358793	0.0	-4.1875	-42.375	-27.75	0.30489686	0.31398153	0.0
1277483153777	0.88532263	10.079058	3.445948	0.88193035	0.0	-6.0	-43.375	-26.5	0.19604115	0.32825878	-0.08761297
1277483153817	1.920469	9.00305	5.134871	0.73422337	0.0	-6.75	-44.375	-25.0	-1.5685476	0.5088108	-0.21016328
1277483153857	0.7627395	9.00305	1.4165162	-0.660985	0.0	-7.75	-44.875	-24.5	0.22514403	0.15550992	-0.0845183
1277483153897	0.42223078	8.471856	1.2666923	-1.2302217	0.0	-8.0	-43.875	-26.0	0.29388937	0.14823692	-0.049798027
1277483153927	0.23154591	7.668256	2.7649305	-1.6518602	0.0	-9.0	-42.375	-28.0	0.57575357	0.3459133	-0.030186208
1277483153957	-0.0	8.281172	2.7649305	-1.0760918	0.0	-10.0	-40.375	-30.5	0.5545946	0.32224387	0.0
1277483153987	-0.27240697	8.308413	3.255263	-0.8791275	0.0	-10.0	-39.125	-32.75	0.60361016	0.37323785	0.032775145
1277483154017	-0.08172209	8.499097	3.568531	-0.5884218	0.0	-9.5	-38.125	-33.75	0.5417047	0.3975025	0.009615089
1277483154057	-0.46309182	8.117727	7.246025	1.084485	0.0	-8.25	-37.0625	-35.25	1.3788606	0.72791445	0.05698521
1277483154097	-0.7627395	12.830367	3.445948	3.50029	0.0	-4.4375	-34.8125	-37.25	0.23568286	0.26194397	0.059378106
1277483154137	-0.53119355	15.091345	1.9885708	5.424412	0.0	-0.9375	-32.5625	-38.8125	0.060749214	0.13093401	0.035184033
1277483154177	-0.040861044	19.041246	5.175732	9.9255295	0.0	0.8125	-31.0625	-40.8125	-0.023873506	0.26540393	0.0021459195
1277483154217	0.8036005	19.463476	8.240311	11.344601	0.0	0.3125	-29.5625	-42.3125	-0.05570978	0.40018612	-0.04126418
1277483154257	0.53119355	17.393185	8.499097	9.559292	0.0	-4.4375	-26.3125	-44.0625	0.12904425	0.45433873	-0.030530836
1277483154297	-0.42223078	11.604536	4.903325	2.7983541	0.0	-7.75	-18.5625	-47.5625	0.22546086	0.399544	0.036368933
1277483154337	-6.932757	1.5390993	-1.7297841	-2.4974709	0.0	-4.9375	-7.0	-49.3125	0.16615435	-0.23892587	1.3523353
1277483154377	-10.95076	-9.656827	3.7864566	5.276808	0.0	-0.1875	5.0	-50.3125	-0.08069344	0.25374803	2.2934875
1277483154417	-1.0351465	-5.6252036	6.701211	-0.9963913	0.0	5.625	14.5625	-50.5625	0.13605976	0.86425924	2.9596093
1277483154457	3.9499009	-2.8738933	6.4015636	-1.7542591	0.0	8.875	19.0625	-49.3125	0.65791893	0.9189897	-2.1997976
1277483154497	2.152015	-3.636633	7.164303	-1.4889879	0.0	10.5	19.3125	-44.8125	0.9655591	1.0378938	-2.6072538
1277483154537	2.7240696	-4.099725	7.668256	-0.69454575	0.0	9.5	20.0625	-45.0625	0.9125662	1.000139	-2.555125
1277483154567	3.718355	-4.372132	7.5456724	-0.32620335	0.0	9.5	18.8125	-44.8125	0.75550216	0.92052484	-2.4368274
1277483154597	2.9556155	-3.3642259	9.847511	1.0112591	0.0	10.6875	17.0625	-45.1875	0.96164054	1.144001	-2.42076
1277483154637	2.3426998	-2.7240696	9.956474	0.7782526	0.0	11.1875	14.8125	-46.4375	0.98407125	1.224481	-2.4313216
1277483154677	1.4982382	-3.1463003	8.076866	-1.0100775	0.0	11.1875	11.75	-46.9375	0.8515234	1.16347	-2.6971734
1277483154717	0.88532263	-2.4108016	7.8861814	-1.5128202	0.0	11.6875	8.5	-47.4375	0.90434164	1.2559668	-2.78965
1277483154757	-1.8387469	-0.6537767	13.525005	3.8584213	0.0	14.0625	4.5625	-46.9375	3.089616	1.4274962	1.9124118
1277483154797	-0.29964766	-1.7570249	11.645397	1.9743605	0.0	14.3125	1.5625	-46.4375	1.3488398	1.4189194	2.972675
1277483154837	-2.5333846	-1.879608	9.275456	-0.0094537735	0.0	15.125	-0.6875	-46.4375	1.1890174	1.2429748	2.2091162
1277483154877	-0.46309182	-2.7240696	10.651112	1.1970396	0.0	15.625	-1.9375	-46.6875	0.9588857	1.3169678	2.9732025
1277483154917	1.3075534	-2.3018389	10.378705	0.90435696	0.0	15.125	-2.4375	-47.1875	0.51817393	1.3210518	-2.6249993
1277483154947	0.46309182	-1.525479	9.507003	-0.16690731	0.0	16.375	-3.6875	-46.4375	0.74426645	1.4046528	-2.8468626
1277483154977	-1.4573772	-2.1111538	10.56939	1.0696049	0.0	17.625	-5.4375	-46.1875	1.2671752	1.3326877	2.5373912
1277483155007	-0.29964766	-2.2609777	11.563675	1.9797993	0.0	18.125	-6.6875	-45.4375	0.9683864	1.376062	3.0098305
1277483155037	0.53119355	-2.5606253	11.454713	1.9427929	0.0	19.625	-7.4375	-45.1875	0.69945204	1.3463405	-2.937047
1277483155077	1.3075534	-2.4108016	10.991621	1.5219593	0.0	20.625	-8.1875	-44.9375	0.47886184	1.3262751	-2.644624
1277483155117	0.27240697	-1.920469	9.656827	0.043056488	0.0	20.625	-8.9375	-44.9375	0.755063	1.3725716	-3.0006886
1277483155177	1.2666923	-1.4573772	8.076866	-1.5021801	0.0	20.875	-10.1875	-44.6875	0.28308818	1.3361326	-2.4260805
1277483155207	0.92618364	-1.1441092	8.117727	-1.5565414	0.0	20.875	-14.5	-43.1875	0.22026178	1.3914132	-2.4610715
1277483155237	0.53119355	0.0	10.038197	0.24559116	0.0	20.625	-20.5	-40.4375	-0.7337929	1.5179282	-1.5707964
1277483155277	0.7627395	1.5390993	11.645397	1.9647503	0.0	21.375	-27.75	-35.875	-1.8776588	1.4243497	-0.46010152
1277483155317	-0.10896278	2.7649305	9.697687	0.2780838	0.0	22.375	-35.25	-30.375	-2.4700358	1.2928483	0.039388485
1277483155357	-1.4165162	2.070293	9.615966	0.13112736	0.0	23.625	-39.5625	-26.125	3.0667505	1.3156142	0.6000502
1277483155397	-1.2258313	3.5957718	8.771504	-0.24780464	0.0	26.4375	-41.3125	-23.125	-2.8149889	1.1620812	0.32855314
1277483155437	-1.6480621	1.3756552	6.0882955	-3.3509645	0.0	29.4375	-41.3125	-19.875	2.8282988	1.2318048	0.8752457
1277483155477	-2.6832085	4.944186	7.5456724	-0.39486217	0.0	32.4375	-42.0625	-15.375	-2.889951	0.9301769	0.4972211
1277483155507	-5.8158884	9.234595	7.8861814	3.6579018	0.0	33.4375	-43.8125	-9.8125	-2.9399807	0.6257428	0.5620389
1277483155537	-6.238119	9.724928	3.636633	2.3058825	0.0	32.1875	-45.5625	-7.0625	-2.897218	0.30494133	0.5703458
1277483155577	-5.202973	8.771504	2.4516625	0.6824331	0.0	28.9375	-47.5625	-7.0625	-3.040474	0.23591702	0.5353806
1277483155617	-5.6252036	9.915613	5.7477865	2.9604692	0.0	25.1875	-47.8125	-9.8125	3.0337138	0.46699187	0.51603407
1277483155657	-2.9556155	9.193735	4.903325	1.0240021	0.0	22.375	-48.0625	-12.3125	-2.6672146	0.469821	0.3110462
1277483155697	-0.9942854	8.390134	3.0237172	-0.8330326	0.0	19.125	-48.8125	-11.8125	-1.9941899	0.3436823	0.11795637
1277483155737	-1.6889231	13.102775	-3.255263	3.7996683	0.0	14.5625	-49.3125	-9.5625	-0.36294356	-0.24158968	0.12819129
1277483155777	0.23154591	14.709975	-4.5900574	5.6045666	0.0	9.8125	-50.3125	-3.5625	-0.52424085	-0.30242786	-0.01573944
1277483155817	-0.61291564	14.369467	0.9942854	4.6102104	0.0	3.75	-50.5625	0.6875	-2.7777908	0.069021635	0.042628188
1277483155857	-1.3756552	11.985906	3.990762	2.9008493	0.0	-0.75	-50.3125	5.6875	2.8431475	0.31945354	0.11427272
1277483155897	-0.9125633	9.00305	1.7297841	-0.59362507	0.0	-3.0	-49.8125	10.4375	2.7519214	0.18887518	0.101016566
1277483155927	-0.8036005	9.507003	1.6889231	-0.11741161	0.0	-5.0625	-49.8125	11.6875	2.7104366	0.17520414	0.08432676
1277483155957	-0.14982383	5.597963	1.1441092	-4.091003	0.0	-4.75	-49.3125	14.5	2.8944433	0.20153289	0.026757604
1277483155997	1.2666923	6.5922484	0.50395286	-3.0749183	0.0	-5.0625	-48.5625	16.25	-2.9334254	0.07493239	-0.189835
1277483156037	-0.9942854	12.639683	0.3405087	2.8766508	0.0	-5.5625	-48.3125	18.75	2.705404	0.026850235	0.07850214
1277483156077	-0.84446156	10.079058	-0.7218784	0.33344936	0.0	-5.3125	-47.0625	21.5	2.6711717	-0.07125073	0.08358856
1277483156117	-1.1168685	12.571581	-2.070293	2.983117	0.0	-5.5625	-45.8125	23.75	2.6049733	-0.16258639	0.08860811
1277483156157	-0.27240697	10.528529	-3.7864566	1.3853731	0.0	-5.0625	-44.8125	26.25	2.566247	-0.34512833	0.02586745
1277483156197	0.9942854	8.730643	-2.982856	-0.5270939	0.0	-4.25	-43.5625	28.5	-3.0869617	-0.32725385	-0.113396
1277483156237	2.5333846	4.0588636	-1.1168685	-4.8934226	0.0	-2.75	-42.3125	30.75	-2.389498	-0.22932342	-0.5579958
1277483156277	0.9942854	8.539958	-3.214402	-0.6277685	0.0	-0.25	-40.8125	33.75	-2.89014	-0.35777968	-0.1159056
1277483156317	0.14982383	9.888372	-2.1792557	0.32012177	0.0	2.25	-39.0625	36.25	-3.0367477	-0.21689402	-0.015150357
1277483156357	2.9556155	1.4573772	-2.6423476	-5.582717	0.0	7.0625	-37.5	37.5	-2.1268752	-0.67585635	-1.1126939
1277483156397	-0.7627395	12.367276	0.38136974	2.5899925	0.0	10.5625	-36.25	37.5	-2.9296005	0.030768808	0.061595988
1277483156437	-3.759216	13.525005	-1.6889231	4.3323	0.0	12.0625	-36.0	37.8125	-3.081647	-0.119737715	0.27110267
1277483156477	3.7864566	10.800936	-4.903325	2.6448584	0.0	13.0625	-36.75	37.0	-2.3040333	-0.4047551	-0.33718026
1277483156507	1.6480621	11.536434	-3.7864566	2.446622	0.0	11.5625	-37.5	36.25	-2.5225523	-0.31415814	-0.14189707
1277483156537	2.3018389	10.923519	-3.214402	1.8103256	0.0	10.3125	-38.5625	36.0	-2.5115242	-0.28035694	-0.20768476
1277483156567	2.4108016	9.697687	-4.440233	1.1282835	0.0	10.0625	-39.0625	34.25	-2.2926073	-0.41813785	-0.24365637
1277483156607	2.0294318	8.19945	-5.597963	0.3267975	0.0	10.0625	-39.8125	32.75	-1.9311829	-0.5852698	-0.24263218
1277483156647	2.0294318	7.1234417	-5.202973	-0.75496864	0.0	10.5625	-40.0625	32.25	-1.8433017	-0.6123687	-0.2775419
1277483156687	0.7627395	8.853226	-1.2666923	-0.83080006	0.0	10.8125	-40.5625	31.5	-2.6337457	-0.14159493	-0.08594164
1277483156727	-2.5333846	9.302697	1.0760075	-0.10530949	0.0	5.6875	-39.875	28.6875	2.9912682	0.11114195	0.26588035
1277483156774	-6.4015636	12.571581	-1.6480621	4.3968973	0.0	6.9375	-40.125	27.9375	2.6639993	-0.11629368	0.47098774
1277483156887	-1.607201	9.656827	0.6537767	0.004814148	0.0	8.8125	-40.375	26.875	-3.0718803	0.066683374	0.16491994
1277483157137	0.50395286	9.302697	0.46309182	-0.4788103	0.0	10.9375	-41.25	24.875	-2.6862319	0.04966662	-0.05411987
1277483157177	3.5276701	9.275456	0.040861044	0.1170702	0.0	12.9375	-41.75	21.625	-2.2504869	0.0041175243	-0.3634293
1277483157217	1.1168685	9.915613	1.6889231	0.3135891	0.0	14.4375	-42.75	18.375	-2.4871747	0.1676702	-0.11216461
1277483157257	-0.23154591	11.114203	-0.88532263	1.3451624	0.0	14.4375	-44.0	14.875	-2.2675803	-0.07947186	0.02083032
1277483157307	-1.607201	13.021052	0.95342433	3.3478136	0.0	14.1875	-44.0	13.125	-2.6538346	0.07254276	0.1228098
1277483157339	1.8387469	12.026767	-1.525479	2.4551277	0.0	12.4375	-44.25	13.625	-1.9834899	-0.124732465	-0.15171309
1277483157377	6.3607025	10.419566	-0.040861044	2.4010344	0.0	8.4375	-44.5	14.875	-2.0230184	-0.003347164	-0.5480734
1277483157417	8.853226	8.662541	-0.3405087	2.584282	0.0	2.625	-45.25	16.875	-2.009833	-0.027483936	-0.7962842
1277483157459	3.336985	12.980191	0.61291564	3.6096277	0.0	-1.625	-45.25	19.625	-2.7202196	0.045700386	-0.25163373
1277483157498	0.88532263	13.988097	3.990762	4.7665052	0.0	-4.375	-44.0	23.625	3.09605	0.2773869	-0.06320683
1277483157538	0.84446156	10.501288	-1.4573772	0.8288622	0.0	-5.6875	-42.5	27.625	3.0367286	-0.13746183	-0.08024238
1277483157577	3.0645783	7.8589406	0.42223078	-1.3607721	0.0	-5.4375	-40.5	31.125	-2.8577414	0.050013375	-0.37181097
1277483157619	5.829509	6.1291566	0.46309182	-1.3352757	0.0	-5.4375	-38.75	34.125	-2.575363	0.05469275	-0.7603465
1277483157657	3.173541	6.1700177	1.0760075	-2.7853775	0.0	-5.4375	-37.4375	36.125	-2.8516107	0.15385592	-0.4750606
1277483157697	-0.040861044	5.5162406	-0.08172209	-4.289653	0.0	-4.625	-37.1875	36.625	3.0065658	-0.014813326	0.0074072727
1277483157737	-1.334794	6.3198414	-0.29964766	-3.3404412	0.0	-4.125	-37.75	36.625	2.8147192	-0.046357147	0.20814784
1277483157777	-0.7218784	6.238119	-2.0294318	-3.2071176	0.0	-3.375	-39.0	35.125	2.7940156	-0.31257665	0.11520809
1277483157807	1.6889231	9.193735	-4.671779	0.6433611	0.0	-3.625	-40.5	33.375	-2.8325734	-0.46347558	-0.18167807
1277483157837	5.47538	11.563675	-9.80665	6.313795	0.0	-3.875	-41.5	31.875	-1.6736999	-0.6539626	-0.44222233
1277483157877	9.915613	12.571581	-9.193735	8.656525	0.0	-3.375	-42.75	30.375	-1.9167116	-0.5212331	-0.6678326
1277483157907	7.9679036	7.7363577	-7.014479	3.3288603	0.0	-3.375	-42.5	30.625	-1.8735524	-0.563335	-0.8001412
1277483157937	3.7864566	6.8237944	-4.099725	-0.9913702	0.0	-2.375	-42.25	30.625	-2.042349	-0.48371398	-0.50658995
1277483157977	-1.56634	9.915613	0.92618364	0.2745514	0.0	-1.625	-42.25	31.125	2.9102774	0.09200209	0.1566724
1277483158007	-1.4982382	14.941522	-2.4516625	5.40862	0.0	-2.125	-41.75	31.625	2.8911831	-0.16183725	0.099939406
1277483158039	-5.012288	7.4639506	-0.9942854	-0.7610884	0.0	-2.875	-42.0	31.875	2.3974864	-0.11014226	0.5913639
1277483158077	0.6946377	7.43671	4.4810944	-1.0964622	0.0	-3.625	-42.5	31.375	-3.134565	0.54038465	-0.093136355
1277483158117	5.597963	15.023244	1.9885708	6.3485184	0.0	-4.875	-42.75	30.875	-2.8597906	0.123404905	-0.35668257
1277483158157	3.2961242	8.689782	-0.10896278	-0.5121021	0.0	-5.9375	-43.0	29.125	-2.8149376	-0.011723569	-0.36254424
1277483158187	0.6946377	6.932757	0.42223078	-2.826398	0.0	-6.6875	-44.0	26.875	3.0649164	0.060526278	-0.099863164
1277483158217	2.7921712	7.6954966	0.50395286	-1.6047688	0.0	-7.4375	-44.75	24.625	-2.84759	0.061482295	-0.34806028
1277483158257	3.445948	8.662541	1.7570249	-0.31974792	0.0	-7.6875	-46.0	22.375	-2.8282552	0.1862808	-0.37860727
1277483158287	2.6423476	8.430995	0.10896278	-0.9706135	0.0	-7.9375	-47.5	20.625	-2.8385909	0.012331948	-0.30371255
1277483158328	-0.10896278	8.499097	0.313268	-1.3010836	0.0	-7.9375	-48.25	18.625	2.744238	0.036839273	0.01281981
1277483158367	2.5606253	9.343558	1.3756552	-0.021390915	0.0	-7.1875	-49.0	17.375	-2.8969717	0.1410517	-0.2674851
1277483158409	6.742072	9.425281	0.61291564	1.797966	0.0	-5.9375	-49.5	15.625	-2.212555	0.052841123	-0.62093264
1277483158447	7.9679036	9.915613	1.2258313	2.9726114	0.0	-4.875	-49.5	14.625	-2.1692662	0.09607119	-0.6769149
1277483158487	8.076866	10.691973	0.040861044	3.5931902	0.0	-3.875	-49.75	14.125	-2.0581121	0.0030493727	-0.6469571
1277483158527	7.014479	12.598822	-1.1168685	4.6564274	0.0	-3.625	-50.0	13.625	-2.0152476	-0.07729901	-0.50801593
1277483158567	5.829509	10.079058	-1.607201	1.9472284	0.0	-4.375	-49.75	14.625	-1.9452069	-0.13716766	-0.52436954
1277483158607	0.27240697	11.304889	-2.4925237	1.7729607	0.0	-4.625	-49.0	17.875	2.6780152	-0.21694893	-0.024091724
1277483158647	0.46309182	17.2025	4.2086873	7.90926	0.0	-5.4375	-47.25	22.375	3.0160363	0.23985873	-0.026913531
1277483158687	1.6889231	14.369467	-2.5333846	4.881851	0.0	-6.4375	-44.75	27.375	3.0806484	-0.17334075	-0.11699875
1277483158727	2.982856	9.302697	0.95342433	0.008981705	0.0	-7.1875	-41.5	32.125	-2.9812315	0.09728665	-0.3102872
1277483158757	3.8273177	4.630918	0.9942854	-3.7171206	0.0	-7.6875	-38.75	34.875	-2.7038467	0.1640122	-0.6906745
1277483158797	3.1054392	4.3312707	1.3075534	-4.3190866	0.0	-8.4375	-36.9375	36.875	-2.8207903	0.2405901	-0.622032
1277483158827	0.14982383	3.6774938	1.1441092	-5.95238	0.0	-8.4375	-36.1875	38.1875	2.9955523	0.3013839	-0.040718224
1277483158857	-0.84446156	4.2904096	0.8036005	-5.360697	0.0	-8.1875	-36.1875	37.9375	2.8086896	0.18174769	0.1943412
1277483158887	-2.5606253	5.407278	0.7218784	-3.7803278	0.0	-7.9375	-36.6875	37.6875	2.632476	0.1200759	0.44226593
1277483158917	-2.6014864	6.973618	-1.4982382	-2.2142992	0.0	-7.9375	-37.1875	36.625	2.536999	-0.19863893	0.35705724
1277483158947	4.7535014	11.836082	-8.008764	5.2541904	0.0	-8.1875	-38.25	34.875	-2.5067458	-0.5606783	-0.38189444
1277483158977	10.841797	17.24336	-13.6748295	14.726572	0.0	-8.1875	-39.25	33.625	-2.033653	-0.59125143	-0.56129277
1277483159017	8.471856	10.228881	-8.349273	5.8813295	0.0	-8.1875	-39.5	33.125	-2.0186245	-0.56120676	-0.69171834
1277483159057	3.486809	8.580819	-3.0237172	-0.06338787	0.0	-7.1875	-39.75	33.125	-2.7337298	-0.31554994	-0.38596782
1277483159097	2.982856	13.988097	-0.08172209	4.4961815	0.0	-6.9375	-38.75	34.125	-3.1033661	-0.005713731	-0.21009564
1277483159137	-5.5162406	7.9270425	-1.8387469	0.024316788	0.0	-8.4375	-38.0	34.875	2.3682072	-0.18814425	0.60795295
1277483159167	-2.1792557	11.223166	4.903325	2.633254	0.0	-9.6875	-38.0	34.625	2.790902	0.4051548	0.19178815
1277483159197	3.255263	14.410328	2.9556155	5.259535	0.0	-11.6875	-38.25	33.125	3.0679893	0.19745605	-0.22216892
1277483159237	7.273266	9.697687	0.5720546	2.328949	0.0	-13.4375	-39.5	31.875	-2.7748084	0.047156032	-0.64350116
1277483159267	3.718355	6.932757	1.3756552	-1.8203049	0.0	-13.6875	-40.5	30.125	-2.952201	0.17311427	-0.49229974
1277483159307	0.50395286	6.66035	-0.14982383	-3.1255817	0.0	-14.1875	-41.5	28.125	2.7563493	-0.022427011	-0.075520724
1277483159337	3.1054392	9.00305	0.38136974	-0.2754326	0.0	-14.6875	-42.75	26.375	-3.1396344	0.040023383	-0.3321527
1277483159367	3.636633	9.043911	0.7627395	-0.029166222	0.0	-14.9375	-43.5	23.875	-3.0552723	0.07808913	-0.38232267
1277483159397	3.255263	8.240311	1.0351465	-0.88639355	0.0	-15.25	-44.25	22.625	-3.067367	0.11630651	-0.37622434
1277483159437	4.2086873	8.853226	0.84446156	0.032341957	0.0	-15.5	-44.75	21.625	-2.9405458	0.085933775	-0.4437621
1277483159478	8.308413	9.915613	0.8036005	3.1546326	0.0	-14.4375	-45.0	21.375	-2.503444	0.062039863	-0.6974344
1277483159517	8.349273	8.117727	2.1792557	2.0405865	0.0	-13.1875	-44.5	21.625	-2.4721534	0.1849998	-0.7994584
1277483159557	8.580819	8.962189	-0.9125633	2.634574	0.0	-12.6875	-44.5	21.875	-2.2871442	-0.07341589	-0.76366246
1277483159597	4.630918	13.633968	-1.4573772	4.6658907	0.0	-12.6875	-44.25	22.875	-3.0198488	-0.10087043	-0.327434
1277483159637	4.399372	11.304889	-5.47538	3.5025482	0.0	-13.6875	-43.25	24.625	-2.4874723	-0.42398754	-0.37112382
1277483159678	-0.19068487	9.765789	-3.9499009	0.72941685	0.0	-15.5	-41.75	27.875	2.1342998	-0.38428167	0.019523323
1277483159717	2.7649305	11.985906	0.46309182	2.5027456	0.0	-17.0	-38.75	31.375	2.9073493	0.037629884	-0.22671586
1277483159757	9.275456	7.9679036	-2.8738933	2.7544336	0.0	-19.25	-35.6875	33.875	-2.6030498	-0.23083803	-0.8610827
1277483159787	4.1814466	7.014479	-0.6946377	-1.6109238	0.0	-21.0	-32.9375	35.875	3.1054506	-0.084857896	-0.5375591
1277483159817	2.7649305	3.718355	0.46309182	-5.149885	0.0	-22.0	-31.1875	36.625	-3.1178508	0.099609606	-0.6393859
1277483159847	4.0588636	3.3778462	0.08172209	-4.525467	0.0	-22.5	-30.6875	36.875	-2.9007773	0.015474818	-0.8767185
1277483159887	3.990762	5.175732	-0.040861044	-3.2708983	0.0	-21.5	-30.4375	37.125	-3.0993524	-0.0062519675	-0.6568392
1277483159917	1.2666923	5.407278	0.040861044	-4.2528377	0.0	-20.5	-31.1875	36.875	2.8085163	0.007357363	-0.23010765
1277483159960	1.3756552	6.701211	-1.3756552	-2.828751	0.0	-19.0	-32.4375	35.875	2.7360044	-0.1984445	-0.20247167
1277483159997	3.214402	9.234595	-2.4516625	0.2740631	0.0	-17.75	-33.6875	34.375	2.9105692	-0.24566692	-0.33496565
1277483160037	6.5922484	11.958665	-6.3607025	5.257411	0.0	-16.25	-35.1875	32.875	-2.9398575	-0.4359189	-0.5038046
1277483160077	10.269742	11.182305	-4.4810944	6.0234404	0.0	-13.9375	-36.1875	31.625	-2.526547	-0.28699818	-0.7428841
1277483160117	8.349273	8.812365	-6.2108784	3.8294468	0.0	-11.6875	-36.6875	31.375	-2.1979992	-0.47290382	-0.7584206
1277483160147	1.6889231	7.668256	0.5720546	-1.9337945	0.0	-8.4375	-36.4375	31.375	3.1297572	0.072725736	-0.21678749
1277483160177	-0.8036005	11.413852	0.50395286	1.6465483	0.0	-5.9375	-36.9375	31.125	2.8867776	0.044015273	0.07028974
1277483160207	-1.7978859	11.727119	-1.7570249	2.186884	0.0	-4.875	-36.9375	31.125	2.7544658	-0.14702682	0.15212564
1277483160237	-5.09401	6.510526	-1.3756552	-1.4264164	0.0	-4.625	-37.4375	30.625	2.3395467	-0.16490108	0.66393334
1277483160277	3.336985	11.958665	2.4516625	2.8486166	0.0	-5.1875	-38.5	30.125	-2.997993	0.19495934	-0.2721213
1277483160317	5.8976107	12.340035	2.1792557	4.0428066	0.0	-5.1875	-39.0	29.125	-2.8046906	0.15800986	-0.44583213
1277483160347	0.7627395	6.742072	0.61291564	-2.9939437	0.0	-4.625	-40.5	27.125	3.1401942	0.09008835	-0.11265235
1277483160377	-0.19068487	8.539958	-0.6946377	-1.2363663	0.0	-3.875	-41.5	24.125	2.9136074	-0.08114089	0.022324838
1277483160407	1.1168685	8.430995	-1.3756552	-1.1914606	0.0	-2.625	-42.75	21.125	-2.9301558	-0.16036433	-0.1317049
1277483160437	2.9147544	7.7363577	-1.4982382	-1.4047613	0.0	-1.625	-43.75	18.625	-2.2367215	-0.17928044	-0.36031327
1277483160467	3.255263	7.273266	0.23154591	-1.8347783	0.0	-0.375	-43.75	16.625	-2.3633308	0.029049449	-0.42082757
1277483160498	3.173541	6.973618	1.7297841	-1.9520426	0.0	0.375	-44.0	15.375	-2.4787576	0.22204554	-0.42706886
1277483160537	4.3312707	8.430995	1.9885708	-0.121816635	0.0	0.875	-44.0	13.875	-2.3714895	0.2067992	-0.47457266
1277483160567	3.336985	12.258313	-1.920469	3.0420818	0.0	1.625	-44.25	12.3125	-1.9886214	-0.1500298	-0.26578188
1277483160597	6.2789803	12.571581	-1.2258313	4.2991257	0.0	2.625	-44.75	11.0625	-1.9004024	-0.087012544	-0.46321416
1277483160627	10.841797	12.489859	0.313268	6.7353954	0.0	3.875	-45.0	9.8125	-1.881344	0.018938815	-0.714879
1277483160657	9.275456	14.09706	-2.1383946	7.203169	0.0	4.875	-45.0	9.3125	-1.7375768	-0.12604882	-0.58195835
1277483160687	8.240311	10.800936	-2.1383946	3.9460106	0.0	5.1875	-44.5	9.5625	-1.7123529	-0.15612298	-0.6517223
1277483160717	6.238119	8.499097	-2.4516625	1.0173712	0.0	4.375	-43.75	11.0625	-1.6849629	-0.22848484	-0.6331656
1277483160747	4.9850473	12.489859	3.1463003	4.004449	0.0	3.875	-43.25	13.625	-2.4150636	0.22982748	-0.3797541
1277483160787	4.099725	15.6634	3.486809	6.7555866	0.0	3.125	-42.75	16.125	-2.6236885	0.21211468	-0.25599638
1277483160817	3.255263	15.554437	-2.0294318	6.213833	0.0	2.375	-42.25	19.375	-2.4779894	-0.12701859	-0.2063044
1277483160867	3.2961242	13.33432	2.4925237	4.1533356	0.0	1.875	-41.5	22.125	-2.7543604	0.17951027	-0.24233317
1277483160905	4.0588636	6.66035	2.2609777	-1.6858959	0.0	0.625	-40.75	24.625	-2.5625224	0.28214833	-0.5473077
1277483160937	4.0180025	5.8567495	1.7570249	-2.4900255	0.0	-0.375	-39.5	26.625	-2.5627327	0.24251157	-0.6012997
1277483160967	-0.5720546	2.1111538	2.9147544	-6.1624756	0.0	-0.875	-38.5	27.625	2.9092295	0.92702746	0.2646136
1277483161007	-3.5957718	0.7218784	3.255263	-4.9028335	0.0	-0.875	-38.0	27.625	2.160711	0.7259181	1.3726724
1277483161037	-3.9771416	2.8738933	0.23154591	-4.8943663	0.0	-0.375	-38.0	26.375	2.293956	0.04715357	0.94506127
1277483161079	0.6537767	7.8589406	-5.5571017	-0.15927982	0.0	0.375	-39.25	24.375	-0.9510897	-0.6138544	-0.0829978
1277483161117	6.742072	17.692831	-15.785983	14.8447	0.0	1.125	-40.5	22.125	-1.1467438	-0.6949798	-0.364075
1277483161157	6.6331096	8.894087	-9.043911	4.507512	0.0	1.625	-41.25	20.875	-1.4142628	-0.6838933	-0.6408004
1277483161187	1.879608	9.043911	-4.8216033	0.61319256	0.0	2.375	-41.25	20.875	-1.5746104	-0.48107544	-0.20491421
1277483161217	-0.10896278	11.304889	2.2609777	1.7226343	0.0	1.875	-40.75	21.625	-3.0908766	0.19738662	0.009638256
1277483161247	-7.8861814	7.9679036	0.7627395	1.4299469	0.0	0.875	-40.75	23.375	2.3053708	0.067932166	0.7802436
1277483161277	-2.6423476	8.853226	2.9556155	-0.10627556	0.0	0.875	-40.75	23.625	2.8375912	0.30961385	0.29004478
1277483161309	5.243834	13.143636	5.012288	5.2058773	0.0	-0.125	-41.5	22.625	-2.7219768	0.34041014	-0.3796127
1277483161347	8.308413	11.727119	-1.56634	4.6504745	0.0	-0.625	-42.5	21.375	-2.1983757	-0.10855691	-0.6163936
1277483161387	3.568531	7.4639506	-0.5720546	-1.5137482	0.0	-1.125	-42.75	18.125	-2.2941961	-0.06903605	-0.44597638
1277483161427	1.5390993	6.6331096	-1.1849703	-2.8949842	0.0	-1.875	-44.0	14.625	-2.2814434	-0.17229615	-0.22799824
1277483161457	1.7978859	6.1291566	-0.08172209	-3.4187212	0.0	-1.875	-44.75	11.3125	-2.3542793	-0.012793555	-0.28532943
1277483161497	3.173541	6.891896	1.56634	-2.0591984	0.0	-1.125	-45.0	8.3125	-2.3183093	0.20357813	-0.43153015
1277483161537	2.5606253	8.962189	-2.4108016	-0.17910671	0.0	0.375	-45.25	5.8125	-1.1818849	-0.25310034	-0.27829966
1277483161577	6.2789803	8.812365	-0.46309182	1.0237617	0.0	2.375	-44.75	4.0625	-1.6622679	-0.042771507	-0.6190789
1277483161607	7.164303	10.337844	-0.23154591	2.7731705	0.0	4.875	-44.0	2.8125	-1.6462473	-0.018407177	-0.6060241
1277483161637	8.117727	11.727119	1.3075534	4.5157976	0.0	6.4375	-44.0	1.3125	-1.7108068	0.09142129	-0.60548425
1277483161667	9.112013	14.410328	0.08172209	7.2430725	0.0	7.4375	-44.0	0.8125	-1.60339	0.0047931806	-0.5638495
1277483161707	7.6954966	14.560152	-1.9477097	6.776844	0.0	7.1875	-44.0	0.8125	-1.4463258	-0.1177204	-0.4862113
1277483161737	6.782933	10.038197	-2.4516625	2.5539417	0.0	6.4375	-44.25	1.8125	-1.4133242	-0.19966915	-0.5942388
1277483161777	2.3018389	12.176591	-0.08172209	2.585868	0.0	5.6875	-44.5	4.0625	-1.8372217	-0.0065945177	-0.18683335
1277483161817	2.7921712	15.745122	3.9499009	6.6647434	0.0	4.625	-44.5	7.3125	-2.5256748	0.24216363	-0.175511
1277483161867	3.636633	12.217452	0.040861044	2.9406195	0.0	3.125	-44.5	11.0625	-2.1905737	0.0032054796	-0.2893076
1277483161897	3.1463003	6.5513873	2.4516625	-2.1365438	0.0	0.875	-44.5	14.875	-2.4991245	0.32534814	-0.44772273
1277483161944	3.2961242	4.399372	1.607201	-4.0793467	0.0	-0.625	-44.25	18.375	-2.386853	0.28444093	-0.6430056
1277483161990	1.1849703	3.9090397	1.9885708	-5.263616	0.0	-2.375	-44.0	20.375	-2.8656616	0.45305976	-0.29433125
1277483162030	-2.8738933	3.255263	1.7570249	-5.1223	0.0	-3.375	-44.25	21.125	2.3462145	0.38448742	0.72325605
1277483162109	0.88532263	8.390134	-6.4015636	0.7838249	0.0	-4.125	-44.5	19.625	-0.049833227	-0.64909315	-0.10513045
1277483162147	11.073342	18.959524	-17.079916	18.01072	0.0	-4.125	-44.75	17.125	-1.0271872	-0.6611207	-0.5286102
1277483162187	6.3198414	7.082581	-8.853226	3.1734486	0.0	-4.625	-45.0	15.875	-1.1030134	-0.7505779	-0.72854894
1277483162227	1.4165162	6.742072	-2.8738933	-2.341979	0.0	-4.375	-45.0	15.625	-1.0456102	-0.39520708	-0.20708895
1277483162257	-2.8330324	11.876944	3.1054392	2.792223	0.0	-4.875	-45.0	16.875	2.627181	0.24905214	0.23415658
1277483162288	-4.7535014	11.727119	-3.2961242	3.269494	0.0	-6.6875	-45.0	17.875	1.8815161	-0.25482035	0.3851036
1277483162328	0.10896278	9.997335	5.09401	1.4142017	0.0	-6.6875	-45.0	17.375	2.9708645	0.47122386	-0.01089875
1277483162370	4.8216033	12.026767	1.7978859	3.274763	0.0	-7.9375	-45.25	15.875	-2.7334712	0.13787462	-0.3812872
1277483162407	7.7772183	8.771504	1.0760075	1.9654446	0.0	-7.9375	-45.5	12.875	-2.1658971	0.091530986	-0.72538793
1277483162447	2.8330324	6.8237944	-0.9125633	-2.3619866	0.0	-7.1875	-46.0	9.3125	-1.8950088	-0.122888595	-0.3935149
1277483162487	1.2258313	5.829509	-1.1849703	-3.7329369	0.0	-6.9375	-46.5	5.5625	-0.6442151	-0.19635753	-0.20726071
1277483162517	3.568531	7.1234417	1.3075534	-1.7327709	0.0	-5.6875	-47.0	2.3125	-2.1075368	0.16266501	-0.46441215
1277483162547	4.7535014	7.014479	0.88532263	-1.2871141	0.0	-3.625	-47.25	-0.6875	-1.7224444	0.104104705	-0.5955816
1277483162577	3.9090397	7.8589406	-2.9147544	-0.55790234	0.0	-1.625	-47.0	-2.6875	-0.8818338	-0.320616	-0.46156573
1277483162607	5.8567495	8.921328	0.61291564	0.8829365	0.0	0.875	-47.25	-4.1875	-1.4980361	0.057369098	-0.5809231
1277483162647	7.9679036	9.915613	0.7627395	2.93653	0.0	3.125	-46.75	-5.4375	-1.4651473	0.059890512	-0.6769149
1277483162687	7.7363577	12.067628	1.1168685	4.571328	0.0	4.625	-46.25	-5.6875	-1.4726983	0.07775744	-0.57008153
1277483162727	6.5513873	14.246883	-2.7921712	6.1210175	0.0	6.1875	-45.75	-5.6875	-1.1050452	-0.17621374	-0.4310125
1277483162767	7.6954966	11.032481	-3.214402	4.023342	0.0	6.6875	-45.5	-4.6875	-1.1974975	-0.23456769	-0.60906696
1277483162807	4.7943625	10.378705	0.42223078	1.6337042	0.0	6.1875	-45.5	-2.9375	-1.5098635	0.036915526	-0.4327406
1277483162867	0.84446156	18.918663	-2.3426998	9.275204	0.0	4.625	-46.25	0.5625	-0.9199746	-0.1230816	-0.04460682
1277483162907	1.9885708	12.489859	-0.10896278	2.840992	0.0	1.875	-47.0	5.5625	-2.080428	-0.008615371	-0.15788959
1277483162947	2.5333846	5.407278	1.5390993	-3.6401668	0.0	-0.625	-46.75	10.5625	-2.3958578	0.25225797	-0.43814293
1277483162987	4.671779	4.3312707	2.3018389	-3.0328856	0.0	-2.625	-47.25	15.625	-2.2450485	0.34672207	-0.8232016
1277483163017	1.879608	2.9556155	1.7978859	-5.869521	0.0	-3.875	-47.0	19.125	-2.594944	0.4742248	-0.566431
1277483163047	-1.8387469	1.6480621	1.6889231	-6.8150687	0.0	-4.125	-46.75	20.875	2.2932522	0.5998984	0.84003127
1277483163087	-3.173541	1.3075534	1.56634	-6.0337896	0.0	-4.625	-47.25	21.375	2.076109	0.4281184	1.1799735
1277483163127	-1.3756552	4.140586	-2.0294318	-4.994637	0.0	-5.6875	-47.25	19.625	1.5530409	-0.43536657	0.32076338
1277483163167	10.038197	17.502148	-16.739407	16.409723	0.0	-6.1875	-48.0	16.625	-0.86566573	-0.6925602	-0.520737
1277483163207	5.597963	12.4489975	-11.917805	8.313747	0.0	-6.9375	-48.75	15.125	-0.6060014	-0.71776277	-0.42258096
1277483163247	0.6946377	12.408136	-4.2495484	3.3273916	0.0	-7.1875	-49.0	15.375	1.262872	-0.32948124	-0.055924065
1277483163287	-1.7297841	2.9147544	5.6660647	-3.2042084	0.0	-7.4375	-49.0	17.375	2.497554	1.0317081	0.53559524
1277483163327	-5.434519	5.053149	0.7627395	-2.3467517	0.0	-8.1875	-48.75	19.625	2.0661895	0.10242429	0.8217458
1277483163367	6.66035	17.66559	2.7921712	9.278151	0.0	-8.6875	-48.5	19.625	-2.8148534	0.14683042	-0.36054388
1277483163407	6.0201936	7.668256	-0.6537767	-0.035657883	0.0	-9.6875	-49.25	17.875	-2.1480176	-0.066959985	-0.6655769
1277483163447	2.4925237	6.469665	1.1849703	-2.7729173	0.0	-9.9375	-50.0	13.875	-2.7670727	0.1692769	-0.36773804
1277483163487	3.718355	6.510526	0.313268	-2.302568	0.0	-9.4375	-50.75	9.3125	-2.159756	0.04175848	-0.5189208
1277483163517	1.4573772	5.9793324	-0.38136974	-3.6404676	0.0	-8.1875	-51.25	4.5625	-1.8840035	-0.0618881	-0.23907429
1277483163547	2.2609777	7.3549876	1.1849703	-2.021278	0.0	-6.1875	-51.0	-0.1875	-2.2623863	0.1527986	-0.29823866
1277483163587	3.8273177	7.3141265	0.7218784	-1.5201597	0.0	-4.125	-51.25	-2.9375	-1.6302128	0.08722566	-0.48209572
1277483163627	3.1054392	8.853226	-1.2666923	-0.33945084	0.0	-1.625	-50.5	-4.9375	-0.9292143	-0.13420044	-0.33735994
1277483163667	10.18802	9.656827	0.6946377	4.247978	0.0	1.375	-50.5	-5.6875	-1.4644672	0.049444266	-0.81215906
1277483163707	8.689782	11.114203	0.040861044	4.301486	0.0	3.875	-50.5	-5.9375	-1.4017708	0.002896279	-0.6635834
1277483163747	7.9270425	15.023244	-0.8036005	7.1986923	0.0	5.9375	-50.25	-6.4375	-1.2860953	-0.04727337	-0.48552358
1277483163777	7.5865335	13.988097	-2.5606253	6.311016	0.0	6.6875	-50.75	-5.6875	-1.1855217	-0.15954675	-0.49695584
1277483163817	3.9090397	12.14935	-2.4516625	3.1894245	0.0	5.1875	-51.0	-3.6875	-1.025211	-0.1897836	-0.31128857
1277483163857	1.9885708	15.132206	5.325556	6.3581142	0.0	2.875	-51.25	-0.1875	-2.616341	0.33572587	-0.13066441
1277483163897	3.5957718	15.935807	-3.445948	6.8892784	0.0	0.625	-51.5	4.8125	-1.1302621	-0.2078887	-0.22192448
1277483163937	2.5333846	11.727119	0.88532263	2.22361	0.0	-1.875	-51.0	10.3125	-2.5729053	0.0736579	-0.2127584
1277483163970	2.3699405	5.706926	2.1792557	-3.2541866	0.0	-3.375	-49.75	15.375	-2.6554942	0.33904403	-0.39360428
1277483164007	3.486809	4.099725	1.879608	-4.105904	0.0	-3.625	-48.5	18.875	-2.391761	0.33599916	-0.70478326
1277483164037	1.4982382	3.5957718	1.879608	-5.481466	0.0	-4.125	-47.25	21.875	-2.7915175	0.44956404	-0.3947911
1277483164077	-1.4982382	1.9885708	2.3018389	-6.41584	0.0	-4.125	-46.75	23.375	2.4855614	0.7461902	0.64568925
1277483164137	-3.486809	1.607201	0.95342433	-5.8506484	0.0	-4.875	-47.0	23.625	2.1074026	0.24340335	1.1388841
1277483164177	3.568531	11.958665	-10.95076	6.7964573	0.0	-6.1875	-47.75	21.625	-0.4730916	-0.7202344	-0.2899933
1277483164217	9.997335	17.692831	-16.739407	16.521866	0.0	-6.6875	-48.75	19.125	-0.9032633	-0.6890316	-0.5143245
1277483164258	1.2666923	4.140586	-7.04172	-1.540165	0.0	-7.4375	-49.0	18.125	-0.22015396	-1.0194875	-0.29688004
1277483164297	1.879608	8.62168	-0.6946377	-0.955163	0.0	-6.9375	-49.25	17.875	-2.881108	-0.07855773	-0.21465088
1277483164337	-3.405087	9.656827	0.313268	0.43771744	0.0	-6.6875	-49.25	19.625	2.3168945	0.030584304	0.33899745
1277483164377	0.3405087	11.727119	2.3699405	2.1623888	0.0	-6.9375	-48.75	20.875	2.9605258	0.19932313	-0.02902785
1277483164417	3.336985	10.528529	3.214402	1.6962967	0.0	-7.1875	-49.25	19.875	-2.9016063	0.2832125	-0.30693102
1277483164458	5.407278	10.61025	-0.040861044	2.1020746	0.0	-7.6875	-49.75	17.125	-2.393501	-0.0034311921	-0.4713201
1277483164497	4.3312707	8.19945	0.46309182	-0.5219679	0.0	-7.6875	-50.5	13.625	-2.3325517	0.04989767	-0.48598292
1277483164527	1.7978859	6.238119	-0.38136974	-3.3034225	0.0	-7.4375	-51.5	9.0625	-2.273313	-0.05867681	-0.2806051
1277483164557	1.7570249	6.0474343	-0.10896278	-3.5082006	0.0	-6.1875	-52.0	4.5625	-1.97537	-0.0173008	-0.28275597
1277483164597	3.486809	7.164303	2.1792557	-1.5462484	0.0	-4.625	-52.25	1.8125	-2.2360594	0.26697993	-0.45294464
1277483164637	4.372132	7.7363577	-1.7297841	-0.75353336	0.0	-2.625	-52.25	-0.4375	-1.190331	-0.19225268	-0.5143933
1277483164677	6.0201936	8.662541	0.53119355	0.7557602	0.0	-0.125	-51.5	-2.1875	-1.5689412	0.050312165	-0.6073412
1277483164717	7.668256	9.615966	-0.23154591	2.4946737	0.0	2.875	-51.5	-3.1875	-1.4574473	-0.018823957	-0.6731844
1277483164757	7.3958488	10.419566	1.6480621	3.0767517	0.0	5.4375	-51.25	-3.9375	-1.6012388	0.12827282	-0.61727554
1277483164797	7.3958488	14.818938	-2.6014864	6.9584103	0.0	6.4375	-51.0	-4.4375	-1.2022836	-0.15580268	-0.46291202
1277483164837	7.6273947	12.721405	-2.3426998	5.2099924	0.0	6.6875	-51.5	-3.6875	-1.2699379	-0.15664676	-0.5401045
1277483164877	4.9850473	10.038197	-0.0	1.4012079	0.0	5.6875	-51.5	-1.1875	-1.5284113	-0.0	-0.4609302
1277483164917	1.1849703	15.826844	4.0588636	6.5752773	0.0	3.625	-51.75	1.8125	-2.664706	0.25037235	-0.074731484
1277483164957	1.2666923	18.237646	-2.3018389	8.619274	0.0	1.625	-51.75	6.5625	-1.5853689	-0.12525116	-0.06934345
1277483164997	3.1463003	11.686258	-0.38136974	2.3017473	0.0	-0.625	-51.75	11.8125	-2.243043	-0.03150151	-0.26299474
1277483165027	2.5606253	6.0201936	2.070293	-2.9447522	0.0	-2.625	-51.0	16.875	-2.6203694	0.30648413	-0.40215805
1277483165057	3.6774938	4.399372	1.9885708	-3.7376428	0.0	-3.375	-50.25	21.375	-2.4178243	0.33382574	-0.69625896
1277483165097	2.6014864	3.2961242	1.8387469	-5.222639	0.0	-3.625	-49.0	24.125	-2.5202577	0.41274118	-0.66815543
1277483165137	-1.7978859	1.2258313	1.9885708	-6.858859	0.0	-3.625	-48.25	25.875	2.272442	0.7404186	0.9723774
1277483165177	-2.5606253	1.0760075	1.4982382	-6.650812	0.0	-4.375	-48.25	25.625	2.1394782	0.4946815	1.1729875
1277483165217	-0.46309182	4.903325	-2.1792557	-4.420909	0.0	-4.875	-48.75	23.375	1.7718008	-0.4165789	0.09416513
1277483165257	10.228881	17.311462	-17.270601	16.699772	0.0	-5.1875	-50.25	20.625	-0.9763494	-0.7096429	-0.53368163
1277483165297	5.243834	10.882658	-11.372991	6.7847614	0.0	-5.1875	-51.25	18.375	-0.7255757	-0.7552553	-0.44902432
1277483165337	-0.61291564	5.829509	-4.372132	-2.4940329	0.0	-4.375	-51.5	17.625	0.54057246	-0.6408647	0.10475532
1277483165377	-0.19068487	10.528529	-1.2666923	0.79951763	0.0	-3.875	-51.5	19.125	2.7835479	-0.11971553	0.018109275
1277483165417	-3.8273177	8.471856	0.9942854	-0.4573555	0.0	-4.125	-50.75	21.375	2.3826182	0.1065502	0.42432365
1277483165457	0.42223078	10.882658	2.982856	1.4852915	0.0	-4.375	-50.5	22.125	3.0721686	0.26733074	-0.038779046
1277483165497	6.510526	12.598822	0.88532263	4.4025383	0.0	-4.875	-51.25	21.125	-2.4681475	0.062346734	-0.47696298
1277483165527	5.7886477	8.158588	0.9942854	0.24619007	0.0	-5.6875	-52.0	17.875	-2.2904527	0.09906789	-0.6170839
1277483165557	3.445948	7.43671	0.38136974	-1.60149	0.0	-5.6875	-53.25	13.625	-2.318246	0.046496008	-0.43391657
1277483165597	2.0294318	6.701211	-1.2258313	-2.6983814	0.0	-5.4375	-53.75	9.0625	-1.5499387	-0.17331788	-0.29406533
1277483165637	1.9885708	6.4424243	1.1441092	-2.9679198	0.0	-4.625	-54.0	5.0625	-2.4483752	0.16808891	-0.29939008
1277483165678	3.9090397	7.0553403	0.88532263	-1.6923285	0.0	-3.125	-53.75	2.3125	-1.885649	0.10932382	-0.5059504
1277483165717	3.173541	8.730643	-1.2258313	-0.43658352	0.0	-0.625	-53.5	0.0625	-1.2164743	-0.13120025	-0.34864575
1277483165757	8.430995	9.00305	1.3075534	2.5968285	0.0	2.875	-53.5	-1.6875	-1.6284388	0.10561452	-0.7525974
1277483165797	7.5865335	10.228881	0.38136974	2.934266	0.0	5.6875	-53.5	-2.9375	-1.5227703	0.02993715	-0.63815355
1277483165837	8.471856	13.443283	0.19068487	6.0845604	0.0	7.4375	-53.5	-3.9375	-1.472263	0.01199968	-0.5623245
1277483165877	7.4639506	15.173067	-2.1383946	7.237564	0.0	8.4375	-53.5	-3.9375	-1.276219	-0.1257931	-0.45716357
1277483165917	6.973618	10.419566	-2.1792557	2.9192238	0.0	7.9375	-53.5	-2.1875	-1.3277708	-0.17209429	-0.5898103
1277483165947	1.8387469	11.34575	0.8036005	1.7151899	0.0	6.4375	-53.75	1.5625	-1.9047124	0.069802515	-0.1606679
1277483165977	1.920469	14.9006605	4.903325	5.997162	0.0	4.375	-54.25	5.5625	-2.6644757	0.31546882	-0.12817821
1277483166017	3.214402	16.548723	-2.1792557	7.191637	0.0	2.375	-54.75	9.8125	-1.794027	-0.12855826	-0.19184972
1277483166047	2.7240696	11.917805	0.23154591	2.4207058	0.0	-0.125	-54.5	14.375	-2.4780986	0.018937845	-0.22471116
1277483166087	1.7978859	7.205164	2.070293	-2.0973768	0.0	-1.625	-54.5	17.625	-2.7860017	0.27188304	-0.24453382
1277483166127	3.8681788	4.440233	1.3756552	-3.759262	0.0	-2.125	-53.5	21.125	-2.3016152	0.22948825	-0.71665424
1277483166167	1.9885708	2.9556155	1.6889231	-5.8642473	0.0	-2.875	-52.25	23.875	-2.5610826	0.4427207	-0.5922443
1277483166207	-2.3018389	1.334794	1.9885708	-6.4848204	0.0	-3.375	-52.0	25.375	2.2030432	0.64179873	1.0453011
1277483166247	-2.9556155	1.8387469	0.42223078	-6.300237	0.0	-3.625	-50.75	25.125	2.124116	0.12070966	1.0142708
1277483166287	2.3426998	6.510526	-5.243834	-1.1248884	0.0	-4.125	-51.25	22.625	-0.84561515	-0.6485178	-0.34540743
1277483166327	10.228881	18.34661	-16.930092	17.172157	0.0	-4.625	-52.25	20.375	-0.98543966	-0.6783806	-0.50861
1277483166367	5.7886477	9.425281	-9.534244	4.7963	0.0	-4.375	-52.75	18.875	-0.9648418	-0.7114048	-0.5507676
1277483166407	1.1441092	8.662541	-5.202973	0.3628893	0.0	-3.875	-53.5	18.375	-0.26607585	-0.53707296	-0.13131544
1277483166447	-1.9477097	9.888372	-0.0	0.27171707	0.0	-3.875	-53.5	20.625	2.5405746	-0.0	0.1944801
1277483166477	-5.012288	6.742072	-0.0	-1.4055452	0.0	-3.875	-53.5	21.875	2.1290226	-0.0	0.6392858
1277483166517	2.7921712	12.680544	6.0474343	4.5168924	0.0	-4.625	-53.25	22.125	-2.9796078	0.4358735	-0.21673472
1277483166557	6.0474343	14.056199	-1.2666923	5.5475903	0.0	-5.4375	-53.25	21.375	-2.3875513	-0.08259175	-0.4062943
1277483166597	4.5628166	7.9679036	1.3756552	-0.5222969	0.0	-6.4375	-54.25	17.875	-2.4367652	0.14871679	-0.5200661
1277483166638	2.2201166	7.3141265	0.50395286	-2.1464067	0.0	-6.4375	-54.5	14.375	-2.6462474	0.06583565	-0.29469967
1277483166697	2.3699405	6.1700177	1.4165162	-3.0470452	0.0	-5.9375	-55.5	9.3125	-2.5285208	0.21112092	-0.36672997
1277483166737	3.8681788	7.205164	0.9942854	-1.5685797	0.0	-4.375	-56.75	5.0625	-2.0280101	0.12098893	-0.49270055
1277483166777	3.486809	8.049625	-2.982856	-0.541029	0.0	-1.125	-56.5	1.5625	-0.9489624	-0.32776442	-0.40876538
1277483166817	8.62168	9.234595	1.7297841	2.9449482	0.0	2.375	-56.5	-1.9375	-1.6565249	0.13607185	-0.7510867
1277483166857	8.049625	10.147159	-0.29964766	3.149085	0.0	6.1875	-56.0	-3.4375	-1.4612175	-0.023130633	-0.6706352
1277483166897	7.8861814	13.443283	-0.6946377	5.794512	0.0	8.9375	-55.0	-4.6875	-1.3873436	-0.04453947	-0.5305277
1277483166937	7.0553403	14.137921	-2.3699405	6.170686	0.0	10.4375	-55.25	-3.9375	-1.2703898	-0.14888078	-0.46287662
1277483166977	7.6273947	10.038197	-1.9477097	2.9501562	0.0	9.6875	-55.75	-1.6875	-1.3905853	-0.15327954	-0.6497672
1277483167007	2.982856	12.9529505	3.1054392	3.8432627	0.0	8.1875	-56.5	2.3125	-2.1782527	0.2295159	-0.22633801
1277483167037	1.56634	17.011814	3.2961242	7.5921917	0.0	5.9375	-57.0	6.8125	-2.5705752	0.19059691	-0.091814786
1277483167077	3.486809	17.502148	-3.0237172	8.293787	0.0	3.375	-57.0	11.5625	-1.7200053	-0.16783907	-0.19664715
1277483167107	2.8330324	10.501288	1.1441092	1.1300821	0.0	1.125	-56.25	16.875	-2.5298405	0.10480337	-0.26350632
1277483167148	1.9885708	6.469665	2.2201166	-2.683456	0.0	-0.625	-55.25	20.625	-2.733025	0.3169546	-0.29820305
1277483167187	3.568531	4.6036777	1.9885708	-3.6517596	0.0	-1.625	-54.25	24.125	-2.429358	0.3289906	-0.65940243
1277483167228	1.334794	2.7240696	1.9477097	-6.201681	0.0	-2.875	-53.0	26.125	-2.7366264	0.57077533	-0.45561564
1277483167267	-2.2201166	0.61291564	2.070293	-6.7097654	0.0	-3.625	-52.5	27.125	2.0557902	0.73220104	1.3014323
1277483167307	-3.2961242	2.070293	0.84446156	-5.8237286	0.0	-4.875	-52.5	25.875	2.1434104	0.21364215	1.0099715
1277483167347	2.5333846	10.079058	-8.076866	3.355462	0.0	-6.4375	-54.0	22.875	-0.43127662	-0.6606689	-0.24625011
1277483167387	10.651112	18.850561	-18.074202	18.397366	0.0	-6.6875	-55.25	21.125	-0.9066679	-0.6955892	-0.51430845
1277483167427	4.4810944	4.0588636	-7.1234417	-0.46331024	0.0	-6.4375	-56.0	19.625	-1.0856798	-0.867027	-0.8347997
1277483167467	2.3699405	8.19945	-3.405087	-0.6174059	0.0	-5.6875	-56.75	20.375	-1.3918003	-0.37960255	-0.2813685
1277483167507	-3.8273177	10.038197	2.1792557	1.1552343	0.0	-5.9375	-56.25	22.375	2.4664311	0.20013641	0.36426103
1277483167547	-2.5606253	10.991621	-0.0	1.4792938	0.0	-6.6875	-56.0	23.375	2.453466	-0.0	0.22887933
1277483167577	3.2961242	12.108489	4.862464	3.6515627	0.0	-7.9375	-56.25	22.375	-2.9706757	0.36966264	-0.2657761
1277483167617	5.407278	10.691973	-0.88532263	2.2075396	0.0	-8.6875	-56.25	20.125	-2.3102312	-0.073756605	-0.46822307
1277483167657	6.2108784	7.9270425	1.7570249	0.41588116	0.0	-8.4375	-56.75	16.375	-2.287424	0.1727354	-0.66460186
1277483167697	2.3018389	6.1700177	0.19068487	-3.2184834	0.0	-7.6875	-57.25	11.8125	-2.3801727	0.028947582	-0.3570762
1277483167737	1.7297841	5.829509	1.0760075	-3.6314483	0.0	-5.9375	-57.75	7.0625	-2.5755343	0.17514054	-0.28845316
1277483167777	3.5957718	7.5865335	1.6480621	-1.2508812	0.0	-4.625	-57.75	2.0625	-2.1156683	0.1938374	-0.4426057
1277483167817	3.1463003	8.19945	-1.879608	-0.82538605	0.0	-1.875	-57.75	-1.1875	-0.9842609	-0.21083963	-0.36639437
1277483167857	8.117727	9.084772	1.1441092	2.4301615	0.0	1.125	-57.25	-3.9375	-1.570824	0.0936341	-0.7292419
1277483167897	8.921328	9.915613	-0.42223078	3.5383024	0.0	3.875	-56.5	-4.9375	-1.4199512	-0.03164502	-0.7326633
1277483167937	8.853226	11.958665	0.42223078	5.078495	0.0	6.4375	-56.75	-4.6875	-1.481145	0.028369723	-0.63727635
1277483167967	6.932757	14.750836	-2.3426998	6.6596355	0.0	7.1875	-56.5	-3.9375	-1.2326822	-0.1427569	-0.43935332
1277483167997	6.973618	12.299174	-2.1792557	4.49895	0.0	6.9375	-57.25	-2.1875	-1.3077989	-0.15293129	-0.5158004
1277483168027	4.4810944	10.732834	-1.1168685	1.8775835	0.0	5.6875	-57.75	1.3125	-1.4414037	-0.09573382	-0.39551178
1277483168067	2.6014864	14.246883	4.7535014	5.4359617	0.0	3.875	-57.5	4.8125	-2.5702307	0.3171459	-0.18061058
1277483168107	3.405087	18.46919	-2.8330324	9.186287	0.0	1.875	-57.75	9.8125	-1.6745329	-0.14972116	-0.18231848
1277483168147	2.8738933	12.067628	0.23154591	2.600627	0.0	-0.625	-57.25	15.375	-2.4848003	0.01866319	-0.23379403
1277483168187	1.879608	6.0474343	1.8387469	-3.212306	0.0	-2.625	-56.5	20.375	-2.7529113	0.28258282	-0.30134526
1277483168227	3.568531	3.5957718	1.920469	-4.388884	0.0	-3.875	-55.5	25.125	-2.3840141	0.3623538	-0.7815959
1277483168267	1.1849703	1.920469	1.8387469	-6.895749	0.0	-4.875	-54.25	27.875	-2.7066994	0.68371344	-0.5528412
1277483168307	-2.6423476	0.84446156	2.0294318	-6.369542	0.0	-4.625	-53.0	28.875	2.09828	0.63161325	1.2614675
1277483168347	-2.6014864	1.920469	0.50395286	-6.534052	0.0	-4.875	-53.0	28.125	2.18385	0.15460686	0.93487716
1277483168387	3.8273177	10.800936	-9.343558	4.978837	0.0	-5.1875	-53.75	25.375	-0.7709837	-0.6840554	-0.34054536
1277483168427	10.528529	17.924377	-17.66559	17.473495	0.0	-4.875	-54.75	23.125	-1.016982	-0.7043809	-0.5310929
1277483168467	2.2609777	3.486809	-6.2108784	-2.3337078	0.0	-4.875	-55.25	22.375	-0.74265903	-0.9811106	-0.575276
1277483168497	0.7627395	7.6273947	-1.3756552	-2.0187526	0.0	-3.875	-55.25	22.625	-3.0108938	-0.17757185	-0.09966865
1277483168527	-3.8681788	10.61025	1.7570249	1.6225824	0.0	-3.875	-54.75	24.625	2.5315304	0.15434283	0.34959534
1277483168557	0.53119355	14.137921	-2.0294318	4.48606	0.0	-4.625	-54.5	26.375	3.00215	-0.1424722	-0.03755459
1277483168597	0.14982383	9.575105	3.1463003	0.27324486	0.0	-5.9375	-54.75	26.125	3.0210388	0.31744075	-0.015645951
1277483168637	3.7864566	11.372991	2.3699405	2.412138	0.0	-7.4375	-54.75	24.375	-2.8526645	0.19519591	-0.3213912
1277483168677	6.469665	9.956474	0.9942854	2.1087408	0.0	-7.9375	-55.75	21.375	-2.3935459	0.083542615	-0.57623094
1277483168717	3.2961242	7.205164	0.040861044	-1.8832359	0.0	-7.9375	-56.75	16.625	-2.371744	0.0051570223	-0.42904606
1277483168757	1.1168685	5.7477865	-0.42223078	-3.9361544	0.0	-7.1875	-57.75	11.8125	-2.6615655	-0.07198638	-0.19192117
1277483168797	3.255263	6.782933	2.0294318	-2.0141206	0.0	-6.4375	-58.75	7.5625	-2.4093652	0.26347068	-0.4474547
1277483168837	3.759216	7.273266	-0.88532263	-1.5716095	0.0	-4.875	-58.75	4.0625	-1.4909215	-0.10771495	-0.4770397
1277483168877	4.8216033	8.853226	0.92618364	0.31685162	0.0	-1.875	-58.5	1.3125	-1.7980429	0.09161658	-0.49869978
1277483168917	9.302697	9.724928	-0.53119355	3.661704	0.0	1.625	-58.25	0.0625	-1.533328	-0.039450355	-0.76321137
1277483168958	8.390134	10.732834	0.3405087	3.8206758	0.0	4.625	-58.0	-1.6875	-1.5551399	0.024989799	-0.6634984
1277483168997	8.539958	14.560152	-1.0351465	7.1048985	0.0	6.6875	-58.0	-1.6875	-1.4422237	-0.06124773	-0.5304558
1277483169027	7.246025	13.947236	-2.1383946	6.0553484	0.0	6.6875	-57.75	-0.1875	-1.3684707	-0.13522416	-0.47915024
1277483169067	4.944186	11.645397	-2.1792557	3.0311623	0.0	5.6875	-57.75	2.3125	-1.345667	-0.17057891	-0.4014991
1277483169107	1.9885708	15.745122	5.243834	6.907448	0.0	3.875	-57.5	7.3125	-2.7207806	0.3191264	-0.1256324
1277483169147	3.5276701	16.780268	-3.405087	7.6752396	0.0	1.875	-57.25	12.3125	-1.6615853	-0.19603108	-0.20720987
1277483169187	2.6423476	11.114203	0.38136974	1.623703	0.0	0.125	-56.75	18.625	-2.5668848	0.03337085	-0.23341182
1277483169247	3.5276701	3.636633	2.3018389	-4.241759	0.0	-1.875	-55.25	24.375	-2.3825788	0.42644402	-0.7701902
1277483169287	1.9885708	2.8330324	1.9477097	-5.8349934	0.0	-2.625	-53.75	28.625	-2.5953548	0.5125513	-0.6120154
1277483169327	-1.3756552	1.4573772	2.0294318	-6.954463	0.0	-2.875	-52.25	31.625	2.4710183	0.79168093	0.7565601
1277483169367	-3.1463003	1.0351465	1.5390993	-6.154314	0.0	-2.625	-51.75	31.625	2.1742308	0.43498996	1.2529469
1277483169407	-1.1441092	4.5628166	-2.3699405	-4.5393076	0.0	-2.125	-52.25	29.375	1.8139257	-0.46668804	0.24568091
1277483169447	7.9679036	17.311462	-16.548723	15.43289	0.0	-1.625	-54.0	26.625	-1.035829	-0.7150651	-0.4313595
1277483169487	7.082581	12.340035	-12.9529505	9.434408	0.0	-0.625	-55.5	24.625	-1.0820216	-0.7385186	-0.52104586
1277483169527	1.2258313	6.973618	-6.742072	-0.029659271	0.0	0.125	-55.75	24.125	-0.44726977	-0.7609167	-0.1740036
1277483169567	-0.14982383	11.073342	1.334794	1.3478575	0.0	0.875	-56.0	25.625	-3.1379433	0.11995154	0.013529311
1277483169607	-4.5219555	8.281172	-0.7218784	-0.34372234	0.0	0.625	-55.0	27.375	2.3112733	-0.07635908	0.49980754
1277483169647	2.8738933	12.217452	6.2789803	4.227273	0.0	-0.375	-54.5	27.875	-2.8978064	0.46387222	-0.23102851
1277483169687	7.3141265	11.75436	-0.9942854	4.0731926	0.0	-1.625	-55.25	27.125	-2.275187	-0.07169662	-0.5566179
1277483169727	4.4810944	7.668256	0.7218784	-0.8957882	0.0	-2.875	-56.25	23.875	-2.3924668	0.081099935	-0.52884716
1277483169768	1.8387469	6.851035	0.08172209	-2.7126842	0.0	-3.125	-57.5	19.875	-2.6166098	0.011520199	-0.2622103
1277483169808	1.7570249	5.8976107	-0.46309182	-3.6354752	0.0	-2.625	-58.5	15.125	-2.2223039	-0.07511172	-0.28954878
1277483169847	3.2961242	6.6331096	2.6832085	-1.9286942	0.0	-1.625	-58.75	10.5625	-2.420668	0.34755182	-0.4611805
1277483169887	2.6423476	8.240311	-1.9885708	-0.9275093	0.0	0.125	-59.0	7.3125	-1.2789897	-0.22587562	-0.31030256
1277483169927	6.66035	9.656827	1.1441092	1.9799337	0.0	2.875	-59.0	4.8125	-1.8257136	0.097221866	-0.60378224
1277483169967	8.281172	10.147159	-0.6537767	3.307085	0.0	5.4375	-59.0	3.3125	-1.5997149	-0.04987502	-0.68448573
1277483169997	8.19945	11.304889	2.2201166	4.3340855	0.0	7.4375	-59.0	2.8125	-1.8024259	0.15765376	-0.6275056
1277483170027	7.9679036	14.246883	-0.88532263	6.5409794	0.0	8.9375	-58.5	3.0625	-1.5853516	-0.05418253	-0.509935
1277483170067	7.7363577	13.988097	-2.1792557	6.326151	0.0	9.4375	-58.0	4.0625	-1.5099347	-0.13549651	-0.505195
1277483170107	6.3607025	10.378705	-2.8738933	2.70076	0.0	8.9375	-57.75	6.8125	-1.4755608	-0.23184675	-0.54982245
1277483170147	1.7978859	13.906375	4.903325	5.0480547	0.0	8.1875	-57.5	10.5625	-2.6429024	0.33639434	-0.12857184
1277483170187	2.6423476	17.583868	-2.1792557	8.107689	0.0	6.4375	-57.0	15.375	-2.0920875	-0.12195073	-0.1491551
1277483170227	2.7240696	11.686258	1.1168685	2.2447643	0.0	3.875	-56.75	20.875	-2.5687582	0.09280848	-0.22901087
1277483170267	2.4925237	6.0201936	2.4108016	-2.859178	0.0	2.125	-55.25	26.125	-2.638106	0.35437486	-0.39253998
1277483170307	3.255263	3.1054392	1.2258313	-5.143695	0.0	0.625	-53.25	30.125	-2.3516595	0.26601344	-0.8089484
1277483170347	0.14982383	2.5333846	1.3756552	-6.919972	0.0	-0.125	-52.0	32.625	-3.0865202	0.4967297	-0.059070986
1277483170387	-2.2609777	2.2201166	1.6480621	-6.234949	0.0	-0.375	-51.25	33.125	2.4646652	0.47959757	0.7945165
1277483170427	-3.0645783	3.0645783	0.040861044	-5.4724894	0.0	-1.125	-52.0	31.625	2.275792	0.009427811	0.7853982
1277483170467	2.7921712	9.112013	-6.742072	1.8672752	0.0	-1.625	-53.75	28.625	-1.1363271	-0.6157029	-0.2973431
1277483170508	12.217452	19.000385	-17.583868	18.819792	0.0	-1.875	-55.75	26.125	-1.2716951	-0.6614385	-0.5714462
1277483170547	7.014479	6.0201936	-8.19945	2.5495882	0.0	-1.375	-56.5	25.125	-1.421494	-0.72560453	-0.8615308
1277483170587	1.0760075	8.499097	-0.84446156	-1.1981916	0.0	-0.125	-56.25	24.875	-2.7960157	-0.09825473	-0.12593259
1277483170627	-4.7126403	11.182305	0.61291564	2.3436012	0.0	0.125	-55.75	26.375	2.5017686	0.05046611	0.39884913
1277483170667	-0.9942854	11.985906	2.070293	2.3973103	0.0	0.125	-54.5	27.125	3.0203187	0.17046545	0.08276506
1277483170707	3.3778462	11.141444	3.636633	2.3903465	0.0	-0.625	-54.75	26.625	-2.7854247	0.30276236	-0.2943703
1277483170747	6.66035	9.656827	-0.14982383	1.92523	0.0	-1.625	-55.75	24.875	-2.246003	-0.012771006	-0.6037823
1277483170787	4.2086873	7.5456724	-0.0	-1.1666145	0.0	-1.375	-56.75	21.125	-2.2448606	-0.0	-0.5087828
1277483170827	1.334794	6.1291566	-1.3075534	-3.399004	0.0	-1.625	-58.25	16.875	-1.991474	-0.20550485	-0.21442968
1277483170867	2.4108016	6.782933	0.6537767	-2.578402	0.0	-1.125	-58.75	12.3125	-2.319679	0.09057124	-0.34149668
1277483170907	3.759216	6.851035	1.1168685	-1.9126153	0.0	-0.125	-59.0	9.0625	-2.0937319	0.1419589	-0.50185055
1277483170947	4.2086873	8.308413	-1.1441092	-0.42306042	0.0	1.125	-59.5	6.8125	-1.5834155	-0.12223074	-0.4688797
1277483170987	8.580819	9.466142	1.334794	3.03936	0.0	4.125	-59.25	5.0625	-1.7847139	0.10409517	-0.7363809
1277483171028	7.5456724	10.378705	0.14982383	3.0260086	0.0	6.4375	-59.25	4.5625	-1.6969073	0.011675463	-0.6286402
1277483171067	8.240311	12.980191	-0.50395286	5.5765247	0.0	8.1875	-59.5	4.3125	-1.6430465	-0.032765865	-0.5656421
1277483171107	7.8589406	13.947236	-2.5606253	6.4058495	0.0	8.9375	-58.75	5.0625	-1.5055796	-0.15860556	-0.51313096
1277483171147	5.407278	10.991621	-2.7921712	2.7572107	0.0	8.1875	-58.5	7.8125	-1.4732647	-0.2241096	-0.45718324
1277483171187	2.4108016	13.715691	5.47538	5.157036	0.0	6.9375	-57.5	11.8125	-2.648992	0.37461168	-0.17399232
1277483171227	3.759216	16.821129	-2.8738933	7.66737	0.0	5.4375	-56.5	16.625	-1.9742286	-0.16521725	-0.21986893
1277483171267	1.8387469	12.299174	0.46309182	2.6378317	0.0	3.875	-55.25	21.875	-2.6757483	0.03722122	-0.14840253
1277483171307	2.5333846	6.851035	1.920469	-2.2539735	0.0	2.875	-53.5	26.125	-2.629102	0.25709966	-0.35418755
1277483171347	3.8273177	4.0180025	1.4573772	-4.0693464	0.0	2.625	-52.5	29.875	-2.3559403	0.25683203	-0.7610974
1277483171387	1.7570249	1.7297841	2.070293	-6.587116	0.0	2.625	-51.0	32.625	-2.4571214	0.6984626	-0.79321057
1277483171427	-1.56634	1.1849703	2.3426998	-6.7495575	0.0	2.875	-50.75	33.375	2.44872	0.87308747	0.9231343
1277483171457	-2.9556155	2.3699405	0.92618364	-5.9066377	0.0	2.875	-51.25	32.875	2.3804142	0.2397731	0.89493245
1277483171497	0.42223078	7.3141265	-4.5628166	-1.1756582	0.0	2.125	-52.0	29.875	-1.1947972	-0.5570152	-0.057664122
1277483171527	8.430995	18.087822	-17.079916	16.460714	0.0	1.375	-53.5	26.625	-1.1412345	-0.7078915	-0.4361736
1277483171558	7.5865335	13.715691	-13.484144	10.8693695	0.0	1.625	-54.25	24.625	-1.168473	-0.7104348	-0.50524163
1277483171597	2.5606253	4.8216033	-5.8567495	-1.8000174	0.0	2.125	-54.25	23.875	-0.98725414	-0.82050055	-0.4881962
1277483171637	0.5720546	11.114203	-1.6480621	1.4436331	0.0	3.375	-54.0	24.875	-2.789558	-0.14701979	-0.05142521
1277483171677	-5.09401	10.923519	-0.29964766	2.2499666	0.0	3.875	-53.0	25.875	2.4874337	-0.024855938	0.43635407
1277483171718	0.10896278	10.691973	4.5628166	1.8187294	0.0	3.375	-52.5	26.625	-3.0550773	0.4033346	-0.01019073
1277483171757	5.175732	12.026767	2.5333846	3.5293674	0.0	2.125	-53.0	25.625	-2.5521457	0.19112709	-0.40639433
1277483171817	4.7126403	7.8180795	0.61291564	-0.65749645	0.0	0.375	-53.5	23.625	-2.332155	0.06704172	-0.5424666
1277483171857	2.3018389	6.4424243	-0.46309182	-2.9497013	0.0	-0.125	-54.75	19.875	-2.2997193	-0.06758758	-0.3431579
1277483171897	1.7570249	6.4015636	0.040861044	-3.1682148	0.0	0.125	-56.0	15.625	-2.3890085	0.006155261	-0.26787162
1277483171937	3.8273177	6.8237944	2.3426998	-1.639596	0.0	0.875	-56.5	12.3125	-2.3083692	0.2909345	-0.5111566
1277483171967	4.0588636	8.049625	-1.8387469	-0.6060076	0.0	2.625	-57.0	9.3125	-1.5418577	-0.20120467	-0.467026
1277483171997	5.434519	8.962189	0.46309182	0.68474007	0.0	4.125	-56.75	7.8125	-1.8613266	0.044154525	-0.5450997
1277483172027	8.812365	10.038197	-0.38136974	3.556306	0.0	6.1875	-55.75	6.8125	-1.708243	-0.028543202	-0.72046065
1277483172067	8.430995	9.575105	0.08172209	2.9515238	0.0	8.1875	-55.25	6.0625	-1.7172745	0.006405513	-0.7219434
1277483172107	9.043911	13.484144	-0.14982383	6.43025	0.0	9.4375	-55.0	5.5625	-1.7048651	-0.0092274975	-0.59079456
1277483172147	7.8861814	14.47843	-2.5333846	6.873722	0.0	10.1875	-54.75	6.8125	-1.5756694	-0.15246822	-0.4987533
1277483172187	6.1700177	10.991621	-2.6832085	3.0807266	0.0	9.9375	-54.75	8.3125	-1.5483252	-0.20973876	-0.5115065
1277483172217	1.7297841	12.912089	5.09401	4.1813145	0.0	8.9375	-54.75	11.3125	-2.6464388	0.3727424	-0.13317333
1277483172257	1.7570249	16.970953	0.92618364	7.280134	0.0	7.4375	-53.75	14.875	-2.5108252	0.054231256	-0.10316376
1277483172302	2.6014864	15.023244	-1.0351465	5.475271	0.0	6.1875	-53.25	18.625	-2.3534572	-0.06778858	-0.17146376
1277483172379	1.7297841	5.9793324	2.2201166	-3.1980586	0.0	4.125	-52.25	23.125	-2.691546	0.3426073	-0.28160593
1277483172417	2.3018389	2.8738933	1.56634	-5.8052573	0.0	3.375	-50.75	25.875	-2.4128184	0.40220538	-0.67531866
1277483172447	-1.1441092	1.8387469	1.6889231	-7.0603004	0.0	3.375	-49.75	28.375	2.6993082	0.6623481	0.5565993
1277483172480	-2.3426998	2.3699405	1.1168685	-6.2920723	0.0	3.125	-49.0	28.625	2.449939	0.32338902	0.77961785
1277483172517	-1.9885708	3.6774938	-1.0760075	-5.4896874	0.0	3.125	-49.25	27.125	2.201567	-0.2519068	0.4957066
1277483172547	6.510526	12.340035	-11.454713	8.245327	0.0	2.875	-50.25	24.625	-1.2610749	-0.687414	-0.4854782
1277483172577	10.378705	18.8097	-17.270601	17.757748	0.0	2.375	-51.5	22.625	-1.218873	-0.6771246	-0.5042043
1277483172617	5.706926	8.812365	-9.466142	4.3296375	0.0	2.625	-52.0	21.625	-1.1896243	-0.7337162	-0.57468927
1277483172657	0.84446156	8.076866	-3.486809	-0.96885014	0.0	3.625	-52.0	21.875	-1.5535698	-0.4055602	-0.10417463
1277483172697	-3.718355	10.923519	1.4982382	1.8292494	0.0	3.875	-51.5	23.375	2.7300615	0.12911844	0.3280961
1277483172737	-1.9477097	11.141444	1.9477097	1.6702366	0.0	3.875	-51.5	24.375	2.9885285	0.1705325	0.17306775
1277483172767	2.7240696	12.14935	5.9793324	4.0056505	0.0	3.375	-51.75	24.375	-2.8175478	0.44770637	-0.22056739
1277483172808	5.9793324	12.108489	0.14982383	3.6985474	0.0	2.375	-52.25	23.375	-2.328069	0.011094018	-0.45868596
1277483172847	5.012288	8.117727	1.4982382	-0.1492567	0.0	1.875	-52.75	21.125	-2.3276153	0.15576814	-0.5531514
1277483172887	1.3075534	6.701211	0.040861044	-2.9789424	0.0	1.875	-53.0	17.625	-2.5522614	0.0059846276	-0.19270076
1277483172917	1.3756552	6.4424243	0.3405087	-3.2101965	0.0	1.625	-53.5	14.625	-2.5057373	0.051642913	-0.21037133
1277483172957	3.2961242	7.1234417	1.920469	-1.7260523	0.0	1.875	-53.75	11.3125	-2.3159611	0.23996046	-0.4333774
1277483172997	4.0180025	7.9679036	-1.3075534	-0.7876959	0.0	2.375	-54.25	9.5625	-1.668192	-0.14549112	-0.46706054
1277483173027	6.2789803	8.62168	0.95342433	0.9016638	0.0	4.125	-53.75	8.5625	-1.9059103	0.08915396	-0.6294535
1277483173057	8.962189	9.193735	-0.27240697	3.0354595	0.0	6.4375	-52.75	7.8125	-1.7406307	-0.021213602	-0.77264565
1277483173097	8.853226	9.697687	-0.29964766	3.3278284	0.0	8.6875	-52.25	7.5625	-1.7329798	-0.022815803	-0.73990834
1277483173137	8.853226	12.571581	-0.50395286	5.5776997	0.0	10.4375	-51.75	7.3125	-1.7291104	-0.032763362	-0.61355615
1277483173177	7.8589406	14.519291	-1.9477097	6.8176193	0.0	10.6875	-52.5	7.5625	-1.6490636	-0.11743032	-0.4961205
1277483173217	5.938472	10.760075	-1.6889231	2.598877	0.0	10.4375	-52.5	8.8125	-1.6621011	-0.1365669	-0.5042998
1277483173257	0.88532263	14.056199	3.5276701	4.712475	0.0	9.6875	-52.5	11.3125	-2.6383379	0.24542347	-0.06290141
1277483173297	1.9885708	18.0061	-0.42223078	8.313845	0.0	8.1875	-52.5	15.125	-2.357089	-0.023303391	-0.10999299
1277483173337	2.4925237	12.489859	-0.61291564	2.9442291	0.0	6.1875	-51.0	20.125	-2.4066494	-0.04808703	-0.19697611
1277483173377	2.982856	6.66035	2.5606253	-2.0726671	0.0	4.625	-50.25	24.375	-2.5587497	0.33745584	-0.42106682
1277483173435	3.0645783	3.336985	1.8387469	-4.917059	0.0	3.125	-49.0	27.625	-2.3958464	0.3855332	-0.7428706
1277483173478	-0.14982383	1.9885708	2.152015	-6.872706	0.0	3.125	-47.75	29.125	3.1330078	0.8234405	0.07520039
1277483173517	-2.9556155	2.1111538	1.3075534	-5.9462967	0.0	3.375	-47.25	28.375	2.3622284	0.3455491	0.95054686
1277483173547	-2.8738933	3.445948	-0.29964766	-5.3095837	0.0	3.125	-47.75	26.375	2.2708223	-0.06668121	0.6951269
1277483173577	1.879608	10.460427	-7.504812	3.203948	0.0	3.375	-49.0	23.625	-0.97223336	-0.6148341	-0.17779021
1277483173617	11.223166	19.19107	-17.692831	18.60625	0.0	2.875	-50.0	21.875	-1.2615756	-0.67219394	-0.5291769
1277483173657	3.568531	6.469665	-8.880466	1.7455654	0.0	3.125	-51.0	21.125	-0.94791734	-0.8768438	-0.50405467
1277483173697	0.7627395	8.62168	-4.7943625	0.087846756	0.0	4.125	-51.25	21.375	-0.97385144	-0.50584686	-0.0882379
1277483173737	-1.6889231	10.95076	2.0294318	1.4579048	0.0	4.375	-50.5	23.125	3.0360906	0.18114997	0.15302315
1277483173777	-3.445948	9.466142	0.6537767	0.2883892	0.0	4.375	-50.25	23.375	2.6828675	0.064807534	0.34911755
1277483173817	3.336985	12.217452	5.938472	4.1814537	0.0	3.625	-49.5	23.125	-2.756498	0.43845078	-0.26662934
1277483173858	7.1234417	11.114203	-0.46309182	3.402566	0.0	2.625	-49.75	21.875	-2.1839173	-0.03506542	-0.56997365
1277483173897	4.372132	7.205164	1.1849703	-1.2958288	0.0	1.625	-50.75	19.125	-2.3019576	0.13968483	-0.54540837
1277483173937	1.5390993	6.5513873	-0.14982383	-3.075235	0.0	1.125	-51.25	16.125	-2.435081	-0.022259243	-0.23074299
1277483173977	1.9477097	6.469665	0.88532263	-2.9924054	0.0	1.125	-52.25	13.375	-2.4557073	0.13029066	-0.29242224
1277483174017	3.990762	7.5456724	1.56634	-1.1281261	0.0	1.375	-52.25	10.8125	-2.2048106	0.18147913	-0.4864845
1277483174057	3.5276701	8.349273	-1.56634	-0.6083765	0.0	2.875	-52.25	8.8125	-1.6003041	-0.1711202	-0.39976162
1277483174097	8.240311	9.343558	0.95342433	2.6879015	0.0	5.4375	-52.25	7.3125	-1.8242195	0.07638145	-0.72273827
1277483174137	8.689782	10.147159	-0.95342433	3.5868616	0.0	7.6875	-52.0	6.0625	-1.6611013	-0.071245804	-0.70818394
1277483174177	8.62168	12.408136	0.23154591	5.3045654	0.0	9.4375	-51.75	5.8125	-1.7403063	0.015323385	-0.60725504
1277483174217	7.9270425	14.2877445	-1.9477097	6.6484776	0.0	10.1875	-51.5	6.0625	-1.6083828	-0.11864305	-0.5065318
1277483174257	6.4015636	10.882658	-1.7297841	2.937149	0.0	9.9375	-50.75	8.0625	-1.6503526	-0.13615565	-0.5317241
1277483174297	0.23154591	13.443283	2.1792557	3.8140926	0.0	8.9375	-50.5	10.5625	-2.6537588	0.16068596	-0.017222207
1277483174357	2.3699405	16.317177	-3.2961242	7.007965	0.0	7.6875	-50.0	14.375	-1.8730572	-0.19730501	-0.1442335
1277483174397	2.6423476	10.460427	1.0351465	1.0318956	0.0	5.6875	-48.5	19.375	-2.50738	0.09565182	-0.24742813
1277483174427	3.636633	5.325556	1.920469	-3.0779915	0.0	3.375	-47.75	23.375	-2.4102519	0.2894408	-0.5991328
1277483174469	3.173541	3.759216	1.6480621	-4.618281	0.0	1.875	-46.5	27.125	-2.4323692	0.32324535	-0.70111895
1277483174507	0.7627395	2.152015	2.1792557	-6.6503716	0.0	1.125	-45.5	29.125	-2.829621	0.7621124	-0.34061626
1277483174537	-1.920469	1.7570249	1.9477097	-6.555664	0.0	1.625	-45.75	29.125	2.4868562	0.64239347	0.82981336
1277483174577	-3.445948	2.4108016	1.1849703	-5.437362	0.0	2.125	-46.25	28.375	2.332414	0.27464414	0.9603357
1277483174617	-0.14982383	8.19945	-4.8216033	-0.29343414	0.0	2.125	-47.25	25.625	-0.5925528	-0.53150594	0.018270392
1277483174657	11.141444	19.082108	-17.774553	18.551653	0.0	1.625	-48.75	22.875	-1.2703769	-0.6774199	-0.52847373
1277483174697	2.8738933	7.3549876	-8.853226	2.0565157	0.0	1.875	-49.5	21.375	-0.78771627	-0.8424535	-0.37249887
1277483174737	-0.0	8.580819	-6.3198414	0.85031223	0.0	2.375	-49.5	20.875	-0.18708226	-0.63481015	0.0
1277483174777	0.6946377	10.18802	2.5606253	0.7211733	0.0	3.125	-49.25	22.375	-2.9514341	0.24568887	-0.06807646
1277483174817	-4.862464	9.043911	-0.6946377	0.48501682	0.0	3.125	-48.5	23.875	2.3713663	-0.06754651	0.49331248
1277483174857	3.8681788	12.258313	5.6660647	4.2408886	0.0	2.125	-48.0	24.375	-2.7554128	0.41517413	-0.30566615
1277483174897	8.19945	11.34575	-0.9125633	4.221528	0.0	1.375	-48.5	23.875	-2.1962292	-0.06509813	-0.6257918
1277483174937	4.944186	7.504812	0.95342433	-0.7691612	0.0	-0.125	-49.25	21.875	-2.3394072	0.10569327	-0.5825382
1277483174977	2.152015	6.701211	-0.7627395	-2.727161	0.0	-0.125	-50.25	18.625	-2.2903006	-0.10794887	-0.3107351
1277483175017	2.2201166	6.5922484	-0.7627395	-2.8089056	0.0	-0.125	-51.5	15.125	-2.1075878	-0.1092149	-0.3248465
1277483175057	3.3778462	7.43671	1.920469	-1.4160185	0.0	0.125	-52.0	11.5625	-2.366759	0.2309296	-0.4263515
1277483175087	3.718355	6.932757	-0.42223078	-1.9283533	0.0	1.875	-52.5	8.5625	-1.7979696	-0.053619858	-0.4922997
1277483175127	4.862464	8.240311	-0.23154591	-0.2358675	0.0	3.625	-53.0	7.0625	-1.7678516	-0.024195356	-0.53309536
1277483175167	8.158588	9.466142	-0.27240697	2.6931343	0.0	5.4375	-52.5	6.0625	-1.7072513	-0.021794656	-0.71134526
1277483175207	7.9679036	10.18802	0.6946377	3.145792	0.0	7.1875	-52.0	5.8125	-1.7739017	0.053655606	-0.6637217
1277483175247	8.662541	13.565866	-0.19068487	6.290203	0.0	8.9375	-51.75	5.8125	-1.720924	-0.011846374	-0.56828684
1277483175287	8.049625	13.33432	-1.6480621	5.855938	0.0	8.6875	-51.5	6.0625	-1.6254238	-0.105418	-0.54311895
1277483175327	2.7921712	12.639683	-2.070293	3.3022747	0.0	8.6875	-51.75	7.3125	-1.5471927	-0.15859404	-0.21741351
1277483175367	-0.3405087	15.704261	5.2165933	6.7448635	0.0	7.4375	-51.5	10.3125	-2.9037387	0.32063913	0.02167917
1277483175407	2.7921712	17.052675	-3.3642259	7.797554	0.0	5.1875	-51.0	14.625	-1.922155	-0.1922863	-0.16229783
1277483175447	3.2961242	10.56939	1.334794	1.3449469	0.0	3.625	-49.25	19.625	-2.514001	0.119982995	-0.30229774
1277483175477	4.6036777	5.434519	2.4108016	-2.2873545	0.0	1.875	-47.5	24.375	-2.3890877	0.32637906	-0.7028184
1277483175507	3.5957718	3.990762	1.5390993	-4.2187543	0.0	0.875	-46.5	27.125	-2.4104974	0.27904165	-0.7333805
1277483175537	1.9885708	3.0645783	1.879608	-5.6982465	0.0	0.375	-45.5	28.625	-2.6117432	0.47518533	-0.57559377
1277483175577	-0.6946377	1.9885708	2.4108016	-6.60526	0.0	0.625	-45.25	28.875	2.869275	0.85268277	0.3360645
1277483175617	-3.336985	1.607201	1.879608	-5.6531587	0.0	1.125	-45.75	27.375	2.2642608	0.4696081	1.1219503
1277483175657	-1.9885708	3.990762	-2.0294318	-4.9077535	0.0	1.375	-46.0	25.375	1.8622437	-0.42713293	0.46228147
1277483175697	8.499097	16.86199	-15.431854	14.579893	0.0	1.625	-46.75	23.125	-1.2271662	-0.68516666	-0.46687344
1277483175737	6.510526	12.108489	-12.639683	8.868574	0.0	1.875	-47.75	21.375	-1.1072844	-0.74342823	-0.49333745
1277483175777	2.3699405	5.012288	-5.7886477	-1.7911596	0.0	1.625	-48.0	21.125	-0.9350738	-0.8069525	-0.44167313
1277483175817	-1.7570249	9.112013	3.405087	0.07821369	0.0	1.875	-48.0	21.875	2.9476326	0.35167935	0.1904872
1277483175857	-3.9771416	12.830367	-1.334794	3.692152	0.0	1.875	-48.0	22.875	2.542076	-0.09904426	0.3005863
1277483175897	1.6480621	10.760075	5.053149	2.1945848	0.0	1.125	-47.5	22.875	-2.939109	0.43460533	-0.15198343
1277483175937	5.5162406	11.536434	0.14982383	2.9816513	0.0	0.875	-48.0	22.125	-2.3818169	0.011715963	-0.446022
1277483175977	5.8567495	8.008764	1.4165162	0.21574116	0.0	-0.125	-49.0	19.625	-2.2858427	0.14180999	-0.63142043
1277483176017	3.0645783	7.0553403	0.27240697	-2.1096587	0.0	-0.875	-49.75	16.375	-2.3284812	0.035398748	-0.40977433
1277483176059	1.1849703	5.829509	-0.23154591	-3.8534207	0.0	-0.875	-50.75	12.875	-2.438894	-0.03890398	-0.20053878
1277483176097	2.8738933	7.7772183	2.5606253	-1.1290245	0.0	-0.625	-50.75	9.3125	-2.505138	0.29954305	-0.35396394
1277483176137	2.9556155	8.240311	-1.9477097	-0.8382635	0.0	0.625	-51.25	6.8125	-1.3625298	-0.2189195	-0.34438446
1277483176177	6.932757	8.471856	2.1792557	1.3550978	0.0	3.125	-50.5	5.3125	-1.918158	0.19650546	-0.68581706
1277483176217	9.656827	9.888372	-1.0351465	4.0535717	0.0	5.6875	-50.75	4.0625	-1.6121687	-0.074754305	-0.773552
1277483176257	8.689782	11.876944	0.7218784	4.9275007	0.0	7.4375	-51.0	3.8125	-1.7248751	0.049013175	-0.6316542
1277483176297	8.430995	14.560152	-1.2666923	7.065939	0.0	8.9375	-50.75	4.3125	-1.6111606	-0.07514467	-0.5248695
1277483176337	6.4424243	12.340035	-1.7978859	4.2295065	0.0	8.4375	-51.25	4.8125	-1.5532894	-0.1284425	-0.48115125
1277483176377	-0.50395286	12.980191	0.42223078	3.1901808	0.0	7.4375	-51.0	8.3125	-2.641206	0.03249293	0.038805272
1277483176417	2.3699405	17.393185	2.2609777	7.8922615	0.0	5.6875	-50.5	12.3125	-2.5492525	0.12809674	-0.13542287
1277483176457	3.1463003	14.369467	-2.4925237	5.112916	0.0	3.875	-49.25	17.125	-2.1311846	-0.16785115	-0.21555556
1277483176497	2.3699405	8.812365	2.3018389	-0.3953352	0.0	1.875	-48.0	22.875	-2.7376373	0.24708866	-0.26271757
1277483176527	3.759216	4.630918	1.6889231	-3.6074915	0.0	0.375	-46.25	26.625	-2.4469688	0.27593213	-0.68187356
1277483176557	3.214402	3.3778462	1.879608	-4.77921	0.0	0.375	-45.0	28.875	-2.4637945	0.3831779	-0.7606098
1277483176597	0.38136974	1.8387469	2.5606253	-6.631239	0.0	0.375	-44.25	30.125	-2.9659102	0.9380251	-0.20450783
1277483176637	-2.4108016	1.4573772	2.0294318	-6.33469	0.0	1.125	-44.0	30.125	2.3726223	0.624289	1.0270602
1277483176677	-2.6014864	2.6423476	-0.29964766	-6.086499	0.0	1.375	-44.5	28.375	2.2742655	-0.080634534	0.77760607
1277483176717	5.134871	12.639683	-11.372991	7.95492	0.0	1.375	-45.5	25.875	-1.2174675	-0.6949076	-0.38588265
1277483176757	8.158588	16.630445	-15.854085	14.575439	0.0	1.125	-46.5	23.625	-1.1791751	-0.7078935	-0.45608443
1277483176797	1.2258313	2.7921712	-6.2789803	-2.8263583	0.0	1.625	-46.5	22.125	-0.62371624	-1.1186918	-0.41368923
1277483176837	-1.334794	10.528529	-0.5720546	0.8215599	0.0	2.625	-46.0	22.375	2.98282	-0.053850193	0.12610602
1277483176877	-2.3699405	12.721405	-1.2258313	3.1915588	0.0	3.125	-45.25	24.125	2.8836553	-0.09444806	0.1841841
1277483176927	0.7218784	10.147159	4.1814466	1.1920061	0.0	3.625	-44.75	25.125	-2.9738672	0.3899887	-0.07102129
1277483176967	6.2789803	12.830367	1.6480621	4.572502	0.0	2.875	-45.5	24.625	-2.479999	0.11486712	-0.45511904
1277483177007	6.66035	9.112013	0.95342433	1.5202227	0.0	1.375	-46.75	22.625	-2.3002417	0.084273376	-0.6311918
1277483177037	1.879608	6.6331096	-0.27240697	-2.9069924	0.0	0.375	-48.0	19.375	-2.4875326	-0.039491493	-0.27612868
1277483177077	1.0760075	5.7477865	-0.61291564	-3.9269814	0.0	-0.875	-48.75	15.875	-2.4964418	-0.10443295	-0.1850618
1277483177107	3.0237172	6.4424243	1.7570249	-2.4762459	0.0	-1.125	-49.25	13.125	-2.4396946	0.24204656	-0.43882394
1277483177147	4.099725	6.851035	1.7570249	-1.6315928	0.0	-0.375	-49.75	11.3125	-2.2475924	0.21661511	-0.53924924
1277483177187	4.2904096	8.62168	-1.3075534	-0.08807564	0.0	0.875	-49.75	9.5625	-1.7236631	-0.13495094	-0.4617501
1277483177227	7.5865335	9.997335	0.5720546	2.7563686	0.0	2.875	-50.0	7.8125	-1.856155	0.045550555	-0.6491446
1277483177267	8.580819	10.378705	-0.6946377	3.677804	0.0	5.4375	-49.75	6.5625	-1.7025707	-0.051536776	-0.6908533
1277483177307	9.234595	11.985906	0.23154591	5.3258753	0.0	6.9375	-49.0	5.5625	-1.7411839	0.015301804	-0.656464
1277483177337	7.6954966	14.410328	-2.4108016	6.706682	0.0	7.6875	-48.75	5.8125	-1.570828	-0.14651486	-0.4904968
1277483177367	6.2789803	12.639683	-2.3426998	4.499831	0.0	7.6875	-48.25	6.8125	-1.5780133	-0.16449173	-0.46105805
1277483177407	2.070293	12.721405	0.50395286	3.0919638	0.0	6.1875	-48.25	9.0625	-2.2362933	0.03908026	-0.1613266
1277483177447	1.56634	17.270601	2.9147544	7.778084	0.0	5.4375	-48.0	12.875	-2.698356	0.16652337	-0.09044656
1277483177490	2.4516625	17.120777	-2.7921712	7.7127075	0.0	4.125	-47.0	17.375	-2.3117735	-0.1600589	-0.14223115
1277483177528	2.6014864	8.812365	1.7297841	-0.45690918	0.0	2.875	-46.25	21.875	-2.6492589	0.1860808	-0.28705528
1277483177568	3.7864566	4.5628166	2.2609777	-3.460898	0.0	2.125	-44.5	25.875	-2.444543	0.36430266	-0.6926794
1277483177607	2.2609777	2.3426998	2.0294318	-5.970134	0.0	1.125	-43.25	28.125	-2.4837103	0.5573955	-0.7676486
1277483177647	-1.1168685	0.61291564	2.6423476	-6.873212	0.0	1.125	-42.5	29.375	2.288641	1.1215347	1.0688899
1277483177687	-2.5606253	1.5390993	1.607201	-6.414199	0.0	1.625	-42.25	29.625	2.3794665	0.49355322	1.0295949
1277483177727	-1.0760075	5.5162406	-3.1463003	-3.3656945	0.0	2.125	-43.25	27.625	2.0437841	-0.5103509	0.19264275
1277483177768	7.9270425	16.589584	-15.431854	14.197401	0.0	2.625	-44.75	24.875	-1.2930138	-0.69825935	-0.44575685
1277483177807	4.862464	10.310603	-10.95076	6.0006657	0.0	3.125	-46.0	22.625	-1.0944253	-0.76531655	-0.44066927
1277483177847	-1.3756552	8.771504	-6.469665	1.1791716	0.0	3.375	-46.75	21.875	0.37857893	-0.6297101	0.15556513
1277483177887	-2.6423476	11.223166	0.6537767	1.7418947	0.0	3.875	-46.25	22.875	2.8793745	0.05664146	0.23122597
1277483177927	-1.6889231	8.730643	1.7297841	-0.7474699	0.0	4.125	-45.5	24.625	3.0027187	0.1921224	0.19108744
1277483177967	2.4516625	11.454713	4.2495484	2.65448	0.0	3.625	-45.0	24.875	-2.8138978	0.3480063	-0.2108497
1277483178007	7.273266	12.14935	0.8036005	4.3761864	0.0	2.875	-45.25	23.625	-2.356076	0.05669043	-0.5394298
1277483178037	5.284695	8.349273	0.53119355	0.088829994	0.0	1.625	-46.75	21.625	-2.3021271	0.053706236	-0.56429774
1277483178077	1.4982382	7.014479	0.23154591	-2.6302133	0.0	1.125	-47.5	18.375	-2.6348577	0.032270346	-0.21043019
1277483178107	1.334794	6.510526	-1.0760075	-3.0741606	0.0	0.375	-48.5	15.375	-2.2152297	-0.16051146	-0.20221868
1277483178137	2.5606253	6.8237944	0.46309182	-2.5035396	0.0	0.875	-48.75	13.125	-2.2980878	0.063452795	-0.35898936
1277483178197	3.486809	7.3141265	-0.29964766	-1.6983786	0.0	1.625	-48.75	10.8125	-1.9599766	-0.036964215	-0.44485286
1277483178237	5.47538	9.234595	0.313268	0.93372536	0.0	3.125	-49.25	9.0625	-1.9238956	0.02917146	-0.5351976
1277483178277	8.499097	10.228881	-0.6537767	3.5084572	0.0	6.1875	-49.25	7.5625	-1.7318786	-0.049120124	-0.6932959
1277483178317	8.240311	11.223166	0.46309182	4.124489	0.0	7.9375	-49.0	6.8125	-1.7921381	0.033247616	-0.6333273
1277483178347	9.112013	14.056199	-0.95342433	6.9717445	0.0	9.9375	-48.75	5.8125	-1.678982	-0.056855153	-0.5751481
1277483178387	8.049625	13.375181	-1.4573772	5.871867	0.0	10.6875	-48.5	7.0625	-1.6781359	-0.09308816	-0.5417662
1277483178427	4.0588636	11.686258	-2.4516625	2.8049974	0.0	9.9375	-48.25	9.0625	-1.5970811	-0.19564237	-0.33428472
1277483178467	0.313268	15.132206	4.944186	6.1158733	0.0	8.9375	-47.75	11.5625	-2.7738376	0.31573504	-0.020699115
1277483178507	2.7240696	17.24336	-1.0351465	7.681219	0.0	7.6875	-47.25	15.875	-2.291894	-0.059226878	-0.156683
1277483178537	2.1111538	12.871228	-0.53119355	3.2473783	0.0	5.9375	-46.25	19.625	-2.498014	-0.040703163	-0.16257358
1277483178568	2.2609777	8.390134	2.8738933	-0.65429306	0.0	4.125	-45.5	23.125	-2.721422	0.3194093	-0.2632276
1277483178607	3.8273177	4.5219555	1.607201	-3.668284	0.0	3.375	-44.75	26.125	-2.3884473	0.2649166	-0.70239186
1277483178647	2.3699405	2.4516625	1.920469	-5.8931518	0.0	2.375	-43.75	27.875	-2.4516287	0.5129268	-0.7684507
1277483178687	-1.3756552	0.5720546	2.9556155	-6.496765	0.0	2.375	-43.75	27.875	-2.4516287	0.5129268	-0.7684507
1277483178727	-3.405087	1.3756552	1.9477097	-5.649654	0.0	2.875	-43.5	27.625	2.274123	0.48763487	1.1868464
1277483178767	-1.2258313	6.0201936	-2.7240696	-3.0860887	0.0	2.875	-44.75	25.125	2.2527542	-0.41734377	0.20087382
1277483178807	9.00305	18.700737	-16.970953	17.003529	0.0	3.125	-45.75	22.625	-1.2424409	-0.68542767	-0.44867957
1277483178847	4.7126403	8.894087	-10.228881	4.5440903	0.0	2.875	-46.0	21.625	-1.0807213	-0.7934498	-0.48725098
1277483178887	0.53119355	9.275456	-7.082581	1.875782	0.0	3.125	-46.75	21.125	-0.47056887	-0.6513482	-0.05720624
1277483178927	-0.46309182	9.956474	3.405087	0.7261772	0.0	3.625	-46.5	22.625	-3.1015759	0.329197	0.046478134
1277483178967	-5.9793324	8.499097	-0.10896278	0.5856037	0.0	3.875	-46.5	23.875	2.3533225	-0.010485192	0.61308825
1277483179007	3.445948	12.067628	7.0553403	4.5905724	0.0	3.625	-46.5	23.625	-2.7724926	0.51214564	-0.2781506
1277483179047	7.6273947	12.14935	-0.50395286	4.547368	0.0	2.875	-46.5	22.375	-2.2297344	-0.03511605	-0.5606122
1277483179087	3.255263	7.014479	0.84446156	-2.0276546	0.0	1.375	-47.25	19.125	-2.4112232	0.10877099	-0.43449906
1277483179117	1.1849703	6.782933	-0.3405087	-2.9125738	0.0	0.625	-48.0	15.875	-2.5608366	-0.049411595	-0.1729534
1277483179147	2.2201166	6.510526	-0.3405087	-2.9195743	0.0	0.375	-49.0	12.875	-2.149854	-0.04946186	-0.32863835
1277483179187	2.9556155	6.701211	2.152015	-2.1729708	0.0	0.375	-49.75	9.8125	-2.3980372	0.2857849	-0.41539204
1277483179227	3.3778462	7.7772183	-0.08172209	-1.3271666	0.0	1.125	-49.5	8.0625	-1.923092	-0.009637775	-0.40974307
1277483179267	5.053149	8.962189	-0.19068487	0.48370934	0.0	2.625	-49.5	6.3125	-1.7760129	-0.018531498	-0.51339906
1277483179307	8.662541	10.147159	-0.50395286	3.544695	0.0	5.1875	-49.25	5.8125	-1.6960111	-0.037754443	-0.70663315
1277483179347	8.076866	10.56939	0.040861044	3.4955845	0.0	7.4375	-48.75	5.5625	-1.7290678	0.0030717477	-0.65251166
1277483179387	8.730643	13.021052	-0.5720546	5.8808985	0.0	9.1875	-48.75	5.5625	-1.6929246	-0.036473606	-0.5906532
1277483179427	7.6273947	13.143636	-1.8387469	5.5006456	0.0	9.6875	-48.25	6.3125	-1.6271205	-0.12041303	-0.5258164
1277483179477	0.88532263	12.598822	0.46309182	2.831726	0.0	9.1875	-48.25	8.0625	-2.2337358	0.03664992	-0.07015495
1277483179507	1.1168685	16.04477	5.134871	7.076742	0.0	7.9375	-48.25	10.8125	-2.7146657	0.3090328	-0.06949741
1277483179537	2.5606253	18.04696	-2.1111538	8.542915	0.0	6.6875	-47.5	14.875	-2.189941	-0.11530733	-0.14094597
1277483179567	2.5333846	14.1787815	-1.0351465	4.633828	0.0	5.1875	-47.25	18.625	-2.4219248	-0.07174521	-0.1768086
1277483179607	1.5390993	8.962189	1.9477097	-0.5070143	0.0	3.125	-46.25	21.875	-2.801486	0.21100156	-0.17007354
1277483179647	3.718355	4.7535014	1.56634	-3.571639	0.0	2.375	-45.25	25.375	-2.4101493	0.2539372	-0.66381437
1277483179687	2.6014864	2.6832085	1.9885708	-5.573241	0.0	2.125	-44.75	27.125	-2.4358292	0.488988	-0.7699355
1277483179727	-1.1441092	0.84446156	2.6423476	-6.8059664	0.0	2.125	-43.75	28.375	2.4103785	1.0770885	0.9349579
1277483179768	-3.0237172	1.4165162	1.7570249	-6.033519	0.0	3.125	-44.0	28.625	2.3132083	0.4843888	1.1326905
1277483179807	-1.7570249	5.09401	-2.4925237	-3.8695846	0.0	2.875	-44.75	26.375	2.0241053	-0.43325156	0.33214188
1277483179847	9.765789	17.434046	-16.017529	15.803461	0.0	2.875	-46.25	24.125	-1.3538828	-0.6756923	-0.51060724
1277483179887	4.372132	9.915613	-11.264028	5.8238726	0.0	3.125	-47.25	22.875	-0.98999476	-0.80472946	-0.4152892
1277483179927	-1.3756552	6.891896	-6.5922484	-0.17086315	0.0	3.125	-47.0	22.125	0.3700884	-0.7534269	0.19701548
1277483179967	-0.040861044	11.75436	0.5720546	1.9616919	0.0	4.125	-46.25	23.375	-2.9879391	0.04862878	0.0034762318
1277483180007	-3.0237172	8.921328	0.92618364	-0.34140968	0.0	4.375	-45.25	24.125	2.790453	0.098007865	0.32678023
1277483180047	1.2258313	10.56939	4.3312707	1.6813688	0.0	4.125	-44.75	24.375	-2.9095404	0.3865822	-0.11546351
1277483180087	6.8237944	13.211738	0.7627395	5.0828085	0.0	3.125	-45.5	23.875	-2.4003022	0.051249243	-0.47675624
1277483180127	4.7943625	7.9679036	0.92618364	-0.4615326	0.0	1.375	-46.5	21.625	-2.3610377	0.099271804	-0.54167545
1277483180167	0.6537767	6.6331096	-0.0	-3.1413994	0.0	-0.125	-47.5	19.125	-2.9087808	-0.0	-0.09824531
1277483180207	2.4925237	6.66035	-0.14982383	-2.6936073	0.0	-1.125	-49.0	15.875	-2.3167524	-0.02106481	-0.35809818
1277483180247	3.9499009	6.782933	2.3018389	-1.6268969	0.0	-0.875	-49.5	12.3125	-2.3525128	0.28525993	-0.52732503
1277483180287	3.405087	7.5865335	-1.1168685	-1.4163284	0.0	0.125	-49.75	9.3125	-1.7254976	-0.13351019	-0.42188308
1277483180327	6.4424243	9.384419	0.7218784	1.5991936	0.0	1.625	-49.5	7.5625	-1.9013163	0.06333255	-0.60160947
1277483180367	9.00305	10.269742	-0.7627395	3.8719568	0.0	3.875	-49.0	6.5625	-1.7018071	-0.055790428	-0.71976817
1277483180407	8.471856	11.727119	0.9942854	4.6946	0.0	5.4375	-48.75	5.5625	-1.8101051	0.06861933	-0.62561226
1277483180447	7.3958488	14.246883	-2.070293	6.378477	0.0	6.6875	-48.5	5.8125	-1.5938742	-0.12826471	-0.47882673
1277483180487	7.3549876	12.176591	-1.8387469	4.5372057	0.0	7.1875	-48.75	6.8125	-1.6307889	-0.12854427	-0.54337513
1277483180527	2.6014864	11.141444	0.50395286	1.6455765	0.0	6.4375	-48.5	9.3125	-2.150192	0.044019006	-0.22938652
1277483180567	1.1849703	15.894946	4.7535014	6.826126	0.0	5.1875	-48.25	12.625	-2.8135474	0.289832	-0.07441248
1277483180607	2.5606253	17.161638	-2.7921712	7.7681847	0.0	3.625	-48.0	16.875	-2.2825778	-0.15954931	-0.14811367
1277483180647	2.7921712	9.997335	1.8387469	0.7348833	0.0	1.875	-46.5	21.375	-2.6799324	0.17532562	-0.27235162
1277483180687	3.568531	5.6252036	1.4982382	-2.9786162	0.0	0.625	-45.5	25.125	-2.4932592	0.2212246	-0.56531787
1277483180727	2.5606253	3.9499009	1.6480621	-4.819203	0.0	-0.125	-44.5	28.625	-2.592353	0.33677185	-0.57516223
1277483180767	-0.29964766	1.607201	2.4516625	-6.8598666	0.0	-0.125	-43.5	30.125	2.9879391	0.9826655	0.18432443
1277483180817	-2.982856	1.334794	1.56634	-6.1827674	0.0	0.875	-43.0	30.625	2.3113759	0.44696093	1.1500329
1277483180857	-1.879608	3.214402	-1.607201	-5.750987	0.0	1.125	-43.5	28.375	2.0515394	-0.4074677	0.52912766
1277483180897	6.973618	15.431854	-14.1787815	12.2798	0.0	1.375	-44.0	25.375	-1.27417	-0.6970615	-0.42443085
1277483180937	7.1234417	13.947236	-13.947236	11.164621	0.0	1.125	-44.75	23.125	-1.1761466	-0.7275794	-0.4722044
1277483180977	0.84446156	3.5276701	-6.428804	-2.4251127	0.0	0.875	-45.75	21.625	-0.39043978	-1.0570921	-0.23496078
1277483181017	1.5390993	11.032481	-0.5720546	1.3473501	0.0	1.625	-45.5	22.125	-2.762063	-0.05130946	-0.13861158
1277483181057	-4.4810944	9.724928	0.6537767	0.9209709	0.0	1.625	-45.25	23.375	2.5480127	0.0609811	0.4317859
1277483181097	1.4982382	10.991621	4.7535014	2.2621622	0.0	1.625	-45.0	24.375	-2.9511564	0.40483442	-0.1354724
1277483181137	5.7477865	13.211738	0.42223078	4.607418	0.0	0.125	-45.25	23.625	-2.5099308	0.029297156	-0.41035348
1277483181177	5.5571017	8.471856	0.95342433	0.36992836	0.0	-1.375	-45.75	21.875	-2.3863652	0.093825705	-0.5805456
1277483181217	2.4516625	6.782933	0.9942854	-2.5260296	0.0	-2.625	-46.75	18.375	-2.6374326	0.13699412	-0.3468349
1277483181257	1.6889231	5.938472	0.38136974	-3.6209126	0.0	-3.875	-48.0	14.375	-2.6427279	0.0616922	-0.27708754
1277483181297	3.1463003	6.782933	1.7570249	-2.1258612	0.0	-3.375	-48.75	11.0625	-2.4531074	0.23079939	-0.43431616
1277483181337	4.0588636	8.076866	-0.42223078	-0.75742817	0.0	-2.625	-49.25	8.0625	-1.8629398	-0.046676293	-0.46566918
1277483181377	4.0588636	7.5865335	0.19068487	-1.2004766	0.0	-0.625	-49.25	6.3125	-1.8813552	0.022158567	-0.491261
1277483181417	9.302697	10.038197	0.313268	3.8828974	0.0	2.125	-48.5	5.3125	-1.7454517	0.022885736	-0.74738824
1277483181457	8.430995	11.073342	0.53119355	4.1211195	0.0	4.625	-47.75	4.5625	-1.7498475	0.03814842	-0.6507431
1277483181487	8.049625	13.947236	-2.3699405	6.4702816	0.0	6.1875	-47.75	4.0625	-1.5177463	-0.14612061	-0.5234474
1277483181517	7.3958488	13.593107	-2.2609777	5.8325043	0.0	6.6875	-47.75	4.8125	-1.5415372	-0.14508002	-0.498293
1277483181547	6.782933	10.991621	-1.607201	3.2089949	0.0	6.1875	-48.0	6.5625	-1.6320682	-0.123798214	-0.55289847
1277483181577	2.4108016	12.912089	1.1441092	3.3783035	0.0	4.625	-48.5	8.8125	-2.3331733	0.08688312	-0.18458359
1277483181617	-0.27240697	17.815414	3.568531	8.364691	0.0	3.375	-47.75	12.875	-3.022016	0.19766708	0.015289329
1277483181657	2.6014864	17.079916	-2.3699405	7.632038	0.0	2.375	-47.25	17.125	-2.415935	-0.13632315	-0.1511509
1277483181697	3.255263	9.697687	1.6480621	0.5547199	0.0	0.625	-46.0	21.625	-2.647187	0.15973675	-0.32385585
1277483181737	3.759216	5.597963	1.6889231	-2.8552938	0.0	-0.375	-44.5	26.625	-2.528953	0.24541931	-0.59136397
1277483181777	2.4516625	4.0588636	1.4165162	-4.857757	0.0	-0.375	-43.25	29.625	-2.6276102	0.29028875	-0.5433752
1277483181817	-0.8036005	0.9942854	2.6423476	-6.8712835	0.0	-0.625	-41.75	31.625	2.5817504	1.1201743	0.67973256
1277483181857	-2.3018389	0.88532263	1.607201	-6.862953	0.0	-0.125	-41.25	31.125	2.2950428	0.5775589	1.2036225
1277483181897	-2.6832085	2.1111538	-0.040861044	-6.3922324	0.0	0.125	-41.5	29.375	2.2998755	-0.011967493	0.9041549
1277483181937	4.399372	12.340035	-10.56939	7.026144	0.0	-0.375	-43.0	26.375	-1.2307497	-0.6788581	-0.34246442
1277483181977	10.760075	18.04696	-17.270601	17.391617	0.0	-0.375	-44.0	24.125	-1.3287871	-0.6879943	-0.5376402
1277483182017	-0.46309182	4.903325	-6.6331096	-1.54498	0.0	0.625	-45.25	23.125	0.16054775	-0.93210655	0.09416514
1277483182047	1.6889231	12.9529505	-2.982856	3.592187	0.0	1.625	-44.75	23.375	-2.6228213	-0.22450162	-0.12965758
1277483182087	-0.8036005	6.2108784	6.891896	-0.49434566	0.0	2.125	-43.25	25.625	3.0717123	0.8331966	0.12867112
1277483182127	-3.0645783	9.888372	0.7218784	0.57085705	0.0	1.875	-43.25	26.625	2.7840157	0.069618054	0.30053025
1277483182168	5.366417	14.410328	4.7535014	6.288435	0.0	0.875	-42.75	26.875	-2.7434273	0.29981	-0.3564899
1277483182207	7.164303	9.275456	-0.50395286	1.924304	0.0	-0.875	-43.75	25.375	-2.311929	-0.042972464	-0.6576796
1277483182247	2.5333846	6.66035	1.0760075	-2.5999804	0.0	-2.875	-45.5	22.125	-2.6978924	0.14986755	-0.36346862
1277483182287	1.7978859	6.510526	-0.7218784	-3.0139737	0.0	-4.125	-46.75	18.625	-2.585138	-0.10647411	-0.26943564
1277483182327	3.214402	6.851035	1.6480621	-2.0616403	0.0	-5.1875	-48.25	14.875	-2.5650885	0.21442965	-0.43869302
1277483182367	3.6774938	7.9679036	1.879608	-0.8319979	0.0	-5.1875	-48.75	11.5625	-2.4997566	0.21099731	-0.43240777
1277483182407	2.982856	7.8861814	-1.4165162	-1.2570419	0.0	-3.625	-49.0	9.3125	-1.6692909	-0.16644953	-0.36160675
1277483182447	8.499097	9.112013	1.5390993	2.748518	0.0	-1.375	-48.25	7.5625	-1.9290551	0.12289604	-0.7506094
1277483182487	8.962189	10.923519	-1.1441092	4.3691425	0.0	0.875	-47.75	6.3125	-1.6788017	-0.08079654	-0.687086
1277483182517	8.349273	12.489859	0.14982383	5.217643	0.0	2.625	-47.25	5.5625	-1.7766676	0.009972271	-0.5892598
1277483182547	7.5456724	13.988097	-1.3075534	6.140567	0.0	3.875	-46.75	5.5625	-1.6611935	-0.08208472	-0.4946959
1277483182588	7.6273947	12.408136	-1.4573772	4.8310738	0.0	3.625	-47.0	6.8125	-1.6780019	-0.09972833	-0.5511649
1277483182627	2.1792557	11.34575	-1.2258313	1.811347	0.0	2.625	-46.5	9.3125	-1.9478731	-0.10570817	-0.18976565
1277483182667	0.53119355	16.589584	5.175732	7.579685	0.0	1.625	-46.75	12.625	-3.02191	0.30227166	-0.032008767
1277483182707	2.982856	17.393185	-2.9556155	8.086252	0.0	0.125	-46.0	17.125	-2.4429934	-0.16594425	-0.16984345
1277483182747	1.9477097	10.800936	0.95342433	1.2098284	0.0	-1.625	-44.75	21.375	-2.894384	0.086653695	-0.1784105
1277483182787	3.1054392	6.0882955	1.879608	-2.7183485	0.0	-2.375	-43.5	25.625	-2.677606	0.26838067	-0.4716688
1277483182827	3.0237172	3.8681788	1.607201	-4.640533	0.0	-3.125	-41.5	29.125	-2.6006775	0.31635472	-0.6634762
1277483182867	-0.27240697	1.3756552	2.2201166	-7.1807117	0.0	-3.125	-40.5	31.375	2.9256232	1.0074195	0.19549079
1277483182907	-1.9477097	0.6537767	1.6889231	-7.147053	0.0	-1.875	-40.0	32.625	2.2664359	0.6880469	1.2469493
1277483182947	-2.4108016	1.7978859	0.23154591	-6.7903657	0.0	-1.875	-40.0	31.625	2.3571873	0.07684087	0.93001264
1277483182987	3.8273177	11.413852	-10.61025	6.2402134	0.0	-0.625	-41.25	29.875	-1.2924328	-0.7224226	-0.32353944
1277483183017	10.378705	17.856276	-16.970953	16.92493	0.0	0.125	-42.0	27.875	-1.5013132	-0.68783414	-0.5265079
1277483183047	2.152015	5.7886477	-8.812365	0.95426846	0.0	0.625	-42.25	26.125	-0.72556657	-0.9595321	-0.35593125
1277483183087	-0.27240697	6.3198414	-6.238119	-0.9224653	0.0	2.375	-42.5	26.125	-0.048046906	-0.7784266	0.043076783
1277483183127	-3.7864566	8.771504	3.9090397	0.5160017	0.0	2.625	-41.75	26.875	2.8001652	0.38837573	0.40751252
1277483183157	0.46309182	14.7916975	-0.6537767	5.006728	0.0	2.125	-41.75	27.875	-3.0104568	-0.044148546	-0.031297326
1277483183187	0.46309182	9.697687	3.405087	0.48189735	0.0	1.375	-41.5	28.375	-3.0589387	0.3373196	-0.047716565
1277483183227	4.0180025	9.00305	3.5957718	0.6875782	0.0	-0.375	-41.5	27.875	-2.7418811	0.34972855	-0.41976732
1277483183267	5.938472	10.528529	-0.0	2.281169	0.0	-2.125	-42.5	26.375	-2.5166113	-0.0	-0.5135557
1277483183317	2.3018389	7.205164	0.040861044	-2.2426224	0.0	-3.375	-43.0	23.375	-2.7454731	0.005402048	-0.30922276
1277483183347	0.19068487	6.510526	0.27240697	-3.2876377	0.0	-4.375	-44.5	20.125	3.00275	0.04179871	-0.029280333
1277483183387	2.4516625	6.8237944	3.405087	-1.7960672	0.0	-5.4375	-46.0	16.625	-2.8456702	0.43904316	-0.3449193
1277483183427	3.1463003	7.4639506	-1.1168685	-1.6300268	0.0	-5.4375	-47.0	13.375	-2.0596333	-0.13702123	-0.39893028
1277483183467	3.405087	8.158588	0.7627395	-0.93315315	0.0	-4.125	-47.75	10.5625	-2.3514762	0.086063236	-0.39538366
1277483183507	8.349273	9.847511	0.313268	3.1077595	0.0	-2.375	-48.0	8.8125	-1.8922983	0.024259625	-0.70324814
1277483183547	8.240311	10.528529	0.5720546	3.5754232	0.0	-0.375	-47.25	7.5625	-1.8783439	0.042760864	-0.66408104
1277483183577	8.240311	13.33432	-0.8036005	5.888973	0.0	0.875	-46.75	7.3125	-1.7767668	-0.051221415	-0.55353355
1277483183617	7.3549876	13.906375	-1.9477097	6.045059	0.0	1.625	-47.25	7.5625	-1.6752504	-0.123181924	-0.48649412
1277483183657	7.43671	9.956474	-2.070293	2.7918482	0.0	1.125	-47.25	9.0625	-1.6674596	-0.16507727	-0.6415283
1277483183698	1.7570249	12.639683	1.7570249	3.0749598	0.0	0.375	-47.25	12.3125	-2.7869892	0.13682444	-0.13812348
1277483183738	1.4982382	18.34661	1.1168685	8.634884	0.0	-0.625	-46.75	15.875	-2.9727807	0.06059975	-0.08148214
1277483183777	3.405087	15.363752	-2.0294318	6.060237	0.0	-2.375	-45.0	21.375	-2.6955678	-0.12825492	-0.21810566
1277483183818	3.214402	8.921328	1.607201	-0.1886692	0.0	-3.625	-43.0	26.125	-2.8127685	0.16789141	-0.34582585
