#timestamp	accel_x	accel_y	accel_z	accel_mag	temperature	mag_x	mag_y	mag_z	azimuth	pitch	roll
1277309181749	3.636633	1.1168685	9.343558	0.2816887	0.0	-2.4375	2.8125	-49.75	0.19355749	1.1841375	-1.2728238
1277309181790	3.5276701	1.607201	9.507003	0.46031857	0.0	-1.9375	3.0625	-49.75	0.19344157	1.1836218	-1.1432965
1277309181833	3.214402	1.2258313	9.234595	0.047932625	0.0	-1.1875	3.3125	-49.75	0.19912826	1.2141885	-1.206465
1277309181869	3.336985	1.0760075	9.466142	0.2879572	0.0	0.0625	4.25	-50.0	0.21264589	1.2160724	-1.2588735
1277309181909	3.173541	0.9942854	8.894087	-0.31113815	0.0	-0.1875	4.5	-49.75	0.23075064	1.2129751	-1.2671785
1277309181951	2.982856	0.84446156	8.539958	-0.72141933	0.0	-0.1875	4.25	-49.25	0.22948833	1.2225791	-1.2949107
1277309181989	3.2961242	0.88532263	8.689782	-0.4706688	0.0	-0.4375	4.25	-49.0	0.2236335	1.1965516	-1.3083944
1277309182030	3.3778462	1.1441092	8.921328	-0.19889736	0.0	-0.4375	4.25	-48.5	0.21711567	1.1905011	-1.2442149
1277309182069	3.255263	1.0760075	9.343558	0.14606857	0.0	-0.1875	4.0	-49.0	0.21232222	1.2191141	-1.2515583
1277309182099	2.9556155	0.9942854	9.425281	0.121097565	0.0	-0.4375	4.5	-49.0	0.26299885	1.2512805	-1.2462833
1277309182129	3.1054392	1.1849703	9.193735	-0.030522346	0.0	-0.1875	4.75	-49.0	0.2440859	1.2238842	-1.2062703
1277309182159	2.982856	1.0351465	9.152874	-0.12449837	0.0	-0.1875	4.5	-49.75	0.24228331	1.2386193	-1.236768
1277309182189	2.7649305	1.0351465	9.384419	0.031220436	0.0	0.3125	4.75	-49.25	0.25495702	1.2659981	-1.2125655
1277309182229	3.636633	0.50395286	9.275456	0.16897774	0.0	1.5625	4.25	-50.0	0.19355455	1.1939011	-1.4330965
1277309182269	2.8738933	0.88532263	9.234595	-0.09475994	0.0	2.3125	4.25	-49.75	0.1789024	1.2559843	-1.2719643
1277309182309	2.6423476	1.0760075	9.043911	-0.32339573	0.0	3.5625	4.25	-49.25	0.13223094	1.265213	-1.1840844
1277309182349	1.9477097	1.879608	9.615966	0.18300915	0.0	4.5	3.3125	-49.25	-0.03967113	1.296411	-0.8031898
1277309182389	0.9942854	2.6014864	9.915613	0.4926567	0.0	5.5	2.3125	-49.0	-0.2453581	1.296979	-0.36506712
1277309182430	0.95342433	3.255263	8.853226	-0.32586098	0.0	7.25	0.3125	-48.5	-0.3381588	1.2049094	-0.28491843
1277309182469	0.5720546	3.1463003	7.7772183	-1.3976326	0.0	9.5	-2.6875	-47.8125	-0.51638436	1.1806842	-0.17985351
1277309182509	-0.040861044	3.9499009	8.430995	-0.4961691	0.0	12.1875	-6.375	-46.3125	-0.722074	1.1326461	0.010344459
1277309182549	-0.6537767	6.469665	7.8180795	0.36224174	0.0	16.1875	-11.8125	-43.375	-0.7073357	0.8769987	0.100710765
1277309182579	-1.0351465	6.5922484	7.7772183	0.44100285	0.0	19.625	-18.25	-40.125	-1.0214796	0.86166334	0.15575299
1277309182619	-0.42223078	7.5456724	7.014479	0.5044298	0.0	22.625	-24.5	-35.9375	-1.1761101	0.7481522	0.055898387
1277309182660	-0.9125633	7.6273947	2.9556155	-1.57588	0.0	24.375	-30.4375	-31.0625	-0.877697	0.36729634	0.11907684
1277309182701	-0.6537767	7.3141265	2.8330324	-1.9358215	0.0	25.0625	-36.125	-25.125	-1.1517503	0.36820444	0.08914856
1277309182739	-1.3075534	9.507003	1.607201	-0.07649708	0.0	24.375	-40.8125	-18.25	-1.0455374	0.16593784	0.13667831
1277309182779	-1.1441092	12.217452	-0.46309182	2.47299	0.0	22.875	-45.0625	-10.5625	-0.98485166	-0.037721112	0.09337318
1277309182822	0.08172209	10.269742	-2.1111538	0.6781597	0.0	21.375	-47.75	-2.9375	-1.050736	-0.2027396	-0.007957392
1277309182860	0.040861044	10.923519	-2.8738933	1.4886675	0.0	19.875	-49.0	4.1875	-1.174268	-0.2572606	-0.0037406308
1277309182899	0.08172209	10.923519	-4.440233	1.9851103	0.0	19.375	-49.0	10.8125	-1.1693779	-0.38607356	-0.0074811573
1277309182939	-0.42223078	9.888372	-5.47538	1.5043163	0.0	18.625	-48.25	16.0	-1.0397645	-0.50530815	0.0426738
1277309182979	0.6946377	7.5456724	-4.944186	-0.7587404	0.0	18.625	-47.75	20.9375	-1.254017	-0.5781137	-0.09179902
1277309183019	1.1168685	7.7772183	-6.0882955	0.13316154	0.0	17.4375	-47.0	24.625	-1.2667351	-0.6592398	-0.14263253
1277309183049	1.1441092	8.771504	-6.469665	1.152585	0.0	16.1875	-46.3125	27.3125	-1.3987944	-0.6314789	-0.12970254
1277309183089	1.7570249	8.158588	-6.2108784	0.59646034	0.0	15.1875	-45.3125	30.8125	-1.5782315	-0.6397829	-0.21211922
1277309183129	2.1792557	5.325556	-5.053149	-2.1486468	0.0	13.6875	-44.0625	33.25	-1.6216972	-0.7206219	-0.38841832
1277309183159	0.9942854	6.5513873	-6.782933	-0.3241682	0.0	13.1875	-42.8125	35.25	-1.3568163	-0.7970705	-0.15061776
1277309183199	1.3756552	6.238119	-6.932757	-0.3795786	0.0	12.6875	-42.0625	36.4375	-1.4087114	-0.82627064	-0.21705009
1277309183239	1.4573772	6.469665	-6.851035	-0.27159882	0.0	12.4375	-41.8125	37.1875	-1.5014971	-0.80165845	-0.2215649
1277309183280	1.1441092	6.3198414	-7.246025	-0.12397194	0.0	12.1875	-41.8125	37.1875	-1.3434056	-0.84556997	-0.17909479
1277309183319	1.4573772	6.4015636	-7.014479	-0.19900322	0.0	11.9375	-41.5625	37.6875	-1.4800297	-0.81845856	-0.22384442
1277309183359	1.607201	6.8237944	-7.04172	0.12980175	0.0	11.9375	-41.8125	38.1875	-1.5726719	-0.7876191	-0.23131315
1277309183389	1.6480621	6.701211	-6.701211	-0.1874733	0.0	12.1875	-41.8125	37.9375	-1.6146971	-0.770719	-0.2411491
1277309183429	1.5390993	6.742072	-6.932757	-0.014434814	0.0	12.1875	-41.5625	38.4375	-1.588693	-0.7866431	-0.22443688
1277309183470	1.5390993	6.701211	-7.246025	0.18234062	0.0	12.1875	-41.3125	38.4375	-1.5343105	-0.81161696	-0.2257595
1277309183509	1.334794	6.4015636	-7.3549876	0.03497219	0.0	12.6875	-40.5625	38.9375	-1.4807901	-0.844042	-0.2055653
1277309183539	1.607201	6.469665	-7.5456724	0.26195621	0.0	12.6875	-39.5625	39.4375	-1.5538172	-0.84719425	-0.24349202
1277309183579	1.6480621	6.3198414	-7.3549876	0.029626846	0.0	12.6875	-38.875	39.4375	-1.591271	-0.8446534	-0.25509468
1277309183609	1.4165162	5.938472	-7.205164	-0.36279774	0.0	13.1875	-39.125	39.875	-1.5286565	-0.86786044	-0.23415655
1277309183649	1.5390993	6.0882955	-7.273266	-0.19745827	0.0	13.1875	-39.125	39.875	-1.5286565	-0.86786044	-0.23415655
1277309183689	1.3075534	6.891896	-7.504812	0.46613503	0.0	13.4375	-40.3125	39.4375	-1.5623834	-0.81913114	-0.1874949
1277309183729	1.1849703	6.469665	-6.891896	-0.27990055	0.0	13.9375	-41.5625	38.9375	-1.5294777	-0.80875146	-0.18115005
1277309183769	1.1849703	6.932757	-7.1234417	0.20387936	0.0	13.6875	-42.0625	37.9375	-1.512157	-0.79176563	-0.16928746
1277309183809	0.9942854	6.6331096	-6.66035	-0.35429573	0.0	13.6875	-42.5625	36.6875	-1.4605572	-0.7818922	-0.14878953
1277309183839	1.4982382	7.5865335	-6.5513873	0.32848072	0.0	13.4375	-43.0625	35.9375	-1.6539773	-0.70286167	-0.1949776
1277309183887	1.6889231	8.921328	-7.246025	1.8100376	0.0	13.6875	-43.8125	34.25	-1.6404529	-0.67354405	-0.18709879
1277309183929	1.4165162	7.7772183	-6.66035	0.5302696	0.0	14.4375	-45.0625	30.8125	-1.4222372	-0.70014215	-0.18016173
1277309183959	-0.14982383	8.62168	-4.372132	-0.13859177	0.0	15.6875	-46.5	25.875	-1.6997715	-0.46925777	0.017375818
1277309183999	-1.0351465	9.656827	-3.173541	0.4108448	0.0	17.4375	-47.25	19.4375	-1.8333797	-0.31582284	0.106785476
1277309184029	1.334794	9.534244	-0.29964766	-0.17476177	0.0	18.625	-48.25	11.5625	-1.954616	-0.031114979	-0.13909595
1277309184059	0.9942854	10.038197	0.7627395	0.3094635	0.0	18.875	-48.5	3.1875	-1.8469251	0.07547009	-0.098728165
1277309184089	0.040861044	10.119919	2.2609777	0.5628462	0.0	17.875	-48.0	-6.375	-1.8006854	0.21980697	-0.0040376633
1277309184130	-0.10896278	9.615966	4.3312707	0.74031925	0.0	16.4375	-46.0625	-16.0	-1.8407071	0.42318323	0.011330959
1277309184169	1.920469	5.434519	4.903325	-2.2392998	0.0	14.9375	-41.3125	-25.125	-1.6737442	0.7049005	-0.33968586
1277309184211	-0.38136974	5.053149	7.8180795	-0.48988438	0.0	13.1875	-34.875	-33.25	-2.4186478	0.9957019	0.07532889
1277309184249	1.56634	5.175732	8.008764	-0.14321804	0.0	11.4375	-28.6875	-38.9375	-1.4786958	0.97690636	-0.29386935
1277309184289	1.9477097	4.372132	8.430995	-0.11176586	0.0	9.25	-23.0	-43.625	-1.2188355	1.0544592	-0.4190911
1277309184319	2.070293	4.1814466	8.62168	-0.0033864975	0.0	7.25	-19.5	-45.3125	-1.0334392	1.0747484	-0.45973122
1277309184349	2.3018389	4.140586	8.853226	0.23439217	0.0	6.0	-17.3125	-46.3125	-0.889195	1.0794615	-0.50737774
1277309184379	2.4108016	3.990762	8.853226	0.19923592	0.0	5.25	-15.0625	-47.0625	-0.7599339	1.0860684	-0.5434255
1277309184409	2.3018389	3.759216	8.580819	-0.1598568	0.0	5.25	-13.8125	-46.8125	-0.71917456	1.0962489	-0.5494283
1277309184452	2.6014864	3.6774938	8.62168	-0.07910824	0.0	5.25	-12.3125	-47.5625	-0.6247769	1.0893291	-0.6156801
1277309184491	2.4925237	3.5276701	8.19945	-0.5390663	0.0	5.0	-11.5625	-47.8125	-0.57817805	1.0859469	-0.6151176
1277309184529	2.3699405	3.9090397	8.853226	0.15712547	0.0	4.75	-11.5625	-47.8125	-0.5802989	1.0941558	-0.5450184
1277309184569	2.3018389	3.759216	8.539958	-0.19618416	0.0	4.75	-11.3125	-48.0	-0.56677806	1.0943061	-0.5494283
1277309184599	2.8330324	3.5957718	8.19945	-0.41587734	0.0	4.75	-12.0625	-47.8125	-0.5665521	1.0616049	-0.6673062
1277309184639	3.1054392	3.990762	8.158588	-0.20808315	0.0	4.25	-12.5625	-47.3125	-0.53408134	1.0159471	-0.6612794
1277309184669	2.5606253	4.862464	8.812365	0.57882595	0.0	3.3125	-12.8125	-47.3125	-0.48905236	1.0131967	-0.4847088
1277309184699	2.4925237	4.8216033	9.084772	0.7760534	0.0	1.8125	-13.0625	-47.3125	-0.46890482	1.0322492	-0.4771148
1277309184739	2.9556155	4.3312707	8.62168	0.28438282	0.0	0.8125	-12.5625	-47.8125	-0.44225907	1.0243763	-0.5988091
1277309184779	2.7240696	3.8681788	9.00305	0.36381054	0.0	0.3125	-11.5625	-48.25	-0.4520629	1.0869571	-0.61355615
1277309184809	2.8330324	3.8273177	8.430995	-0.12387657	0.0	0.3125	-10.8125	-48.25	-0.38866088	1.0566666	-0.63720834
1277309184850	2.7240696	3.568531	8.158588	-0.49442577	0.0	0.3125	-10.375	-48.75	-0.37874037	1.0677458	-0.6519961
1277309184889	2.9556155	3.759216	8.730643	0.14782143	0.0	0.3125	-9.625	-48.75	-0.35034594	1.0697019	-0.6662892
1277309184929	2.9147544	3.8273177	8.730643	0.16171455	0.0	0.3125	-9.875	-49.0	-0.35263258	1.0671635	-0.6508622
1277309184970	3.405087	3.9090397	8.499097	0.14874363	0.0	-0.4375	-9.625	-49.0	-0.30437547	1.0230834	-0.7166056
1277309185009	3.718355	3.8273177	8.349273	0.10217857	0.0	-0.9375	-9.625	-48.0	-0.3003781	1.0021106	-0.7709588
1277309185051	3.9090397	3.636633	8.308413	0.0693512	0.0	-2.9375	-9.875	-48.0	-0.27573732	0.99963355	-0.82148355
1277309185089	3.255263	3.405087	8.076866	-0.45640278	0.0	-3.625	-9.375	-47.3125	-0.23921844	1.0427897	-0.7629071
1277309185129	3.759216	3.1463003	9.193735	0.61235523	0.0	-3.4375	-9.125	-47.0625	-0.316106	1.08094	-0.8739236
1277309185169	3.5276701	3.336985	8.281172	-0.20676804	0.0	-3.625	-8.625	-47.3125	-0.22427474	1.0404514	-0.8131688
1277309185199	3.568531	2.8330324	8.076866	-0.53323364	0.0	-2.9375	-7.625	-47.0625	-0.23930943	1.0571728	-0.89979017
1277309185239	3.5957718	3.1054392	8.539958	-0.03402424	0.0	-2.6875	-7.375	-47.5625	-0.21964279	1.0630966	-0.85843873
1277309185269	3.445948	3.336985	8.771504	0.19081497	0.0	-3.1875	-6.625	-48.0	-0.14860632	1.0703591	-0.80146104
1277309185299	3.405087	3.0237172	8.471856	-0.188447	0.0	-2.9375	-6.125	-48.5	-0.14959267	1.0775805	-0.8446508
1277309185339	2.9556155	3.0645783	8.689782	-0.1298933	0.0	-2.4375	-5.875	-49.0	-0.1421137	1.1152155	-0.7673006
1277309185381	3.255263	2.5333846	8.853226	-0.039645195	0.0	-1.9375	-5.375	-49.25	-0.18374953	1.1347821	-0.9094636
1277309185419	2.6423476	2.5333846	8.281172	-0.75248814	0.0	0.0625	-4.375	-49.5	-0.18313175	1.1545819	-0.80644774
1277309185449	2.152015	2.3426998	8.730643	-0.5145283	0.0	2.5625	-2.9375	-49.5	-0.23006307	1.2213861	-0.7429994
1277309185489	1.6889231	2.6423476	9.466142	0.16542625	0.0	5.25	-1.9375	-49.0	-0.31916276	1.2508898	-0.5687279
1277309185529	1.1849703	2.8738933	9.507003	0.19567585	0.0	7.5	-1.4375	-48.75	-0.42332366	1.2547742	-0.39108372
1277309185569	0.88532263	2.9147544	9.152874	-0.16016483	0.0	9.25	-2.1875	-48.25	-0.54067844	1.2495097	-0.2948829
1277309185599	0.53119355	2.982856	9.302697	-0.02300167	0.0	10.25	-2.4375	-48.0	-0.6344822	1.2559414	-0.1762347
1277309185629	0.7218784	2.9147544	10.079058	0.71020794	0.0	10.9375	-2.1875	-48.0	-0.6656747	1.2812432	-0.24277844
1277309185659	0.38136974	2.6832085	9.765789	0.32822418	0.0	11.6875	-1.6875	-48.25	-0.74213016	1.3000916	-0.14118633
1277309185699	0.3405087	3.1463003	9.534244	0.23909283	0.0	11.4375	-0.9375	-48.25	-0.6376652	1.2503121	-0.10780552
1277309185749	0.42223078	3.1463003	9.724928	0.42329216	0.0	11.4375	-1.1875	-48.25	-0.6442874	1.2552714	-0.13340211
1277309185789	0.6946377	1.4573772	8.730643	-0.9279909	0.0	11.6875	-1.1875	-48.5	-0.71616066	1.3879437	-0.44478193
1277309185829	0.7218784	1.7297841	8.430995	-1.1698141	0.0	11.6875	-0.4375	-48.75	-0.6443685	1.3520353	-0.3953501
1277309185868	0.38136974	2.3426998	9.466142	-0.047473907	0.0	11.9375	0.0625	-49.0	-0.7049285	1.3251216	-0.16137512
1277309185959	0.14982383	0.27240697	8.240311	-1.5604773	0.0	11.9375	0.5625	-48.75	-0.900363	1.5330873	-0.5028432
1277309185990	0.3405087	0.19068487	8.539958	-1.2577791	0.0	11.6875	0.8125	-49.0	-0.3719738	1.5251282	-1.060308
1277309186029	1.0351465	2.070293	9.234595	-0.2863884	0.0	11.4375	0.5625	-48.5	-0.5246494	1.3252054	-0.4636476
1277309186059	0.8036005	1.9885708	8.430995	-1.1071177	0.0	11.4375	0.3125	-48.5	-0.5691806	1.3216852	-0.38404408
1277309186089	0.10896278	0.84446156	8.471856	-1.2921133	0.0	11.4375	0.3125	-48.75	-1.0396862	1.4706277	-0.12832323
1277309186119	2.070293	3.2961242	7.5865335	-1.2798662	0.0	11.6875	-0.1875	-48.5	-0.34832966	1.0967528	-0.5608249
1277309186159	0.7218784	2.5333846	10.841797	1.3505764	0.0	11.4375	-0.6875	-48.25	-0.6814242	1.3324456	-0.27758944
1277309186192	-0.3405087	1.879608	11.536434	1.8868608	0.0	11.1875	-1.1875	-47.8125	-1.1609807	1.406705	0.17921574
1277309186253	-0.0	2.4516625	9.043911	-0.43632603	0.0	11.4375	-0.4375	-47.8125	-0.7577767	1.3060743	0.0
1277309186298	-1.607201	2.7240696	10.079058	0.7570162	0.0	12.1875	0.8125	-47.5625	-0.88105404	1.2667235	0.5330341
1277309186343	-2.1111538	4.140586	10.61025	1.7769089	0.0	13.9375	1.5625	-47.3125	-0.7371088	1.1579312	0.47151113
1277309186379	-2.1383946	4.2904096	9.384419	0.731266	0.0	14.6875	1.5625	-47.5625	-0.6820082	1.0985274	0.46237698
1277309186419	-2.7513103	4.903325	9.084772	0.87723446	0.0	14.1875	0.0625	-47.5625	-0.5742045	1.0166022	0.51133376
1277309186449	-2.6423476	6.4015636	8.853226	1.4335289	0.0	12.6875	-2.6875	-47.3125	-0.4292621	0.90697086	0.39146286
1277309186480	-3.173541	7.6273947	9.534244	2.8088293	0.0	11.4375	-4.625	-47.8125	-0.34085715	0.8568101	0.39428386
1277309186509	-3.1054392	6.782933	11.686258	4.0577126	0.0	9.5	-5.125	-48.25	-0.33472246	1.0026486	0.4293473
1277309186539	-2.3699405	6.2108784	11.686258	3.6380606	0.0	7.0	-3.4375	-48.75	-0.2707975	1.0535995	0.36452603
1277309186579	1.4573772	3.8273177	6.1291566	-2.4351602	0.0	2.5625	1.0625	-49.0	-0.06989221	0.98174447	-0.36383095
1277309186609	1.7570249	0.9942854	6.510526	-2.9902954	0.0	-1.4375	5.25	-49.0	0.32258585	1.2701089	-1.0558343
1277309186640	-1.7297841	2.3699405	10.119919	0.7300253	0.0	-3.4375	7.75	-48.5	-0.08331527	1.2886033	0.63050276
1277309186669	-1.525479	2.0294318	10.61025	1.1031208	0.0	-3.875	8.0	-48.5	-0.08624693	1.335931	0.6445741
1277309186699	-1.1849703	2.0294318	10.800936	1.2469902	0.0	-2.1875	6.75	-49.0	-0.087870695	1.3565564	0.5284917
1277309186729	-1.0351465	1.7297841	9.152874	-0.43441582	0.0	-1.4375	6.5	-49.0	-0.12528928	1.3540142	0.53926075
1277309186759	-0.84446156	0.53119355	8.049625	-1.6954384	0.0	-0.9375	7.0	-48.75	-0.4776557	1.4474889	1.0093026
1277309186799	-1.8387469	0.27240697	9.152874	-0.4669342	0.0	-0.9375	8.5	-48.25	-0.61404455	1.3704358	1.423718
1277309186839	-2.4925237	0.08172209	9.112013	-0.3595276	0.0	-0.9375	9.5	-47.8125	-0.6002737	1.303649	1.5380212
1277309186879	-2.4925237	0.6537767	9.425281	-0.035467148	0.0	0.0625	10.0	-47.5625	-0.5755646	1.3039216	1.3142797
1277309186920	-3.8273177	0.9942854	8.281172	-0.62978935	0.0	1.8125	11.6875	-47.3125	-0.50165874	1.1253003	1.3166283
1277309186949	-3.3642259	-0.7218784	9.507003	0.30385113	0.0	4.0	12.1875	-47.0625	-0.83972454	1.2235392	1.7821661
1277309186980	-4.372132	0.14982383	9.302697	0.47333813	0.0	6.25	12.6875	-47.3125	-0.71419233	1.1312215	1.5365418
1277309187020	-3.405087	0.92618364	8.281172	-0.80497074	0.0	6.75	13.1875	-47.5625	-0.7412315	1.1679747	1.3052213
1277309187059	-3.718355	0.53119355	8.853226	-0.18958569	0.0	6.5	13.1875	-48.0	-0.7655416	1.1695491	1.4288993
1277309187099	-3.7864566	0.14982383	9.724928	0.63049126	0.0	6.25	13.1875	-48.0	-0.83747166	1.1992351	1.5312486
1277309187139	-5.366417	1.4982382	9.997335	1.6384306	0.0	6.5	12.9375	-47.8125	-0.59827524	1.0623565	1.298541
1277309187179	-4.399372	0.88532263	8.19945	-0.4594984	0.0	7.5	12.1875	-47.8125	-0.6249215	1.0700274	1.3722103
1277309187219	-4.2495484	1.3075534	8.771504	0.02735424	0.0	8.25	11.4375	-47.8125	-0.6496573	1.1016543	1.2722974
1277309187259	-4.372132	0.6946377	9.084772	0.29934502	0.0	8.0	11.1875	-47.8125	-0.6734827	1.1173638	1.4132348
1277309187299	-3.9499009	1.8387469	10.228881	1.3114758	0.0	6.75	10.9375	-48.0	-0.6321818	1.1681275	1.1351135
1277309187339	-3.214402	1.879608	9.847511	0.7213497	0.0	5.75	10.5	-47.8125	-0.6071636	1.2092867	1.0416687
1277309187379	-3.759216	1.9885708	9.847511	0.9199333	0.0	4.75	9.75	-48.0	-0.5103762	1.1631268	1.0842301
1277309187419	-3.255263	2.070293	8.771504	-0.22426319	0.0	4.5	8.25	-48.75	-0.43451366	1.1564453	1.0043378
1277309187459	-3.759216	2.0294318	8.539958	-0.25776672	0.0	4.25	7.5	-48.5	-0.3806131	1.106956	1.0757753
1277309187499	-3.8273177	1.920469	9.193735	0.33540726	0.0	4.0	6.25	-49.0	-0.35369146	1.1349097	1.1057262
1277309187539	-3.0237172	0.42223078	10.419566	1.0509968	0.0	3.5625	5.0	-49.0	-0.45759907	1.285763	1.4320538
1277309187579	-1.879608	-0.29964766	10.61025	0.9729662	0.0	2.3125	4.75	-48.75	-0.6557666	1.3932968	1.7288862
1277309187619	-1.1849703	0.46309182	8.662541	-1.0511818	0.0	2.0625	3.5625	-49.0	-0.55913115	1.4249718	1.1982421
1277309187659	-1.6889231	1.3075534	7.7772183	-1.7414608	0.0	1.5625	2.3125	-49.25	-0.20768514	1.3027666	0.9119903
1277309187699	-1.525479	2.4108016	6.2789803	-2.9099379	0.0	1.3125	0.8125	-49.25	-0.07567252	1.1443247	0.564166
1277309187739	-1.7297841	3.636633	7.6273947	-1.1814308	0.0	0.8125	-1.6875	-49.0	-4.1836442E-4	1.0850208	0.44398296
1277309187779	-1.7297841	3.486809	9.234595	0.21471405	0.0	-0.1875	-3.875	-49.5	0.11683295	1.1719015	0.46051773
1277309187819	-2.2201166	3.336985	9.193735	0.22276402	0.0	-1.1875	-5.125	-49.25	0.22964127	1.1596849	0.5870601
1277309187859	-2.2201166	2.8330324	9.343558	0.20619488	0.0	-1.6875	-6.125	-50.0	0.339765	1.203098	0.66469395
1277309187899	-2.4925237	3.9090397	10.56939	1.7348089	0.0	-1.1875	-6.375	-50.25	0.27251297	1.1574353	0.5676305
1277309187939	-2.3426998	4.0180025	8.471856	-0.1420269	0.0	-0.9375	-6.375	-50.25	0.20065676	1.0687178	0.5278636
1277309187979	-2.0294318	4.5219555	8.19945	-0.22554111	0.0	-0.4375	-6.875	-49.75	0.15535544	1.0270826	0.42185155
1277309188019	-1.56634	4.7943625	8.308413	-0.0871315	0.0	-0.6875	-7.625	-48.75	0.15541396	1.0251986	0.3157728
1277309188059	-1.920469	4.0180025	8.499097	-0.21148491	0.0	-1.4375	-8.875	-48.5	0.31054962	1.0881475	0.44586563
1277309188099	-2.6423476	3.2961242	8.19945	-0.58290863	0.0	-2.4375	-10.125	-48.0	0.46738735	1.0950485	0.675748
1277309188139	-1.9477097	4.2495484	8.158588	-0.4037361	0.0	-3.4375	-10.8125	-47.8125	0.43350524	1.050488	0.42976227
1277309188179	-1.9477097	4.0180025	9.084772	0.3161459	0.0	-4.625	-11.5625	-47.8125	0.5962895	1.1139697	0.45136988
1277309188209	-2.3018389	4.2495484	10.038197	1.3343782	0.0	-5.125	-11.8125	-47.5625	0.6448088	1.1220961	0.49642277
1277309188249	-2.0294318	4.2495484	9.234595	0.55940056	0.0	-5.125	-12.0625	-47.0625	0.62374276	1.0992125	0.44553834
1277309188289	-1.7570249	4.9850473	8.19945	-0.051199913	0.0	-4.625	-12.0625	-47.3125	0.4492355	0.9982042	0.33886382
1277309188329	-1.0760075	5.47538	8.580819	0.42897606	0.0	-2.9375	-12.3125	-47.8125	0.3099586	0.9942103	0.19404468
1277309188369	-1.334794	4.630918	8.19945	-0.29570675	0.0	-0.9375	-12.0625	-47.5625	0.2877309	1.0394129	0.28062883
1277309188409	-2.8738933	4.399372	7.1234417	-0.9546919	0.0	1.0625	-11.8125	-48.0	0.27076492	0.9352215	0.5786571
1277309188449	-2.9556155	4.7535014	7.9270425	-0.10255623	0.0	1.5625	-12.3125	-48.25	0.27111378	0.9559743	0.556278
1277309188489	-2.6423476	4.6036777	9.234595	0.84480953	0.0	1.3125	-12.0625	-47.3125	0.3358354	1.0491085	0.5210557
1277309188529	-2.8738933	4.630918	7.3549876	-0.6523886	0.0	0.5625	-12.8125	-47.5625	0.31400177	0.9330667	0.5554205
1277309188572	-2.1792557	5.134871	7.273266	-0.64060116	0.0	-1.6875	-12.5625	-47.3125	0.3104449	0.9165399	0.40136504
1277309188609	-1.2666923	5.134871	8.19945	-0.049479485	0.0	-3.875	-12.0625	-46.8125	0.38715878	0.99793077	0.2418556
1277309188649	-0.5720546	4.7943625	9.152874	0.5416956	0.0	-6.125	-12.5625	-47.0625	0.5794919	1.0853719	0.118756734
1277309188689	-0.50395286	4.440233	8.471856	-0.228446	0.0	-8.875	-12.5625	-46.5625	0.72431606	1.0854065	0.113013335
1277309188729	0.27240697	4.5219555	8.853226	0.13829327	0.0	-11.0625	-13.3125	-46.0625	0.874578	1.0978364	-0.060168255
1277309188769	0.27240697	4.2495484	8.962189	0.11573315	0.0	-13.0625	-14.3125	-45.5625	1.1179199	1.1272359	-0.06401498
1277309188799	0.14982383	3.5957718	8.471856	-0.60206604	0.0	-14.8125	-14.5625	-44.8125	1.3249131	1.1690904	-0.041642576
1277309188829	0.08172209	3.9090397	8.471856	-0.47607613	0.0	-16.5625	-14.5625	-44.5625	1.2645364	1.1384075	-0.02090288
1277309188859	0.95342433	4.0180025	9.656827	0.69609547	0.0	-17.0625	-14.8125	-44.0625	1.5365682	1.1666982	-0.23297925
1277309188889	0.7627395	3.255263	9.275456	0.05299568	0.0	-17.3125	-14.5625	-44.0625	1.7256175	1.2248337	-0.23015761
1277309188919	0.6946377	2.8738933	8.308413	-0.98783493	0.0	-17.0625	-14.5625	-44.0625	1.7466962	1.2289087	-0.2371576
1277309188960	0.46309182	2.982856	8.539958	-0.7489033	0.0	-16.5625	-14.5625	-43.8125	1.6668863	1.2310363	-0.15402155
1277309188999	-0.19068487	4.140586	9.193735	0.27826786	0.0	-16.8125	-13.5625	-43.8125	1.2206377	1.1472377	0.046020113
1277309189039	-0.14982383	5.5162406	8.471856	0.3039236	0.0	-15.8125	-12.8125	-44.0625	0.8682655	0.9934617	0.02715382
1277309189079	-0.8036005	5.09401	8.499097	0.13464546	0.0	-15.8125	-11.3125	-44.3125	0.8412863	1.025413	0.15646456
1277309189119	-0.7218784	3.568531	8.962189	-0.13316345	0.0	-15.0625	-10.125	-45.0625	1.010015	1.1849209	0.19959657
1277309189159	0.040861044	3.8681788	9.152874	0.13012886	0.0	-14.0625	-9.375	-46.0625	0.9901704	1.1709241	-0.010562987
1277309189199	-0.14982383	4.2904096	9.00305	0.16756535	0.0	-13.8125	-9.125	-46.3125	0.86086357	1.1258469	0.03490645
1277309189259	-0.50395286	3.718355	9.234595	0.16119194	0.0	-13.3125	-8.875	-46.5625	0.9163031	1.1848398	0.13471031
1277309189299	-0.3405087	4.0180025	9.043911	0.0955019	0.0	-12.8125	-8.875	-46.3125	0.85430574	1.1513826	0.08454376
1277309189339	-0.6946377	4.0180025	9.00305	0.07675934	0.0	-12.0625	-8.875	-46.0625	0.8039636	1.1455218	0.17118923
1277309189379	-0.6946377	3.7864566	8.962189	-0.052645683	0.0	-11.3125	-9.125	-45.5625	0.83302003	1.1650839	0.18143578
1277309189419	-0.6946377	4.0180025	8.662541	-0.2323885	0.0	-10.375	-9.375	-45.5625	0.7516843	1.1308484	0.17118925
1277309189459	-1.1168685	3.990762	8.771504	-0.10547161	0.0	-10.125	-10.125	-45.8125	0.7565299	1.1294303	0.2728821
1277309189499	-0.88532263	3.990762	9.234595	0.29224682	0.0	-9.625	-11.3125	-46.0625	0.84784406	1.1540632	0.21830754
1277309189539	-0.95342433	3.718355	9.384419	0.33250713	0.0	-9.125	-11.8125	-46.8125	0.90588194	1.1825174	0.25100267
1277309189572	-0.7218784	4.140586	9.234595	0.33944798	0.0	-9.125	-12.5625	-46.5625	0.86755043	1.1436756	0.17260724
1277309189609	-1.1441092	4.3312707	9.00305	0.24938297	0.0	-8.625	-12.0625	-46.3125	0.7539103	1.109078	0.25825223
1277309189649	-1.4982382	4.5219555	8.730643	0.13904858	0.0	-8.375	-12.3125	-46.0625	0.69723845	1.0713149	0.31994224
1277309189689	-1.1849703	4.4810944	8.853226	0.18654633	0.0	-8.875	-12.3125	-46.0625	0.7405582	1.0884852	0.25852025
1277309189729	-1.1849703	4.5219555	8.662541	0.03671646	0.0	-8.375	-13.0625	-46.0625	0.7350671	1.0759432	0.2562856
1277309189769	-1.334794	4.1814466	8.730643	-0.034736633	0.0	-8.125	-13.8125	-46.3125	0.81499743	1.1049519	0.30899364
1277309189809	-1.3075534	3.990762	8.349273	-0.4607296	0.0	-8.125	-13.5625	-46.0625	0.80677605	1.1047684	0.3166224
1277309189849	-1.3075534	3.9090397	8.308413	-0.53195286	0.0	-7.375	-13.8125	-45.5625	0.8201834	1.1102616	0.32279548
1277309189889	-1.3075534	4.0180025	8.62168	-0.20522213	0.0	-7.125	-13.5625	-45.5625	0.8097577	1.1151075	0.3146151
1277309189929	-1.6889231	4.5628166	8.580819	0.057538033	0.0	-6.875	-13.5625	-45.8125	0.6866802	1.0549916	0.3545112
1277309189969	-1.1441092	4.630918	8.539958	-0.024765015	0.0	-6.875	-14.0625	-46.0625	0.6977383	1.0613979	0.24220861
1277309190009	-0.84446156	4.5219555	8.308413	-0.3097601	0.0	-7.125	-13.5625	-46.3125	0.67282933	1.0651387	0.18462041
1277309190049	-1.2666923	4.7535014	8.349273	-0.11590004	0.0	-7.875	-13.0625	-46.8125	0.6433236	1.038357	0.26042402
1277309190089	-1.525479	4.862464	8.539958	0.1382742	0.0	-7.875	-13.0625	-46.8125	0.6433236	1.038357	0.26042402
1277309190129	-1.4573772	4.4810944	8.812365	0.18644333	0.0	-7.375	-12.3125	-47.3125	0.65818155	1.0797619	0.31443807
1277309190169	-1.607201	4.5628166	8.62168	0.07948971	0.0	-6.625	-12.3125	-47.3125	0.60527146	1.059473	0.3386679
1277309190209	-1.7978859	4.6036777	8.921328	0.39218903	0.0	-5.875	-12.3125	-46.8125	0.6007647	1.0648979	0.3723182
1277309190249	-1.7297841	4.2495484	8.962189	0.26169872	0.0	-5.625	-12.0625	-46.8125	0.6338536	1.097641	0.38657025
1277309190289	-1.7978859	4.0588636	8.894087	0.13374996	0.0	-5.125	-12.0625	-46.5625	0.64268893	1.1078517	0.4169782
1277309190329	-1.7570249	3.9499009	8.730643	-0.064320564	0.0	-5.125	-11.3125	-46.5625	0.61044466	1.1110287	0.41854423
1277309190369	-1.607201	3.8681788	8.894087	0.024457932	0.0	-4.625	-10.625	-47.3125	0.5747845	1.1306472	0.3937906
1277309190410	-1.7978859	4.0180025	9.084772	0.2883892	0.0	-5.125	-10.125	-47.5625	0.55214536	1.1195961	0.42073768
1277309190449	-1.607201	4.0588636	9.043911	0.2357502	0.0	-5.875	-9.875	-47.5625	0.56488806	1.1210849	0.37703013
1277309190489	-1.6889231	4.0588636	8.771504	0.0048799515	0.0	-6.375	-10.125	-47.5625	0.57322186	1.1061935	0.39431447
1277309190539	-1.4982382	3.8681788	8.771504	-0.10372162	0.0	-6.625	-10.125	-47.3125	0.61729586	1.1290487	0.36953118
1277309190572	-1.4165162	3.9090397	8.771504	-0.09962177	0.0	-6.375	-10.125	-47.0625	0.6097282	1.1281565	0.3476515
1277309190609	-1.3075534	3.8681788	8.894087	-0.0200634	0.0	-6.625	-10.125	-46.8125	0.6415775	1.1404078	0.32596996
1277309190649	-1.3756552	3.9499009	8.853226	-0.015135765	0.0	-6.375	-10.375	-47.0625	0.6225965	1.1294404	0.33513802
1277309190689	-1.1168685	3.214402	8.771504	-0.39819336	0.0	-6.875	-10.625	-47.0625	0.7961736	1.2007207	0.3344081
1277309190729	-1.4165162	1.6889231	8.662541	-0.8680477	0.0	-7.125	-10.625	-47.3125	0.9814358	1.3216199	0.69790286
1277309190769	-2.6423476	0.19068487	9.384419	-0.05546093	0.0	-7.125	-10.8125	-47.3125	0.53772897	1.2956564	1.4987563
1277309190809	-1.4165162	-0.50395286	8.812365	-0.8669491	0.0	-8.625	-11.0625	-47.8125	0.3650526	1.4018121	1.9126015
1277309190849	0.9942854	4.2904096	8.19945	-0.4992771	0.0	-8.625	-11.0625	-47.8125	0.3650526	1.4018121	1.9126015
1277309190879	-0.38136974	14.410328	8.62168	6.990265	0.0	-8.375	-11.0625	-47.3125	0.24240641	0.5390134	0.026458854
1277309190919	-1.525479	6.3607025	8.580819	0.98297787	0.0	-7.875	-10.125	-47.8125	0.4170258	0.919476	0.23538299
1277309190959	-2.1792557	5.325556	10.119919	1.8348036	0.0	-6.375	-9.375	-47.3125	0.48480484	1.053785	0.38841835
1277309190999	-2.0294318	5.134871	9.084772	0.82436943	0.0	-5.875	-9.125	-47.3125	0.4312021	1.02469	0.37638363
1277309191039	-2.1111538	4.3312707	8.962189	0.36869812	0.0	-5.625	-9.375	-47.8125	0.4850073	1.0774956	0.45353416
1277309191079	-2.0294318	4.399372	8.499097	-0.023617744	0.0	-5.875	-10.375	-47.5625	0.5050856	1.0526907	0.43221146
1277309191119	-1.4165162	4.0588636	6.701211	-1.8450475	0.0	-5.625	-11.5625	-47.3125	0.47083667	1.0004078	0.3357777
1277309191159	-1.0760075	4.3312707	6.932757	-1.5616016	0.0	-5.625	-14.0625	-46.8125	0.53290045	0.9988311	0.24349828
1277309191199	-1.7570249	6.469665	7.014479	-0.10373211	0.0	-5.125	-16.8125	-45.5625	0.4239467	0.808026	0.2651829
1277309191239	-0.5720546	6.4424243	5.47538	-1.3324623	0.0	-4.875	-20.75	-43.625	0.31957462	0.7024957	0.08856266
1277309191279	-2.1383946	6.66035	6.3607025	-0.3519411	0.0	-4.625	-25.4375	-41.125	0.6792674	0.73792607	0.31066728
1277309191319	-1.920469	7.7363577	6.3198414	0.3658533	0.0	-4.375	-29.9375	-38.4375	0.73316556	0.67035866	0.24332099
1277309191349	-0.19068487	9.343558	4.5219555	0.5753784	0.0	-4.875	-33.875	-35.25	0.31597432	0.4506559	0.020405332
1277309191389	-0.7218784	10.310603	4.2495484	1.3686934	0.0	-4.625	-37.125	-32.75	0.41560635	0.3900786	0.06989915
1277309191429	-0.8036005	9.724928	3.9499009	0.7205391	0.0	-5.375	-39.3125	-30.8125	0.5496957	0.38462272	0.08244575
1277309191469	0.6537767	9.00305	2.7921712	-0.3579178	0.0	-6.125	-40.8125	-28.8125	0.20238538	0.2999867	-0.07249001
1277309191509	2.3699405	8.390134	0.88532263	-1.0433884	0.0	-7.375	-42.0625	-27.3125	-0.18730855	0.101199254	-0.27529538
1277309191549	0.14982383	9.466142	2.2201166	-0.082494736	0.0	-9.875	-43.0625	-25.125	0.56204885	0.23034091	-0.015826017
1277309191589	0.08172209	10.337844	4.2086873	1.3553724	0.0	-12.5625	-44.0625	-22.4375	1.2446845	0.38661367	-0.007904974
1277309191629	0.5720546	10.760075	2.8330324	1.3348274	0.0	-15.8125	-44.3125	-19.9375	1.043929	0.25710106	-0.053114556
1277309191669	1.6480621	10.419566	1.879608	0.9085913	0.0	-17.8125	-44.5625	-18.9375	0.79475296	0.17632672	-0.15687037
1277309191709	3.486809	9.466142	1.0351465	0.33421803	0.0	-19.0	-44.5625	-18.9375	0.17281201	0.102254815	-0.35292372
1277309191749	1.7978859	9.575105	1.1441092	0.0027332306	0.0	-19.5	-44.3125	-19.4375	0.67222464	0.116900235	-0.18560559
1277309191819	1.3075534	8.580819	-1.0351465	-1.0652733	0.0	-19.25	-44.3125	-20.1875	0.45000574	-0.11869769	-0.15121768
1277309191859	0.19068487	10.310603	-1.0760075	0.5617008	0.0	-19.5	-44.0625	-19.4375	0.66261387	-0.10396526	-0.018491948
1277309191899	1.9885708	10.310603	1.4165162	0.7890787	0.0	-19.25	-44.0625	-18.9375	0.70149165	0.13408892	-0.19052719
1277309191940	3.718355	9.80665	2.7921712	1.046588	0.0	-18.75	-44.0625	-19.4375	0.28694114	0.2601921	-0.36241862
1277309191979	5.134871	9.80665	2.3699405	1.5138578	0.0	-18.0	-43.5625	-21.1875	-0.37294188	0.21090949	-0.4823576
1277309192020	5.325556	9.112013	4.099725	1.5158081	0.0	-17.8125	-42.3125	-23.625	-0.8229035	0.37050676	-0.52891046
1277309192059	5.243834	8.471856	5.012288	1.3465185	0.0	-18.5	-38.875	-27.0625	-0.7631732	0.466099	-0.55425215
1277309192089	5.7886477	6.932757	5.829509	0.9429884	0.0	-19.5	-34.125	-30.8125	-0.95300555	0.57316995	-0.69570374
1277309192129	5.243834	5.47538	5.434519	-0.47865105	0.0	-20.25	-29.6875	-34.0	-0.70235443	0.62192756	-0.7638005
1277309192169	4.399372	4.862464	5.706926	-1.1137199	0.0	-20.0	-25.6875	-37.4375	-0.33401862	0.7161721	-0.7354398
1277309192209	4.630918	4.7535014	6.701211	-0.3754568	0.0	-18.25	-23.25	-39.875	-0.4138272	0.7902609	-0.7723365
1277309192249	3.759216	5.5571017	6.932757	-0.15904903	0.0	-15.0625	-22.25	-41.375	9.6509367E-4	0.80178565	-0.59475935
1277309192289	3.568531	5.47538	7.1234417	-0.1393013	0.0	-11.5625	-22.0	-42.125	-0.22319499	0.8284076	-0.57759833
1277309192329	4.862464	4.862464	6.932757	-0.041905403	0.0	-8.375	-22.0	-42.375	-0.583536	0.7894674	-0.7853982
1277309192369	4.671779	4.630918	6.238119	-0.7410526	0.0	-5.875	-22.5	-42.625	-0.60415685	0.7588797	-0.7897906
1277309192409	3.7864566	5.012288	6.6331096	-0.67109203	0.0	-4.875	-22.75	-42.625	-0.6119776	0.81259793	-0.6469703
1277309192439	3.8273177	4.862464	7.246025	-0.277915	0.0	-4.375	-22.5	-42.875	-0.70395774	0.86398935	-0.66683465
1277309192469	4.099725	4.7535014	7.014479	-0.39355087	0.0	-4.375	-22.75	-42.375	-0.7152178	0.84080887	-0.7116858
1277309192509	4.2904096	4.7126403	6.742072	-0.52914333	0.0	-4.375	-22.75	-42.125	-0.6921828	0.8135228	-0.73853385
1277309192549	4.2086873	4.944186	7.0553403	-0.21833134	0.0	-4.375	-23.25	-41.875	-0.72529	0.82688653	-0.7052133
1277309192589	4.6036777	5.2165933	7.273266	0.25849152	0.0	-4.875	-24.0	-41.375	-0.74459463	0.8075841	-0.72306573
1277309192629	4.4810944	5.5571017	7.5865335	0.6105032	0.0	-4.875	-24.25	-41.375	-0.7455037	0.81579876	-0.67861456
1277309192669	4.1814466	5.6252036	7.6954966	0.6023884	0.0	-4.375	-24.25	-41.125	-0.7666637	0.8320436	-0.63922596
1277309192709	4.2904096	5.597963	7.273266	0.3247471	0.0	-4.625	-24.25	-41.125	-0.713831	0.8007719	-0.6539295
1277309192749	4.1814466	5.5162406	6.782933	-0.115335464	0.0	-4.125	-24.25	-40.625	-0.69071054	0.7752549	-0.64861715
1277309192789	4.2086873	5.366417	6.5513873	-0.34979248	0.0	-4.125	-24.25	-40.875	-0.6799058	0.7653172	-0.66507185
1277309192829	4.6036777	5.284695	6.8237944	-0.024726868	0.0	-5.125	-24.75	-41.375	-0.71482307	0.7720316	-0.71663624
1277309192869	4.8216033	5.2165933	7.014479	0.17651653	0.0	-5.125	-24.75	-41.625	-0.7355844	0.7790878	-0.7460698
1277309192899	5.012288	4.9850473	6.8237944	0.018720627	0.0	-5.875	-24.25	-43.125	-0.6764046	0.7677353	-0.78812295
1277309192939	5.366417	4.9850473	7.1234417	0.41061687	0.0	-6.125	-24.25	-43.375	-0.6905073	0.7714791	-0.8222236
1277309192979	5.012288	5.09401	7.504812	0.55646515	0.0	-5.375	-23.75	-43.375	-0.7100147	0.8098517	-0.77731216
1277309193019	4.372132	5.243834	7.5456724	0.3693266	0.0	-5.125	-22.75	-43.8125	-0.6493583	0.83533037	-0.69499373
1277309193059	3.9499009	4.9850473	7.4639506	-3.7765503E-4	0.0	-4.375	-22.25	-43.375	-0.6821484	0.8650696	-0.67005867
1277309193099	3.759216	4.944186	7.8589406	0.21031666	0.0	-4.125	-21.5	-43.375	-0.7018255	0.90199083	-0.65007997
1277309193129	3.8681788	4.6036777	7.8589406	0.088783264	0.0	-4.125	-20.75	-43.375	-0.7194007	0.91768783	-0.6987986
1277309193159	4.0180025	4.399372	7.668256	-0.09578133	0.0	-3.625	-20.5	-43.375	-0.71927375	0.91024977	-0.74012166
1277309193199	4.2086873	4.630918	7.6954966	0.111974716	0.0	-3.625	-20.25	-43.625	-0.66301376	0.88808227	-0.73766863
1277309193239	4.099725	4.7535014	7.4639506	-0.054005623	0.0	-3.4375	-20.0	-44.3125	-0.6023213	0.87154734	-0.71168584
1277309193279	3.6774938	4.7126403	7.668256	-0.08373451	0.0	-3.4375	-20.0	-44.8125	-0.6196834	0.9086567	-0.6626419
1277309193319	4.0588636	4.4810944	7.4639506	-0.20117569	0.0	-3.1875	-20.0	-45.3125	-0.6248452	0.8899682	-0.7359966
1277309193359	4.671779	5.134871	7.8180795	0.64872074	0.0	-1.9375	-19.5	-45.5625	-0.56372714	0.84467787	-0.738211
1277309193399	5.597963	4.7943625	7.6273947	0.799963	0.0	-1.1875	-19.0	-45.5625	-0.5530723	0.8025306	-0.8625709
1277309193429	7.5865335	4.2495484	8.730643	2.5156174	0.0	-0.4375	-18.75	-45.5625	-0.56637543	0.7874068	-1.0601987
1277309193469	8.349273	5.134871	12.14935	5.80373	0.0	0.3125	-17.8125	-45.5625	-0.6184295	0.8919324	-1.0194144
1277309193509	5.434519	5.366417	15.023244	7.046547	0.0	1.5625	-15.8125	-46.3125	-0.7966247	1.1004647	-0.7917032
1277309193549	0.19068487	4.0588636	12.571581	3.4052906	0.0	4.0	-12.3125	-47.3125	-0.98615485	1.2581785	-0.04694535
1277309193589	0.040861044	-0.6537767	8.349273	-1.4317207	0.0	5.25	-6.875	-48.25	0.41426873	1.4925004	-3.0791738
1277309193629	3.5276701	-2.7240696	7.246025	-1.2996006	0.0	3.3125	-1.6875	-48.75	0.02403917	1.019349	-2.2283552
1277309193669	5.012288	-1.2258313	8.730643	0.33483982	0.0	-2.4375	2.8125	-48.25	0.09783156	1.037004	-1.8106533
1277309193709	5.134871	-1.56634	6.4015636	-1.4519901	0.0	-9.875	5.75	-47.0625	0.11999282	0.8729482	-1.8668704
1277309193749	5.053149	-2.6014864	3.5957718	-3.0812044	0.0	-16.8125	8.25	-45.0625	-0.012842809	0.5640957	-2.0462334
1277309193789	5.6252036	-3.1463003	7.246025	-0.10886669	0.0	-21.75	10.25	-43.375	-0.15208836	0.8438143	-2.0807683
1277309193829	6.782933	-3.759216	8.117727	1.4199867	0.0	-24.5	11.6875	-41.875	-0.17535283	0.8082471	-2.0768714
1277309193869	4.630918	-3.9771416	6.469665	-0.91172886	0.0	-26.6875	14.1875	-39.875	-0.8418215	0.81444335	-2.2803907
1277309193909	6.0474343	-4.0588636	1.920469	-2.2744498	0.0	-28.6875	16.9375	-37.9375	-0.068099104	0.25781447	-2.161911
1277309193949	4.862464	-3.718355	-3.255263	-2.8736525	0.0	-30.4375	19.875	-35.4375	-0.05586049	-0.48876044	-2.223643
1277309193989	2.8738933	-1.1849703	-3.568531	-5.0740156	0.0	-30.6875	21.875	-34.25	0.16830444	-0.85417044	-1.9618801
1277309194029	5.325556	-2.4516625	-1.2666923	-3.8085923	0.0	-28.6875	22.375	-35.9375	0.19303872	-0.21278584	-2.0022306
1277309194069	4.7535014	-3.568531	3.636633	-2.8384876	0.0	-21.75	20.125	-39.4375	0.16480973	0.5490683	-2.2147558
1277309194099	-1.1441092	-2.3018389	9.80665	0.33129025	0.0	-9.625	15.1875	-43.375	-1.4423623	1.3144456	2.6803148
1277309194139	-5.053149	3.8681788	17.774553	9.072754	0.0	2.0625	8.5	-46.0625	-0.40152797	1.22699	0.91744965
1277309194179	-5.7477865	1.5390993	18.196785	9.338293	0.0	11.6875	0.5625	-46.3125	-0.75348383	1.2547598	1.3091618
1277309194219	-2.1792557	-1.920469	10.991621	1.5623035	0.0	17.4375	-5.125	-45.8125	1.4202212	1.3124363	2.2931552
1277309194259	-0.040861044	-1.9885708	7.8180795	-1.7395287	0.0	17.875	-7.875	-46.0625	0.7690803	1.3216721	3.1210475
1277309194299	0.84446156	-2.9556155	7.6273947	-1.5831518	0.0	17.875	-8.125	-45.8125	0.47717753	1.1877012	-2.863293
1277309194339	-0.23154591	-1.920469	8.049625	-1.5278654	0.0	18.625	-6.625	-46.3125	0.90814036	1.3349617	3.0216045
1277309194369	-1.3756552	-2.0294318	9.615966	0.11694908	0.0	19.125	-6.875	-46.0625	1.252083	1.3211501	2.545886
1277309194399	-1.8387469	-1.7978859	10.419566	0.9255791	0.0	19.875	-7.625	-45.8125	1.4496021	1.3288226	2.344959
1277309194439	-1.7570249	-1.607201	9.956474	0.43061543	0.0	20.125	-8.375	-45.3125	1.4902525	1.3360426	2.3116894
1277309194479	-0.84446156	-1.7297841	9.343558	-0.26687336	0.0	20.375	-9.375	-44.8125	1.2069371	1.3676245	2.6874385
1277309194519	-1.334794	-1.4165162	10.228881	0.6057558	0.0	20.125	-9.875	-45.0625	1.4811629	1.3827662	2.3858888
1277309194559	-1.6889231	-0.88532263	10.923519	1.2820616	0.0	20.125	-10.375	-44.0625	1.8461796	1.3979696	2.053611
1277309194599	-1.4165162	-0.95342433	11.34575	1.6668663	0.0	20.625	-11.3125	-44.3125	1.7635212	1.4214207	2.1632237
1277309194629	-0.7627395	-0.50395286	11.645397	1.8745747	0.0	20.125	-11.8125	-44.3125	1.8837824	1.4924546	2.1546667
1277309194659	-0.88532263	-0.7627395	11.727119	1.978548	0.0	19.875	-11.8125	-44.3125	1.7030954	1.4714776	2.281951
1277309194699	-0.84446156	-1.334794	10.147159	0.46270275	0.0	19.125	-11.3125	-44.8125	1.2971026	1.4163778	2.577509
1277309194739	-0.27240697	-2.4925237	7.5456724	-1.8552947	0.0	17.875	-9.625	-45.3125	0.7183004	1.2499835	3.032735
1277309194779	-0.42223078	-3.0645783	5.434519	-3.553338	0.0	17.1875	-7.375	-46.3125	0.5850867	1.0533041	3.0046768
1277309194835	-1.3756552	-2.8330324	5.243834	-3.689764	0.0	16.6875	-6.125	-46.5625	0.6673203	1.0299473	2.68955
1277309194869	-2.1111538	-1.6480621	10.95076	1.4668684	0.0	17.1875	-6.625	-46.5625	1.4535031	1.330932	2.2336237
1277309194909	-2.1383946	-1.4573772	14.941522	5.357312	0.0	17.6875	-9.125	-45.8125	1.657417	1.3993028	2.1690176
1277309194949	-1.0760075	-2.1111538	13.211738	3.6158972	0.0	18.125	-11.8125	-44.8125	1.1292334	1.3933313	2.670233
1277309194989	-1.334794	-2.5606253	8.771504	-0.5720539	0.0	17.875	-13.0625	-44.5625	0.9079309	1.252764	2.661069
1277309195029	-1.4573772	-2.3699405	7.9270425	-1.4055452	0.0	16.6875	-13.3125	-45.0625	0.8839526	1.233254	2.5902584
1277309195070	-0.53119355	-1.920469	9.084772	-0.5059271	0.0	15.9375	-12.5625	-46.0625	0.8175113	1.3548838	2.8717434
1277309195109	-0.46309182	-0.8036005	10.732834	0.96618366	0.0	14.6875	-12.5625	-46.8125	1.1916996	1.4845946	2.6188035
1277309195149	-1.879608	-0.040861044	10.119919	0.4864235	0.0	13.9375	-13.3125	-47.0625	1.9110643	1.3871127	1.592532
1277309195189	-0.53119355	0.38136974	11.141444	1.3539677	0.0	13.9375	-13.8125	-46.8125	2.957464	1.5121708	0.94812554
1277309195219	-0.23154591	-1.1849703	9.302697	-0.42592812	0.0	13.6875	-14.0625	-47.3125	0.754095	1.4417293	2.9486217
1277309195259	-0.84446156	-0.53119355	6.891896	-2.8429222	0.0	12.9375	-13.5625	-47.8125	1.400513	1.4270394	2.13229
1277309195299	-0.46309182	0.10896278	8.921328	-0.8726473	0.0	12.1875	-13.3125	-48.25	2.4517229	1.5175215	1.3397057
1277309195339	-0.040861044	-0.27240697	11.413852	1.6105251	0.0	12.1875	-14.0625	-48.25	0.81747335	1.546669	2.9927027
1277309195379	0.46309182	-0.42223078	10.95076	1.1620264	0.0	12.1875	-15.5625	-47.3125	-0.14731114	1.5136315	-2.3100734
1277309195420	-0.46309182	0.313268	7.4639506	-2.3217888	0.0	12.4375	-17.3125	-46.3125	2.721176	1.4960296	0.9760371
1277309195459	0.10896278	0.7627395	10.038197	0.26107216	0.0	12.6875	-19.75	-45.5625	-2.3178377	1.4941913	-0.14189705
1277309195499	-0.6946377	0.50395286	11.876944	2.1012583	0.0	11.6875	-21.5	-45.0625	2.6302016	1.4986645	0.9431669
1277309195539	0.19068487	-0.040861044	10.56939	0.7645397	0.0	10.5	-22.75	-44.8125	-0.9014973	1.5523444	-1.7818897
1277309195581	1.4982382	-0.6537767	10.147159	0.47133446	0.0	9.5	-23.25	-44.8125	-0.6128076	1.4110721	-1.9822526
1277309195619	0.7627395	-0.95342433	9.724928	-0.005373955	0.0	8.5	-23.75	-44.8125	-0.27327865	1.4458979	-2.4668517
1277309195669	0.040861044	-0.08172209	9.697687	-0.108532906	0.0	7.75	-24.25	-44.5625	-0.15183116	1.5613723	-2.6779451
1277309195709	1.5390993	0.7627395	10.228881	0.56545734	0.0	7.0	-25.9375	-43.8125	-1.4919033	1.4044188	-1.1106949
1277309195749	2.4108016	0.6946377	10.378705	0.87099075	0.0	6.5	-29.6875	-42.375	-1.3116993	1.3336127	-1.2902596
1277309195789	2.3699405	0.92618364	9.888372	0.4038515	0.0	7.25	-32.375	-41.125	-1.4083186	1.3189389	-1.1982421
1277309195829	2.3018389	1.4165162	9.656827	0.22127533	0.0	8.25	-36.125	-39.1875	-1.596559	1.297897	-1.0191413
1277309195869	1.8387469	1.7570249	9.425281	-0.04427147	0.0	10.0	-39.125	-36.9375	-1.8342593	1.3072405	-0.80812156
1277309195899	1.0760075	2.4925237	8.812365	-0.58557415	0.0	11.9375	-41.3125	-34.5	-2.2388546	1.2719488	-0.40752685
1277309195939	0.7218784	2.7649305	7.8861814	-1.4186945	0.0	12.9375	-44.0625	-31.75	-2.4072099	1.2231559	-0.25538293
1277309195979	-0.88532263	3.6774938	7.082581	-1.7772846	0.0	14.1875	-45.8125	-29.8125	-3.0330212	1.0802693	0.23624527
1277309196019	-1.607201	3.7864566	5.2165933	-3.1633682	0.0	15.9375	-47.5	-27.8125	2.966668	0.9030892	0.40141353
1277309196059	-2.6832085	4.399372	5.012288	-2.6179705	0.0	17.6875	-48.75	-26.375	2.585186	0.7715503	0.54767233
1277309196099	-3.9090397	3.9499009	6.2108784	-1.4725447	0.0	19.375	-48.75	-25.875	2.3104966	0.8408892	0.78019893
1277309196139	-5.7886477	3.445948	7.8180795	0.51349354	0.0	21.875	-47.75	-26.625	2.046233	0.85955983	1.0338442
1277309196179	-8.240311	2.9147544	8.580819	2.4419804	0.0	24.125	-45.0625	-28.0625	1.7555319	0.77617264	1.2308122
1277309196219	-7.7772183	2.1111538	5.8976107	0.17953587	0.0	27.0625	-42.0625	-30.0625	1.5014273	0.63177353	1.3057301
1277309196259	-4.0180025	2.982856	8.853226	0.36298084	0.0	28.5625	-40.5625	-31.25	2.596548	1.0563296	0.9321945
1277309196299	-0.6946377	3.8273177	10.419566	1.315321	0.0	28.0625	-40.0625	-31.5	-2.5524027	1.2134984	0.1795403
1277309196329	-3.2961242	5.6252036	6.8237944	-0.36887932	0.0	25.3125	-41.0625	-31.5	-3.0593896	0.8081789	0.53002936
1277309196369	-8.471856	5.6660647	6.510526	2.2872982	0.0	21.125	-42.5625	-31.5	1.388565	0.5684533	0.98131114
1277309196399	-2.8330324	4.0588636	8.471856	0.005220413	0.0	17.875	-43.5625	-29.8125	2.7464533	1.0420283	0.6093734
1277309196429	-0.6537767	4.0180025	10.501288	1.456068	0.0	14.9375	-44.0625	-28.0625	-2.910902	1.20098	0.16129832
1277309196459	-3.636633	4.7535014	8.771504	0.8122082	0.0	13.4375	-43.8125	-26.375	2.4832969	0.97202873	0.6530593
1277309196499	-5.434519	5.5162406	6.973618	0.6142063	0.0	12.1875	-44.0625	-23.625	1.9619935	0.7331292	0.7779357
1277309196539	-5.8976107	6.3607025	7.0553403	1.3745022	0.0	11.1875	-44.5625	-21.1875	1.9569322	0.68284535	0.74763834
1277309196582	-4.1814466	7.164303	8.158588	1.8283958	0.0	10.5	-45.8125	-17.25	2.5096607	0.7770905	0.52831084
1277309196619	-3.336985	9.575105	7.8589406	3.0222645	0.0	9.75	-47.5	-13.5625	2.8110266	0.65934074	0.3353436
1277309196659	-5.202973	14.328606	-4.440233	6.0708666	0.0	9.0	-49.25	-10.125	0.3410603	-0.28343517	0.348313
1277309196699	-3.445948	9.656827	0.92618364	0.4883337	0.0	8.75	-50.25	-6.625	1.3351977	0.09008636	0.34275585
1277309196739	-1.1849703	10.337844	3.8273177	1.2804384	0.0	7.75	-51.0	-4.1875	-3.0059931	0.35245714	0.114126414
1277309196779	-2.9556155	9.425281	0.84446156	0.10721302	0.0	6.75	-51.25	-1.75	1.854564	0.085283205	0.30387196
1277309196819	-2.8330324	8.499097	2.2609777	-0.56691265	0.0	5.0	-51.25	1.75	2.454828	0.24721184	0.32175055
1277309196859	-1.8387469	10.079058	-0.5720546	0.45471573	0.0	2.5625	-51.5	3.9375	1.7302957	-0.055777308	0.18044801
1277309196899	-1.7978859	10.882658	-1.3756552	1.3089724	0.0	1.5625	-51.5	6.1875	1.5445466	-0.124076836	0.16372764
1277309196939	-1.8387469	11.645397	-0.95342433	2.0215063	0.0	0.8125	-51.5	6.875	1.9333111	-0.08069388	0.15660188
1277309196980	-4.7943625	13.824653	5.8567495	5.9543285	0.0	2.3125	-51.25	3.6875	2.5490727	0.38072976	0.33381945
1277309197019	-2.1383946	11.413852	4.944186	2.8145123	0.0	4.75	-49.5	-2.6875	2.8847437	0.40251958	0.18520385
1277309197049	-0.53119355	8.921328	-1.3075534	-0.7743778	0.0	8.0	-46.5	-11.3125	-0.2826329	-0.14527507	0.05947177
1277309197082	0.5720546	6.891896	2.0294318	-2.5994267	0.0	11.4375	-43.5625	-18.75	-1.1884184	0.2854435	-0.08281411
1277309197119	-0.53119355	4.862464	8.158588	-0.29411697	0.0	15.1875	-39.8125	-23.875	-2.704873	1.0307158	0.108812205
1277309197159	-1.9477097	3.486809	9.507003	0.5052128	0.0	18.625	-36.625	-25.875	3.0841415	1.1730804	0.5094171
1277309197199	-2.4925237	2.0294318	9.915613	0.6169119	0.0	21.625	-33.625	-27.5625	2.7193644	1.2573259	0.887452
1277309197239	-0.29964766	0.6537767	12.299174	2.5135326	0.0	23.875	-29.4375	-30.5625	-2.877185	1.512389	0.42976227
1277309197279	-0.6537767	-0.3405087	10.460427	0.679718	0.0	24.625	-24.25	-33.75	1.8163154	1.5004431	2.0509713
1277309197319	-1.6480621	0.08172209	10.528529	0.8504	0.0	24.625	-19.75	-36.9375	2.3834956	1.4153353	1.5212501
1277309197359	-0.38136974	1.0351465	9.888372	0.14306736	0.0	24.125	-15.5625	-38.6875	-2.391258	1.4596941	0.3529904
1277309197389	0.040861044	-0.38136974	9.615966	-0.18303776	0.0	23.875	-11.8125	-39.4375	0.9567137	1.5309306	-3.034857
1277309197419	0.7627395	-1.3756552	9.193735	-0.4793272	0.0	24.125	-9.625	-40.125	0.5534452	1.401347	-2.6353352
1277309197459	0.42223078	-1.6480621	9.80665	0.14647865	0.0	24.875	-6.625	-40.625	0.859481	1.3990226	-2.8907888
1277309197499	-0.46309182	-0.84446156	9.193735	-0.5626068	0.0	25.8125	-4.125	-40.875	1.7511411	1.4664207	2.6399887
1277309197539	-1.525479	-0.53119355	8.308413	-1.3426695	0.0	26.5625	-2.4375	-40.625	2.5401883	1.3787723	1.9058794
1277309197582	-1.3075534	-0.8036005	8.730643	-0.94213676	0.0	26.8125	-0.4375	-40.375	2.385503	1.3967851	2.1218698
1277309197619	-0.9942854	-0.6946377	9.275456	-0.4522276	0.0	26.5625	0.8125	-40.625	2.427518	1.4407697	2.1806023
1277309197659	-1.4982382	-0.38136974	9.112013	-0.5644131	0.0	26.0625	2.3125	-41.125	2.9199421	1.4027289	1.8200485
1277309197699	-2.5606253	-0.10896278	9.724928	0.25033283	0.0	25.8125	3.3125	-41.625	-2.989852	1.3131119	1.6133238
1277309197739	-2.2201166	-0.3405087	9.997335	0.4398899	0.0	25.8125	3.75	-41.625	3.1289396	1.3497983	1.7229847
1277309197779	-2.1383946	-0.7627395	9.724928	0.17977715	0.0	25.5625	4.25	-41.875	2.8507411	1.3414471	1.9134167
1277309197819	-2.2201166	-0.95342433	9.507003	0.00258255	0.0	24.875	4.25	-42.375	2.724516	1.3219179	1.9764284
1277309197859	-2.0294318	-1.1441092	9.275456	-0.24309063	0.0	24.125	4.75	-42.375	2.5824928	1.3247168	2.0841413
1277309197899	-2.3018389	-0.95342433	9.466142	-0.018119812	0.0	22.875	5.0	-42.625	2.7947772	1.3134336	1.9634849
1277309197939	-2.9147544	-0.6946377	10.419566	1.0351982	0.0	23.125	5.0	-42.375	3.096514	1.2907791	1.8047501
1277309197979	-2.3699405	-0.8036005	11.223166	1.6921263	0.0	23.375	4.75	-42.125	2.9288986	1.3514109	1.8977103
1277309198019	-1.4982382	-1.1168685	10.61025	0.96690655	0.0	24.125	4.5	-42.375	2.4958575	1.39646	2.211382
1277309198059	-1.4573772	-1.334794	9.343558	-0.25637817	0.0	24.625	5.0	-42.125	2.3328176	1.3623575	2.3123202
1277309198099	-1.3756552	-1.1849703	9.193735	-0.43534565	0.0	24.625	5.25	-41.625	2.414786	1.3758177	2.2818637
1277309198139	-1.3756552	-1.2258313	9.084772	-0.5369053	0.0	25.3125	6.0	-40.875	2.429104	1.3706906	2.2986665
1277309198179	-1.4573772	-1.525479	8.853226	-0.70551586	0.0	25.3125	7.0	-40.375	2.3218877	1.3368568	2.3790216
1277309198219	-1.3756552	-1.3756552	9.534244	-0.07594299	0.0	26.5625	7.25	-39.625	2.419486	1.3695086	2.3561945
1277309198259	-1.7297841	-0.95342433	10.079058	0.46411324	0.0	27.3125	7.75	-39.4375	2.8255262	1.3772838	2.0745459
1277309198299	-2.1383946	-0.7627395	9.80665	0.25937653	0.0	27.5625	7.5	-39.4375	3.0256398	1.3432928	1.9134167
1277309198339	-2.3018389	-0.95342433	9.043911	-0.42582893	0.0	28.0625	7.5	-38.9375	2.9262977	1.3019773	1.9634849
1277309198379	-2.1792557	-1.3756552	9.084772	-0.36341667	0.0	28.0625	7.75	-39.1875	2.6598046	1.2943827	2.1338775
1277309198409	-2.1383946	-1.3756552	9.888372	0.4033966	0.0	28.3125	8.0	-38.9375	2.6865516	1.3191121	2.1424556
1277309198439	-2.3426998	-1.1849703	10.378705	0.89895153	0.0	28.3125	8.75	-38.9375	2.8827345	1.323039	2.0390842
1277309198479	-2.3426998	-1.2258313	10.119919	0.6529703	0.0	28.3125	8.75	-39.4375	2.8549013	1.315239	2.052875
1277309198519	-2.070293	-1.4165162	9.084772	-0.38191032	0.0	28.3125	9.0	-39.4375	2.6733708	1.3013866	2.1708465
1277309198559	-2.3426998	-1.4165162	8.962189	-0.4356537	0.0	27.8125	9.25	-39.4375	2.7530415	1.2743313	2.1146288
1277309198589	-2.4925237	-1.3756552	9.466142	0.07833576	0.0	27.8125	9.75	-39.4375	2.8522866	1.2786511	2.0751066
1277309198629	-2.6423476	-1.6480621	9.425281	0.11978054	0.0	27.8125	9.75	-39.4375	2.8522866	1.2786511	2.0751066
1277309198669	-2.6423476	-1.8387469	9.152874	-0.10417175	0.0	28.0625	10.0	-39.4375	2.6331487	1.2325989	2.1787493
1277309198709	-2.6423476	-1.3075534	10.528529	1.1268587	0.0	28.5625	9.25	-39.4375	2.9026244	1.297772	2.0303118
1277309198749	-2.982856	-0.53119355	10.800936	1.4111843	0.0	28.5625	8.0	-39.1875	-2.9821854	1.2973136	1.747031
1277309198789	-3.0237172	-0.50395286	9.343558	0.026910782	0.0	28.8125	7.25	-39.4375	-2.990347	1.253782	1.735945
1277309198829	-2.7921712	-1.2258313	8.771504	-0.5201988	0.0	29.0625	6.75	-38.9375	2.788116	1.2362173	1.9844855
1277309198869	-2.0294318	-1.4165162	9.043911	-0.43021965	0.0	29.0625	7.0	-38.9375	2.5600848	1.3036821	2.1801698
1277309198899	-2.4925237	-1.525479	8.499097	-0.819191	0.0	29.8125	7.5	-38.4375	2.600446	1.2396239	2.1200085
1277309198939	-2.8738933	-1.7297841	8.19945	-0.94762135	0.0	29.8125	8.5	-37.4375	2.6023874	1.1824782	2.1126087
1277309198979	-2.4516625	-1.879608	9.302697	-0.004418373	0.0	29.5625	8.5	-37.9375	2.505354	1.2501715	2.224879
1277309199019	-2.4516625	-1.7570249	10.732834	1.34196	0.0	29.8125	8.5	-37.4375	2.614475	1.2968322	2.1926208
1277309199059	-2.4516625	-1.3756552	10.419566	0.9854965	0.0	29.3125	8.75	-37.4375	2.8029978	1.3072672	2.0821302
1277309199089	-2.4925237	-1.4573772	8.689782	-0.64974403	0.0	29.3125	8.5	-37.6875	2.7101994	1.2500067	2.0998895
1277309199129	-2.6423476	-1.4982382	8.008764	-1.2411947	0.0	29.0625	8.75	-37.1875	2.7070572	1.2082801	2.0866053
1277309199169	-3.0237172	-0.9942854	9.302697	0.02552414	0.0	28.5625	9.25	-37.4375	3.1333	1.2411242	1.8884873
1277309199209	-3.5276701	-0.6537767	9.765789	0.5973158	0.0	28.8125	9.5	-37.9375	-2.877623	1.2187243	1.7540454
1277309199249	-3.759216	-0.7218784	9.466142	0.4041605	0.0	29.3125	9.25	-37.9375	-2.894232	1.1865214	1.7605158
1277309199289	-3.214402	-1.0351465	9.80665	0.5651531	0.0	30.0625	9.25	-38.1875	3.1178799	1.2391593	1.8823432
1277309199329	-2.9556155	-1.334794	9.575105	0.3027506	0.0	30.8125	9.25	-38.4375	2.9080405	1.2442275	1.9949907
1277309199369	-2.6423476	-1.607201	8.853226	-0.42876625	0.0	30.8125	9.75	-37.9375	2.7198927	1.2347132	2.117258
1277309199409	-2.4516625	-1.6889231	8.62168	-0.6854391	0.0	30.8125	10.6875	-37.6875	2.6792567	1.2383113	2.1740263
1277309199449	-2.7513103	-1.3756552	9.112013	-0.18943024	0.0	30.3125	10.6875	-37.6875	2.9249756	1.2452261	2.0344439
1277309199519	-2.9556155	-0.88532263	9.697687	0.37001896	0.0	30.0625	11.1875	-37.1875	-3.0332768	1.2627684	1.8618302
1277309199559	-2.9147544	-1.0760075	9.507003	0.19518375	0.0	30.3125	10.5	-37.1875	3.1074126	1.2549248	1.9244362
1277309199589	-2.9147544	-1.3075534	9.507003	0.22273636	0.0	30.5625	10.25	-36.9375	2.973846	1.2466239	1.9924839
1277309199629	-2.6423476	-1.7570249	9.534244	0.24177933	0.0	30.3125	10.25	-36.4375	2.7082357	1.2495075	2.1576085
1277309199669	-2.4516625	-2.1383946	9.193735	-0.054309845	0.0	30.3125	9.75	-36.4375	2.4574573	1.230695	2.288051
1277309199709	-2.7240696	-2.2609777	8.390134	-0.70022774	0.0	29.8125	10.25	-36.6875	2.428878	1.1715198	2.263564
1277309199749	-3.173541	-1.4982382	8.921328	-0.2198801	0.0	29.3125	9.75	-36.9375	2.9002218	1.1960143	2.0118783
1277309199789	-3.486809	-0.50395286	10.228881	1.0119362	0.0	30.3125	8.5	-37.4375	-2.9104812	1.2391005	1.7143337
1277309199829	-3.5957718	0.08172209	10.419566	1.216218	0.0	31.0625	7.0	-37.4375	-2.7158542	1.2384155	1.5480729
1277309199859	-3.336985	-0.08172209	9.466142	0.23077965	0.0	31.3125	5.25	-37.1875	-2.8877614	1.231786	1.5952812
1277309199889	-3.214402	-0.14982383	8.894087	-0.348341	0.0	31.5625	3.5625	-37.1875	-3.0203876	1.2236471	1.6173728
1277309199929	-3.173541	-0.10896278	8.580819	-0.6571312	0.0	31.3125	2.8125	-36.9375	-3.0374956	1.2163643	1.6051176
1277309199969	-2.8738933	-0.19068487	8.499097	-0.8327837	0.0	30.8125	2.0625	-37.4375	-3.1405463	1.2440579	1.6370499
1277309200009	-2.7513103	0.0	8.853226	-0.5357647	0.0	31.3125	1.5625	-37.6875	-3.0583072	1.2694888	1.5707964
1277309200049	-3.0645783	0.3405087	9.152874	-0.14835358	0.0	31.5625	0.8125	-37.1875	-2.9045546	1.2458553	1.4601392
1277309200089	-3.1463003	0.42223078	9.534244	0.24219513	0.0	31.5625	0.0625	-36.6875	-2.9102244	1.2493832	1.4373943
1277309200129	-2.9556155	-0.23154591	8.076866	-1.2028694	0.0	31.8125	-1.1875	-36.4375	2.9306285	1.2190075	1.6489776
1277309200169	-2.3699405	-1.4982382	7.273266	-2.0116692	0.0	31.8125	-2.1875	-36.1875	2.0984004	1.2028565	2.1345448
1277309200209	-1.2666923	-1.8387469	8.008764	-1.4924574	0.0	32.25	-3.875	-35.4375	1.7440525	1.298903	2.5383627
1277309200249	-1.607201	-0.040861044	8.771504	-0.8890238	0.0	33.5	-7.625	-33.75	2.8338947	1.3895193	1.5962145
1277309200289	-3.5276701	2.4925237	9.275456	0.4252224	0.0	34.75	-12.5625	-29.8125	-2.6805532	1.1349801	0.95567876
1277309200329	-4.7943625	4.671779	8.921328	1.3468924	0.0	35.75	-20.0	-24.125	-2.587302	0.92707014	0.7983471
1277309200369	-5.134871	5.366417	5.5571017	-0.53051376	0.0	35.25	-27.6875	-18.5	-2.6483774	0.64234537	0.7633525
1277309200409	-3.7864566	5.9793324	4.440233	-1.4516907	0.0	33.5	-33.875	-13.5625	-2.486379	0.56030995	0.5645152
1277309200449	-1.879608	7.7363577	4.1814466	-0.81395054	0.0	30.0625	-38.875	-9.875	-2.1149523	0.48361465	0.23833977
1277309200489	-2.8738933	10.56939	4.0588636	1.8743448	0.0	25.5625	-43.0625	-6.625	-2.2392478	0.3548779	0.2654886
1277309200529	-4.2904096	12.571581	-1.8387469	3.6035423	0.0	20.375	-46.0625	-3.4375	-0.4046969	-0.13754894	0.32888404
1277309200569	-3.1054392	14.015338	2.1111538	4.7030163	0.0	14.4375	-48.75	0.25	-2.7059968	0.14601815	0.21805146
1277309200609	-2.4925237	11.304889	1.7297841	1.8982782	0.0	9.5	-51.25	3.9375	2.9911363	0.14832583	0.21700995
1277309200649	0.46309182	9.615966	2.2609777	0.082398415	0.0	6.0	-52.25	6.1875	-2.6977472	0.2306748	-0.04812146
1277309200689	-3.405087	8.499097	-0.10896278	-0.6501694	0.0	4.0	-53.0	7.375	1.9711964	-0.011900353	0.38105887
1277309200729	-3.5276701	7.668256	1.2666923	-1.2713642	0.0	4.0	-53.25	7.625	2.2478664	0.14895679	0.43116805
1277309200769	-2.2201166	8.117727	0.42223078	-1.3802223	0.0	4.25	-52.75	8.625	2.422829	0.05012891	0.26696178
1277309200809	-1.7297841	10.419566	0.84446156	0.7892275	0.0	3.75	-52.25	9.875	2.807623	0.079781786	0.16451268
1277309200849	-3.3642259	9.765789	0.10896278	0.52294445	0.0	3.0625	-51.75	11.5625	2.2844784	0.010548797	0.33175856
1277309200889	-2.2609777	8.771504	-0.08172209	-0.74806404	0.0	1.8125	-51.5	13.8125	2.4482741	-0.009021628	0.25227246
1277309200929	-0.95342433	7.014479	-0.6946377	-2.6936717	0.0	0.5625	-51.25	14.75	2.5629125	-0.09781367	0.13509443
1277309200969	-0.23154591	8.730643	0.23154591	-1.069869	0.0	-0.4375	-51.75	16.25	3.0392363	0.02650553	0.026514843
1277309201009	-2.0294318	9.466142	-0.6946377	-0.100520134	0.0	-2.1875	-52.25	17.0	2.3653193	-0.071628146	0.2111916
1277309201049	-1.2258313	5.8567495	-0.14982383	-3.821116	0.0	-5.125	-52.5	16.5	2.338885	-0.025033602	0.20632389
1277309201089	1.3756552	4.099725	-1.1441092	-5.3334904	0.0	-9.375	-52.25	16.25	-1.8571138	-0.25864625	-0.32374257
1277309201129	0.46309182	5.6660647	-1.920469	-3.8060713	0.0	-13.3125	-49.75	16.5	1.5074695	-0.32577944	-0.08154951
1277309201169	-0.53119355	9.193735	8.049625	2.4245968	0.0	-15.0625	-46.75	17.25	2.7515037	0.7183188	0.05771361
1277309201209	0.040861044	7.164303	-1.9477097	-2.3821988	0.0	-15.5625	-45.0625	16.75	1.8458169	-0.26544344	-0.0057033603
1277309201249	-8.158588	16.821129	4.5628166	9.437368	0.0	-13.5625	-44.0625	16.25	2.2185504	0.23938283	0.45159215
1277309201279	3.759216	11.917805	0.46309182	2.6985579	0.0	-8.625	-44.3125	16.25	-2.8637965	0.037040383	-0.30555066
1277309201309	2.152015	10.378705	0.10896278	0.7933769	0.0	-3.875	-44.5625	16.0	-2.8325841	0.010279662	-0.2044519
1277309201340	-3.759216	10.923519	2.4108016	1.9944916	0.0	0.5625	-44.0625	18.0	2.656122	0.20573372	0.3314445
1277309201379	-4.2086873	4.903325	0.7627395	-3.2999291	0.0	4.25	-44.0625	19.9375	2.327332	0.117493466	0.70931214
1277309201419	-3.568531	6.851035	1.3075534	-1.9720607	0.0	4.75	-44.3125	19.1875	2.5800586	0.1676796	0.4802076
1277309201459	-4.903325	12.871228	-0.38136974	3.9721947	0.0	4.0	-44.8125	18.25	2.5197747	-0.027681453	0.36397898
1277309201499	-3.8681788	8.349273	1.6889231	-0.4511366	0.0	4.0	-45.0625	17.0	2.5812235	0.18152227	0.43385512
1277309201539	-2.7240696	9.112013	1.2258313	-0.2174902	0.0	3.75	-45.3125	15.75	2.7266767	0.12818587	0.2904966
1277309201579	-2.1792557	9.575105	0.23154591	0.016047478	0.0	3.3125	-45.5625	15.25	2.7423487	0.02357472	0.223784
1277309201609	-3.0237172	9.275456	0.50395286	-0.037774086	0.0	3.3125	-46.0625	15.5	2.5826933	0.051610507	0.31512815
1277309201649	-3.445948	9.00305	0.88532263	-0.1260891	0.0	2.8125	-46.75	15.5	2.5165448	0.09158161	0.36555076
1277309201689	-3.1054392	9.152874	0.7627395	-0.11125851	0.0	2.5625	-47.0	15.75	2.5597467	0.07875168	0.3270981
1277309201729	-2.7921712	9.234595	0.61291564	-0.1397152	0.0	2.5625	-47.5	16.0	2.6028852	0.063445866	0.29362044
1277309201769	-2.9147544	9.302697	0.5720546	-0.041240692	0.0	2.8125	-47.25	15.75	2.585534	0.05861324	0.303635
1277309201809	-2.8330324	9.234595	0.53119355	-0.13266563	0.0	2.8125	-47.5	15.75	2.589835	0.05493712	0.2976696
1277309201849	-2.8330324	9.234595	0.42223078	-0.13803673	0.0	2.3125	-47.25	15.25	2.547372	0.043684144	0.2976696
1277309201889	-2.8738933	9.275456	0.6946377	-0.071359634	0.0	2.0625	-47.0	15.5	2.5735242	0.07141323	0.30045828
1277309201929	-2.982856	9.275456	0.84446156	-0.026842117	0.0	1.5625	-47.25	15.5	2.5512257	0.086455114	0.31114087
1277309201969	-3.2961242	9.193735	0.84446156	-0.0034713745	0.0	1.3125	-47.0	15.75	2.499051	0.0862485	0.34424344
1277309201999	-3.445948	9.193735	0.92618364	0.05525303	0.0	1.5625	-47.0	15.75	2.4937975	0.09405392	0.3586083
1277309202029	-3.255263	9.234595	0.9942854	0.03525448	0.0	1.8125	-47.0	15.75	2.538541	0.10119835	0.33890682
1277309202059	-3.173541	9.193735	1.1441092	-0.013534546	0.0	2.0625	-47.0	15.25	2.5612104	0.117095314	0.332379
1277309202089	-3.1054392	9.234595	1.0760075	-0.0046453476	0.0	2.3125	-47.0	15.0	2.5699458	0.1099959	0.32440308
1277309202129	-2.6423476	9.275456	0.88532263	-0.12161541	0.0	2.0625	-47.25	15.5	2.6325414	0.09153919	0.27752373
1277309202169	-2.3699405	9.043911	1.1168685	-0.3909006	0.0	2.0625	-47.5	15.75	2.6981895	0.11889698	0.2562856
1277309202209	-3.2961242	9.00305	1.3075534	-0.13044071	0.0	1.8125	-47.0	16.25	2.563334	0.13554542	0.35095575
1277309202249	-3.486809	9.00305	1.334794	-0.060141563	0.0	1.8125	-46.75	16.75	2.5507755	0.13738275	0.36950344
1277309202289	-3.5957718	8.812365	1.6480621	-0.14727879	0.0	2.0625	-46.3125	17.0	2.5693772	0.17145678	0.38741565
1277309202329	-3.6774938	8.771504	1.6480621	-0.15370369	0.0	2.3125	-45.8125	16.75	2.5633016	0.17157201	0.39699423
1277309202369	-3.336985	9.234595	1.3075534	0.09905052	0.0	2.5625	-46.3125	16.75	2.6061423	0.13238646	0.34675634
1277309202409	-2.6832085	9.275456	1.3075534	-0.06276035	0.0	2.5625	-46.3125	17.0	2.7151964	0.13459818	0.2815936
1277309202449	-2.6423476	9.384419	1.1849703	0.01442337	0.0	2.5625	-46.5	16.75	2.71177	0.120950565	0.27446166
1277309202489	-3.1054392	8.894087	1.1168685	-0.32003117	0.0	2.3125	-46.3125	16.5	2.597451	0.11800461	0.33592427
1277309202529	-3.636633	9.084772	1.0760075	0.03794098	0.0	2.0625	-46.5	16.0	2.503171	0.10951816	0.38076484
1277309202569	-3.8273177	8.894087	1.3756552	-0.026794434	0.0	1.5625	-46.3125	15.75	2.4799428	0.14113015	0.40636948
1277309202609	-3.1463003	9.152874	0.9942854	-0.0771637	0.0	1.0625	-46.0625	15.5	2.529682	0.102371715	0.33109608
1277309202649	-2.070293	9.275456	0.9942854	-0.25108624	0.0	1.0625	-46.3125	15.5	2.7192614	0.10424172	0.21960165
1277309202689	-2.7513103	9.343558	1.334794	0.024599075	0.0	1.0625	-46.0625	16.0	2.6404521	0.13619117	0.28636712
1277309202729	-3.9499009	9.302697	0.92618364	0.34222698	0.0	1.0625	-46.5	15.5	2.4158323	0.09138686	0.40152958
1277309202769	-3.5957718	9.00305	0.61291564	-0.09273529	0.0	1.3125	-46.75	15.0	2.4039772	0.063138604	0.3799846
1277309202809	-2.9556155	9.084772	0.38136974	-0.245574	0.0	1.3125	-47.25	15.25	2.47648	0.039898325	0.314537
1277309202849	-2.3699405	9.112013	0.7218784	-0.3638487	0.0	1.0625	-47.5	15.25	2.6136606	0.07652214	0.25445205
1277309202889	-2.4516625	9.234595	0.6537767	-0.22981262	0.0	1.3125	-47.25	15.5	2.6133935	0.06831959	0.25950047
1277309202919	-2.4516625	9.425281	0.7218784	-0.041012764	0.0	1.3125	-47.25	16.5	2.6503556	0.073987745	0.25447634
1277309202959	-2.2201166	9.043911	0.9942854	-0.44129658	0.0	1.5625	-47.0	16.5	2.7146056	0.106366806	0.24072185
1277309202999	-1.920469	9.534244	1.0351465	-0.025979042	0.0	2.3125	-46.5	17.25	2.837387	0.10603452	0.1987688
1277309203039	-1.8387469	9.888372	1.7297841	0.39888954	0.0	3.3125	-46.3125	17.5	2.9366655	0.17031686	0.18385057
1277309203079	-3.0645783	9.343558	1.1849703	0.0977869	0.0	4.25	-46.0625	17.5	2.7161474	0.119927615	0.31693238
1277309203109	-4.944186	8.894087	-0.040861044	0.36937237	0.0	4.5	-45.3125	17.75	2.3421533	-0.0040154345	0.5073585
1277309203149	-4.099725	9.275456	-0.38136974	0.34161472	0.0	4.5	-45.3125	17.75	2.3421533	-0.0040154345	0.5073585
1277309203189	-1.920469	9.847511	-0.3405087	0.2321558	0.0	4.5	-45.0625	18.25	2.894851	-0.033925753	0.19260326
1277309203229	-1.879608	9.575105	-0.10896278	-0.04819584	0.0	5.0	-45.0625	18.5	2.9348664	-0.01116622	0.19383685
1277309203259	-2.0294318	9.847511	0.313268	0.2526846	0.0	5.75	-45.5625	18.9375	2.9682093	0.031147057	0.20324035
1277309203299	-2.9556155	9.888372	0.14982383	0.5150757	0.0	7.5	-45.3125	19.4375	2.8610523	0.014515894	0.29044557
1277309203339	-2.1111538	9.656827	0.27240697	0.08200455	0.0	8.5	-45.0625	19.6875	3.0786335	0.02755091	0.21523148
1277309203379	-3.173541	9.152874	0.10896278	-0.11859894	0.0	9.5	-44.3125	20.6875	2.8858654	0.0112473685	0.3337553
1277309203419	-4.440233	8.62168	0.14982383	-0.10760403	0.0	10.6875	-43.3125	21.1875	2.7000835	0.015447889	0.4755817
1277309203459	-3.7864566	9.697687	-0.10896278	0.6046057	0.0	11.4375	-42.3125	21.9375	2.9246166	-0.010466054	0.37224612
1277309203499	-4.399372	9.275456	-0.84446156	0.49391747	0.0	13.1875	-41.5625	22.875	2.844462	-0.08207415	0.44287908
1277309203539	-5.366417	9.575105	-1.4165162	1.2607603	0.0	15.1875	-40.3125	24.125	2.8052058	-0.12834188	0.51083475
1277309203579	-5.134871	9.193735	-1.4573772	0.8242302	0.0	17.4375	-38.875	25.875	2.9553945	-0.13752212	0.5093598
1277309203609	-4.1814466	8.771504	-1.0351465	-0.034480095	0.0	19.375	-37.625	27.0625	-3.0837498	-0.106127106	0.444841
1277309203649	-4.140586	8.349273	-0.50395286	-0.47344208	0.0	20.625	-36.125	28.5625	-3.0494711	-0.054021947	0.4603797
1277309203689	-3.9090397	8.049625	-0.3405087	-0.8515949	0.0	20.625	-35.125	29.3125	-3.0264432	-0.038033355	0.45207563
1277309203729	-3.759216	7.6273947	-0.38136974	-1.2946415	0.0	20.125	-34.625	29.8125	-3.0438578	-0.044818733	0.457917
1277309203769	-4.2495484	8.117727	-1.0760075	-0.58092785	0.0	19.875	-34.375	30.5625	-3.0769408	-0.1168973	0.4822625
1277309203809	-3.8273177	8.921328	-1.6889231	0.046821594	0.0	19.375	-34.375	30.5625	-2.9616985	-0.17225444	0.40526026
1277309203849	-3.486809	9.275456	-2.3018389	0.36637306	0.0	19.375	-34.875	30.5625	-2.8673034	-0.22824554	0.35957506
1277309203889	-3.0237172	8.390134	-2.6832085	-0.49338913	0.0	19.375	-35.625	30.5625	-2.8075535	-0.29224864	0.34590048
1277309203929	-3.636633	9.084772	-1.879608	0.15784168	0.0	18.875	-35.875	30.3125	-2.954701	-0.18976752	0.38076484
1277309203969	-4.0180025	8.049625	-2.6423476	-0.42993355	0.0	18.625	-36.125	30.5625	-3.11191	-0.28566837	0.46297055
1277309204009	-3.173541	8.771504	-3.0645783	0.011816978	0.0	18.375	-36.125	30.5625	-2.847688	-0.31742778	0.34714925
1277309204049	-1.920469	9.00305	-2.7513103	-0.19869423	0.0	18.375	-35.625	30.5625	-2.6169116	-0.29042295	0.2101633
1277309204079	-1.4165162	8.689782	-2.9556155	-0.5193205	0.0	18.875	-35.125	30.3125	-2.4820428	-0.32387418	0.16158816
1277309204109	-1.6889231	8.894087	-3.2961242	-0.1722498	0.0	19.375	-34.625	30.3125	-2.4634144	-0.34917244	0.18765849
1277309204149	-2.1792557	8.853226	-3.486809	-0.045165062	0.0	19.625	-34.375	30.3125	-2.5066643	-0.3652691	0.24135551
1277309204189	-2.1383946	8.430995	-3.336985	-0.4905424	0.0	19.875	-34.125	30.0625	-2.4970574	-0.36633414	0.24839683
1277309204229	-2.4108016	8.689782	-3.2961242	-0.20515442	0.0	19.875	-34.125	30.0625	-2.4970574	-0.36633414	0.24839683
1277309204259	-2.4516625	8.349273	-2.982856	-0.6078224	0.0	19.875	-34.625	30.3125	-2.6167235	-0.33023444	0.2856098
1277309204299	-2.3426998	7.5456724	-2.9147544	-1.3851767	0.0	20.625	-34.375	29.8125	-2.5610547	-0.35342145	0.3010338
1277309204339	-2.4925237	8.117727	-3.214402	-0.72686195	0.0	20.375	-34.875	30.0625	-2.5645437	-0.3618631	0.29790932
1277309204379	-2.2609777	8.076866	-3.5276701	-0.7076254	0.0	20.375	-35.625	30.3125	-2.466468	-0.39813253	0.27294618
1277309204409	-1.334794	8.19945	-3.486809	-0.797184	0.0	20.375	-35.125	29.5625	-2.2863376	-0.3973934	0.1613751
1277309204439	-0.84446156	9.425281	-3.5276701	0.29253197	0.0	21.125	-35.375	29.3125	-2.2520897	-0.35682666	0.08935679
1277309204479	-2.4516625	11.985906	-3.336985	2.874362	0.0	22.125	-34.875	28.0625	-2.4265842	-0.26628393	0.20176235
1277309204519	-4.944186	10.501288	-2.7921712	2.1314516	0.0	22.625	-34.375	26.875	-2.804028	-0.23607405	0.44002995
1277309204559	-4.862464	5.407278	1.8387469	-2.3057704	0.0	23.375	-34.625	26.625	2.9824426	0.24766152	0.73239744
1277309204599	-3.2961242	10.269742	-1.6889231	1.1105146	0.0	23.375	-35.125	25.625	-2.5973163	-0.15532729	0.31056893
1277309204639	-3.636633	10.147159	-0.9125633	1.0110531	0.0	23.625	-35.375	25.125	-2.6956081	-0.0844587	0.34412894
1277309204679	-2.9556155	8.921328	-1.2258313	-0.32886505	0.0	24.625	-35.625	24.625	-2.5728533	-0.12970065	0.31991738
1277309204719	-2.1111538	9.466142	-0.23154591	-0.10518551	0.0	25.0625	-35.875	23.125	-2.4969914	-0.023869375	0.21943055
1277309204759	-2.3426998	10.841797	0.19068487	1.2870035	0.0	24.875	-36.125	22.6875	-2.5218232	0.01718949	0.21280858
1277309204799	-3.5957718	9.656827	-0.23154591	0.50050735	0.0	24.875	-37.125	22.4375	-2.6918738	-0.022466464	0.3564501
1277309204839	-2.7240696	9.152874	0.53119355	-0.24224663	0.0	24.375	-37.375	21.4375	-2.6510396	0.055567186	0.289271
1277309204879	-2.1383946	9.00305	-0.29964766	-0.54827976	0.0	23.875	-38.125	21.1875	-2.5121224	-0.032370705	0.2331977
1277309204919	-2.5606253	8.62168	-0.6537767	-0.7890234	0.0	24.125	-38.375	20.6875	-2.5318928	-0.07256353	0.28870076
1277309204959	-3.405087	8.008764	-0.84446156	-1.0631933	0.0	23.875	-38.375	19.4375	-2.7082045	-0.0967329	0.4020147
1277309204999	-1.1168685	9.888372	-0.5720546	0.16102505	0.0	23.125	-39.5625	18.75	-2.29245	-0.05742253	0.11247101
1277309205039	0.50395286	10.310603	-1.334794	0.60220146	0.0	22.125	-40.3125	17.25	-2.036085	-0.12859054	-0.04883828
1277309205079	3.5276701	11.495573	-0.0	2.2180185	0.0	20.375	-40.8125	15.75	-2.035059	-0.0	-0.29774943
1277309205109	1.0351465	11.563675	-1.9885708	1.9723368	0.0	19.625	-41.5625	15.0	-1.9056659	-0.169636	-0.08927912
1277309205149	-4.140586	11.917805	-4.140586	3.4720163	0.0	19.625	-41.5625	14.5625	-1.4864252	-0.3171105	0.33438218
1277309205189	-0.61291564	10.732834	-1.1849703	1.0087805	0.0	20.125	-41.3125	15.0	-2.095436	-0.10978333	0.05704464
1277309205229	-6.8237944	10.882658	-5.5162406	4.1728106	0.0	20.625	-41.5625	16.25	0.95094866	-0.40562823	0.5600605
1277309205269	-3.7864566	11.876944	-1.7297841	2.7787056	0.0	20.625	-41.0625	18.25	-2.5965364	-0.13788065	0.30862066
1277309205309	-2.070293	9.615966	-0.040861044	0.029740334	0.0	19.875	-39.8125	21.9375	-2.6716726	-0.004154081	0.21206045
1277309205349	-4.2904096	9.765789	-1.525479	0.9685688	0.0	19.125	-38.375	25.875	-3.0358913	-0.14205015	0.41394588
1277309205389	-3.486809	8.240311	-0.29964766	-0.8539772	0.0	18.875	-36.625	29.0625	-3.0296538	-0.033476442	0.40029457
1277309205430	-2.5333846	8.158588	-0.9942854	-1.2061157	0.0	19.125	-34.875	32.0	-2.8589451	-0.115866475	0.30107775
1277309205469	-2.3426998	7.205164	-1.920469	-1.9905877	0.0	19.875	-33.625	33.75	-2.7923071	-0.24825001	0.3143601
1277309205509	-2.6832085	6.932757	-1.9477097	-2.1218405	0.0	20.375	-32.875	34.25	-2.84677	-0.2562443	0.36927855
1277309205549	-2.4108016	6.782933	-1.1168685	-2.521903	0.0	20.375	-32.125	35.0	-2.8574502	-0.1539231	0.34149665
1277309205589	-2.4516625	6.238119	-1.8387469	-2.8564148	0.0	18.625	-32.875	34.75	-2.920438	-0.26774654	0.3744687
1277309205629	-1.4982382	7.5456724	-3.8273177	-1.2141972	0.0	16.4375	-34.375	34.0	-2.5488024	-0.46165207	0.19600667
1277309205669	-0.29964766	9.343558	-6.4015636	1.5234814	0.0	14.1875	-36.125	33.5	-2.0630257	-0.60043746	0.032058984
1277309205709	-0.0	10.991621	-9.888372	4.9783297	0.0	11.6875	-37.875	32.75	-1.4868128	-0.7326096	0.0
1277309205749	-0.6946377	11.836082	-5.366417	3.2077188	0.0	10.6875	-38.625	33.0	-2.5978768	-0.4250272	0.058620904
1277309205789	-1.2666923	11.114203	-0.14982383	1.3805065	0.0	10.5	-38.625	32.5	-2.9542868	-0.013392886	0.113480926
1277309205829	-2.3426998	8.390134	-1.1168685	-1.0242825	0.0	10.25	-38.625	32.75	3.1227937	-0.12751698	0.272286
1277309205869	-4.2904096	8.730643	0.7218784	-0.052017212	0.0	10.5	-38.625	32.75	2.9307714	0.07407136	0.45675978
1277309205899	-2.1383946	10.528529	-0.3405087	0.9422388	0.0	9.5	-39.125	32.0	-3.0920575	-0.031683803	0.20037913
1277309205939	-0.95342433	9.80665	0.27240697	0.05000305	0.0	8.5	-39.8125	32.0	-3.0033019	0.027640382	0.09691763
1277309205979	-0.040861044	9.507003	0.14982383	-0.29837894	0.0	7.0	-40.5625	31.0625	-2.9295008	0.015757862	0.0042979675
1277309206019	-0.38136974	10.419566	-0.7218784	0.64485264	0.0	5.25	-42.0625	30.5625	-3.007916	-0.06912438	0.036584977
1277309206059	1.9477097	10.528529	-0.8036005	0.9306345	0.0	4.0	-42.5625	30.0625	-2.7320943	-0.0749121	-0.18292549
1277309206099	1.5390993	9.152874	-0.84446156	-0.48693752	0.0	2.5625	-43.3125	29.0625	-2.772643	-0.090734705	-0.16659619
1277309206139	1.3075534	8.853226	-0.38136974	-0.8492651	0.0	1.5625	-44.0625	28.8125	-2.8534927	-0.042588886	-0.14663228
1277309206179	2.4516625	9.234595	0.53119355	-0.2373991	0.0	0.3125	-43.5625	27.5625	-2.7744699	0.055539012	-0.25950047
1277309206219	3.0237172	9.997335	-0.14982383	0.63901997	0.0	-0.4375	-44.5625	26.125	-2.6865196	-0.014343644	-0.2937051
1277309206259	-0.14982383	9.534244	0.27240697	-0.2673397	0.0	-1.6875	-44.8125	24.625	3.0494995	0.028560136	0.015712993
1277309206299	-2.1111538	9.043911	0.61291564	-0.49939728	0.0	-2.9375	-45.5625	22.4375	2.659607	0.06590124	0.22932714
1277309206340	-0.50395286	9.724928	1.1441092	-0.0016937256	0.0	-3.875	-46.5	20.6875	2.9042153	0.116953254	0.05177442
1277309206379	2.1111538	11.413852	-0.8036005	1.8285875	0.0	-4.375	-46.75	18.75	-2.8765266	-0.06912113	-0.18289715
1277309206419	4.671779	11.264028	-1.607201	2.493225	0.0	-3.875	-47.5	17.25	-2.2234812	-0.13104281	-0.39315867
1277309206449	2.4925237	10.760075	-0.27240697	1.2417021	0.0	-3.1875	-47.75	16.5	-2.6776676	-0.02465839	-0.22763073
1277309206489	2.0294318	10.61025	-1.4982382	1.0993452	0.0	-2.1875	-48.25	16.25	-2.5137756	-0.13781331	-0.18898825
1277309206529	0.88532263	11.264028	-1.334794	1.5706863	0.0	-1.9375	-48.25	16.75	-2.974649	-0.117591254	-0.07843609
1277309206569	0.08172209	11.182305	-2.2201166	1.5942078	0.0	-2.1875	-48.5	18.25	2.9280581	-0.19598463	-0.007308031
1277309206609	-0.6537767	9.656827	-2.5333846	0.1983366	0.0	-2.4375	-48.0	19.9375	2.4743674	-0.2559992	0.067597836
1277309206649	-0.14982383	10.228881	-2.3426998	0.68814373	0.0	-2.9375	-46.75	23.125	2.8511257	-0.22512166	0.014646091
1277309206689	-0.9125633	11.645397	-1.6480621	1.9901361	0.0	-3.4375	-45.3125	27.0625	2.8143382	-0.1401628	0.07820277
1277309206729	0.46309182	11.223166	0.6537767	1.445076	0.0	-4.375	-42.8125	30.8125	3.0633843	0.058137313	-0.041238744
1277309206779	2.070293	10.147159	-1.7978859	0.7044554	0.0	-5.375	-40.5625	34.5	-3.0367467	-0.17189154	-0.20126453
1277309206819	-0.61291564	9.302697	-1.7297841	-0.32466793	0.0	-6.125	-38.625	36.6875	2.8527594	-0.18345585	0.06579071
1277309206859	-1.334794	6.973618	-0.53119355	-2.686595	0.0	-6.875	-37.125	38.9375	2.7790792	-0.074674636	0.18911885
1277309206899	0.3405087	7.082581	-1.56634	-2.5449476	0.0	-7.125	-35.875	40.375	2.9726384	-0.21740733	-0.048039936
1277309206939	0.88532263	7.504812	-2.4516625	-1.8620515	0.0	-7.625	-35.625	40.625	3.0183938	-0.3137155	-0.11742464
1277309206979	-1.0351465	6.701211	-1.607201	-2.8380885	0.0	-8.375	-35.875	40.375	2.7288036	-0.23273122	0.15326022
1277309207019	-0.46309182	7.1234417	-2.9556155	-2.0804906	0.0	-8.875	-36.625	38.6875	2.669236	-0.39255092	0.06491821
1277309207059	1.56634	10.269742	-4.671779	1.5839834	0.0	-9.125	-38.125	36.1875	2.951227	-0.42260993	-0.15135348
1277309207099	4.7943625	12.9529505	-8.812365	6.5769577	0.0	-8.875	-39.125	34.75	-2.5544758	-0.56791663	-0.35450014
1277309207139	5.175732	10.337844	-6.5513873	3.4816866	0.0	-8.125	-39.8125	34.0	-2.3406985	-0.5155551	-0.4641745
1277309207179	0.8036005	10.147159	-1.1168685	0.43336964	0.0	-7.625	-40.3125	34.5	2.9946096	-0.1092864	-0.07902969
1277309207219	-0.6946377	9.534244	0.50395286	-0.23386097	0.0	-6.625	-40.3125	35.25	2.8912287	0.052668657	0.072728634
1277309207259	-2.6423476	8.771504	-0.61291564	-0.6253128	0.0	-5.625	-40.5625	35.4375	2.6622832	-0.06680637	0.29259607
1277309207299	-5.8976107	9.043911	0.92618364	1.029953	0.0	-5.625	-40.8125	35.25	2.5210135	0.08557247	0.57785594
1277309207329	-3.7864566	10.760075	-1.0760075	1.6508474	0.0	-5.625	-41.3125	34.0	2.5820172	-0.094051555	0.33836535
1277309207369	-0.19068487	10.56939	1.3075534	0.84501934	0.0	-6.125	-42.0625	33.0	2.961945	0.123066135	0.018039279
1277309207399	3.5957718	10.528529	1.4982382	1.4194012	0.0	-7.125	-42.5625	32.0	-2.9562032	0.13386025	-0.32910618
1277309207429	2.8738933	10.460427	-0.7218784	1.0653744	0.0	-6.875	-43.5625	31.25	-2.9695852	-0.06644668	-0.26812407
1277309207469	0.313268	9.888372	-0.6946377	0.11103916	0.0	-6.375	-43.8125	30.3125	2.960068	-0.07009767	-0.031669848
1277309207509	-0.19068487	8.771504	-0.53119355	-1.0170078	0.0	-5.875	-44.5625	29.5625	2.8918407	-0.06047088	0.021735705
1277309207549	0.6537767	9.507003	-0.9942854	-0.22546387	0.0	-5.375	-45.0625	28.8125	3.0470748	-0.103961945	-0.06865981
1277309207591	1.4165162	9.80665	-0.42223078	0.110767365	0.0	-5.125	-45.3125	27.3125	-3.0861974	-0.04258754	-0.14345226
1277309207629	2.1111538	9.384419	-1.2666923	-0.104649544	0.0	-4.375	-46.3125	26.125	-2.8532217	-0.1309337	-0.2212799
1277309207669	3.214402	9.80665	-1.2258313	0.58591557	0.0	-3.1875	-46.75	24.375	-2.59249	-0.11822795	-0.31674224
1277309207709	4.099725	10.651112	-1.7978859	1.7469778	0.0	-1.6875	-47.25	22.6875	-2.3580308	-0.15624721	-0.3674309
1277309207749	3.8273177	11.727119	-3.0237172	2.8943958	0.0	-0.1875	-47.75	22.1875	-2.203341	-0.24037656	-0.31546572
1277309207789	3.1463003	11.223166	-0.9942854	1.8915234	0.0	1.3125	-47.75	21.9375	-2.4747417	-0.085097596	-0.27332377
1277309207829	0.38136974	11.073342	-1.2258313	1.3408613	0.0	2.3125	-47.5	22.875	-2.9201155	-0.110187404	-0.034426738
1277309207869	-0.95342433	11.563675	-3.1463003	2.2152796	0.0	3.3125	-47.25	24.125	3.0882592	-0.26479706	0.082263865
1277309207909	0.5720546	11.032481	-3.5957718	1.8111153	0.0	4.5	-46.75	25.625	-2.5360873	-0.3146738	-0.05180546
1277309207949	1.7978859	9.084772	-1.1849703	-0.47018242	0.0	5.25	-45.8125	28.3125	-2.5837667	-0.12726171	-0.19537653
1277309207989	-0.040861044	12.217452	-0.19068487	2.4123573	0.0	5.0	-44.0625	31.25	-2.9841094	-0.015606228	0.003344469
1277309208029	3.5276701	10.460427	0.50395286	1.2440948	0.0	4.25	-42.3125	34.75	-2.6932297	0.045619342	-0.32526207
1277309208069	1.4982382	10.310603	-0.53119355	0.6257715	0.0	3.5625	-40.8125	37.1875	-2.8801408	-0.050939597	-0.14430045
1277309208109	0.9942854	9.234595	-0.040861044	-0.5185919	0.0	2.5625	-39.5625	38.6875	-2.967269	-0.0043993234	-0.10725643
1277309208149	2.0294318	9.425281	1.607201	-0.032316208	0.0	3.0625	-39.8125	39.1875	-2.893743	0.16518088	-0.21208002
1277309208189	-0.7627395	9.425281	1.7978859	-0.18115902	0.0	4.5	-39.8125	38.6875	-3.1135914	0.18788731	0.080748886
1277309208229	-4.903325	7.504812	1.1849703	-0.7640314	0.0	5.25	-40.0625	37.9375	2.7496476	0.1314208	0.5787319
1277309208269	-4.7535014	6.3607025	-1.2666923	-1.7655792	0.0	6.0	-41.3125	36.6875	2.5621834	-0.1581867	0.64178586
1277309208309	-1.9477097	7.9270425	-3.8273177	-0.79111195	0.0	6.25	-42.5625	35.0	2.8478696	-0.43843672	0.24093172
1277309208349	1.3075534	14.437569	-9.765789	7.6725864	0.0	7.25	-44.3125	33.25	-1.8556728	-0.5928271	-0.09031963
1277309208389	4.372132	12.980191	-10.079058	7.198887	0.0	8.5	-45.0625	32.25	-1.6717134	-0.634398	-0.3248952
1277309208429	2.9147544	8.008764	-3.568531	-0.56703377	0.0	10.6875	-45.0625	31.25	-2.070084	-0.39653084	-0.34904408
1277309208469	-0.14982383	8.349273	2.070293	-1.2032261	0.0	12.1875	-44.8125	31.0625	-2.8707125	0.24302098	0.01794261
1277309208509	-3.445948	12.217452	-1.607201	2.9888096	0.0	11.6875	-44.5625	31.75	3.1086128	-0.12593979	0.27490982
1277309208549	-6.891896	7.9270425	1.9885708	0.88403034	0.0	11.9375	-44.8125	31.25	2.6539545	0.18709944	0.7156585
1277309208592	0.95342433	8.730643	6.4424243	1.0854559	0.0	11.4375	-44.8125	30.8125	-2.8303134	0.6328887	-0.10877333
1277309208629	5.5162406	12.9529505	-0.6537767	4.2871523	0.0	11.1875	-45.8125	29.8125	-2.352382	-0.046404187	-0.4026052
1277309208669	-0.040861044	8.853226	-1.9885708	-0.73274803	0.0	12.1875	-46.0625	27.3125	-2.5149937	-0.22094606	0.004615352
1277309208709	-1.879608	6.701211	1.1441092	-2.7534142	0.0	12.6875	-47.0	24.625	3.1267774	0.16293046	0.27346098
1277309208749	0.38136974	8.240311	1.2666923	-1.4608326	0.0	13.6875	-48.0	21.9375	-2.6383145	0.15236454	-0.04624799
1277309208789	-0.9125633	9.384419	-0.50395286	-0.36450672	0.0	15.1875	-48.0	18.25	-2.5503404	-0.05339809	0.096937604
1277309208829	0.50395286	11.604536	-2.8330324	2.1493235	0.0	16.1875	-48.5	15.0	-1.7471898	-0.23923077	-0.043399964
1277309208869	3.6774938	11.958665	-1.56634	2.8023558	0.0	17.4375	-48.5	12.8125	-1.8115247	-0.124545634	-0.29833883
1277309208899	3.9090397	11.836082	-0.5720546	2.671358	0.0	18.625	-48.75	11.3125	-1.8498007	-0.0458611	-0.3189862
1277309208939	5.366417	13.443283	2.1111538	4.821312	0.0	19.625	-48.5	11.3125	-2.0016942	0.14482895	-0.37980744
1277309208979	1.3756552	14.519291	-4.8216033	5.554017	0.0	19.875	-48.0	11.8125	-1.4401087	-0.31929034	-0.09446473
1277309209019	2.9147544	12.680544	-2.7240696	3.4866762	0.0	19.875	-47.5	13.3125	-1.7182012	-0.20638207	-0.22593576
1277309209059	-4.0180025	11.917805	1.6889231	2.8831444	0.0	18.875	-47.25	15.25	-3.0147102	0.1334891	0.32517517
1277309209099	-5.706926	14.2877445	4.440233	6.206604	0.0	18.125	-46.5	18.5	3.128421	0.28096703	0.3800132
1277309209139	-1.8387469	13.293459	-2.7513103	3.8925009	0.0	17.875	-45.3125	23.125	-2.4230194	-0.2022133	0.13744754
1277309209179	3.1054392	10.528529	2.1792557	1.3845444	0.0	16.6875	-43.8125	27.3125	-2.4464605	0.19598167	-0.28682166
1277309209219	1.7570249	5.8976107	1.5390993	-3.463325	0.0	16.1875	-41.8125	31.0625	-2.5250516	0.24507892	-0.2895488
1277309209259	-0.08172209	4.0588636	1.6480621	-5.425194	0.0	15.1875	-40.0625	33.5	-2.8400116	0.38563204	0.020131508
1277309209299	-1.1441092	4.5628166	1.7570249	-4.7851543	0.0	14.4375	-39.3125	34.5	-3.0471318	0.3574651	0.24568091
1277309209339	-3.3642259	2.4108016	1.334794	-5.4578967	0.0	14.9375	-39.125	35.0	2.6584184	0.31197318	0.94901663
1277309209379	-4.630918	3.1054392	-0.84446156	-4.1673	0.0	14.9375	-39.5625	33.75	2.425716	-0.15030983	0.9800837
1277309209409	-1.2666923	14.09706	-15.050485	10.853666	0.0	15.1875	-41.3125	31.75	-0.89233977	-0.8160905	0.089614406
1277309209439	2.5606253	19.041246	-17.161638	15.95471	0.0	15.6875	-42.0625	29.8125	-1.3773317	-0.72907156	-0.13367586
1277309209479	-1.0760075	8.812365	-6.510526	1.2025509	0.0	16.1875	-42.5625	28.3125	-1.275904	-0.6327584	0.12150059
1277309209519	-4.7126403	7.6954966	-5.09401	0.55571365	0.0	16.9375	-42.5625	28.5625	1.9025583	-0.51391196	0.54947954
1277309209559	-0.10896278	9.384419	7.3141265	2.0919065	0.0	17.875	-41.0625	28.8125	-2.7945015	0.6620145	0.011610509
1277309209599	-4.4810944	10.95076	3.636633	2.5717363	0.0	17.6875	-40.8125	29.3125	-3.119365	0.2981883	0.38841558
1277309209639	0.313268	11.114203	5.012288	2.3895254	0.0	17.1875	-40.8125	29.3125	-2.7410452	0.42352015	-0.028178815
1277309209679	3.8273177	10.760075	2.5333846	1.8914528	0.0	16.9375	-41.3125	27.3125	-2.4199004	0.21829326	-0.34174034
1277309209719	2.8330324	10.760075	-1.920469	1.4846506	0.0	15.4375	-42.8125	26.125	-2.2142756	-0.17091486	-0.25744835
1277309209759	-0.61291564	7.6273947	-0.7218784	-2.1206942	0.0	15.4375	-44.3125	23.125	-2.5786085	-0.09406038	0.08018485
1277309209799	-0.19068487	6.8237944	0.7627395	-2.9377127	0.0	14.9375	-45.5625	20.4375	-2.6484427	0.11127132	0.027936842
1277309209839	1.0351465	8.689782	0.92618364	-1.0065556	0.0	14.4375	-46.75	18.5	-2.4313915	0.10544229	-0.118563555
1277309209879	0.7627395	10.760075	-2.7921712	1.3359346	0.0	15.1875	-47.25	15.25	-1.7433165	-0.25328508	-0.0707677
1277309209919	2.5606253	11.686258	-1.7297841	2.2812614	0.0	15.9375	-47.25	13.5625	-1.8479698	-0.14359328	-0.21570525
1277309209959	3.759216	12.571581	-2.982856	3.6497154	0.0	16.6875	-47.0	11.3125	-1.6422832	-0.2235255	-0.290562
1277309209999	4.3312707	13.021052	0.42223078	3.92237	0.0	17.875	-45.8125	10.375	-1.9225892	0.030759469	-0.32112283
1277309210039	2.8738933	15.472715	-3.9090397	6.408922	0.0	18.875	-45.3125	10.5625	-1.583551	-0.24346514	-0.18364662
1277309210079	3.336985	13.6748295	-4.0588636	4.842951	0.0	19.125	-44.3125	11.5625	-1.5858772	-0.28073618	-0.23934622
1277309210109	1.56634	13.143636	-0.0	3.429987	0.0	19.875	-44.0625	13.8125	-2.0764143	-0.0	-0.1186116
1277309210149	-3.8681788	15.363752	8.158588	8.013851	0.0	19.375	-43.5625	16.75	-2.9212387	0.47554198	0.24664672
1277309210189	-3.2961242	15.363752	-1.8387469	6.013916	0.0	19.125	-42.3125	20.6875	-2.569994	-0.116488375	0.2113355
1277309210229	3.445948	12.789507	0.7627395	3.4608974	0.0	17.875	-41.5625	24.375	-2.325021	0.057520818	-0.26318568
1277309210269	3.568531	7.7772183	2.5606253	-0.8748894	0.0	16.1875	-39.8125	28.0625	-2.4162526	0.29076755	-0.43018433
1277309210309	1.5390993	4.3312707	3.0645783	-4.2821255	0.0	14.9375	-38.875	30.0625	-2.57471	0.58802944	-0.34142935
1277309210349	-1.4165162	3.759216	2.9147544	-4.8433833	0.0	13.9375	-38.125	31.25	3.1334326	0.62767595	0.36035794
1277309210389	-3.2961242	3.3778462	2.4925237	-4.469333	0.0	14.4375	-38.125	31.5	2.7963653	0.48589432	0.7731539
1277309210429	-5.284695	2.7240696	0.50395286	-3.8398652	0.0	15.1875	-38.625	30.0625	2.4429657	0.08456044	1.0948542
1277309210469	-1.9885708	9.534244	-8.117727	2.872219	0.0	15.4375	-39.8125	27.8125	-0.8943071	-0.694832	0.20562358
1277309210509	2.0294318	19.272793	-17.543009	16.33367	0.0	15.4375	-41.5625	25.125	-1.1839192	-0.73570395	-0.10491373
1277309210549	2.4108016	7.0553403	-7.7363577	0.93769836	0.0	15.1875	-42.0625	23.625	-1.2682936	-0.8038596	-0.32926053
1277309210579	-0.88532263	4.7943625	-4.3312707	-3.2851768	0.0	15.4375	-42.3125	23.125	-0.5507281	-0.7263633	0.18260212
1277309210609	0.040861044	6.3198414	9.084772	1.2601986	0.0	15.6875	-42.0625	23.625	-2.8202136	0.9629845	-0.006465427
1277309210649	-6.5513873	15.363752	-4.7943625	7.570101	0.0	15.1875	-41.3125	23.875	2.9379559	-0.27953294	0.40307146
1277309210689	-4.9850473	8.812365	5.325556	1.633193	0.0	14.6875	-41.5625	23.125	2.9549646	0.48422998	0.51480776
1277309210729	1.1849703	7.3549876	7.273266	0.60490036	0.0	13.6875	-42.5625	21.6875	-2.7039745	0.7734063	-0.15973847
1277309210769	4.9850473	13.143636	-0.9125633	4.2801743	0.0	13.4375	-43.0625	19.9375	-2.1345193	-0.064826734	-0.362513
1277309210809	1.0760075	9.80665	-1.1168685	0.1218729	0.0	13.9375	-43.8125	18.0	-2.1856391	-0.112729505	-0.109285064
1277309210849	-2.5333846	6.851035	-1.3756552	-2.373808	0.0	14.1875	-44.3125	15.25	2.8291624	-0.18615118	0.35418752
1277309210889	-0.23154591	7.5456724	0.7627395	-2.2189922	0.0	14.9375	-44.5625	12.0625	-2.4542966	0.100693785	0.030676294
1277309210919	0.6946377	8.662541	1.6480621	-0.9614105	0.0	15.9375	-44.8125	9.375	-2.2971807	0.18741718	-0.08001746
1277309210959	1.1849703	9.697687	-0.95342433	0.0095767975	0.0	16.6875	-44.5625	6.1875	-1.6642249	-0.09728074	-0.121588275
1277309210999	2.4925237	13.443283	-3.718355	4.3623543	0.0	17.875	-44.5625	3.6875	-1.3017876	-0.26553836	-0.1833285
1277309211039	4.1814466	12.067628	-1.920469	3.10847	0.0	19.125	-43.5625	2.4375	-1.4850528	-0.14925279	-0.33355436
1277309211079	4.440233	14.1787815	0.7627395	5.070691	0.0	20.125	-43.0625	1.5	-1.6732143	0.051291022	-0.3034864
1277309211119	1.9885708	15.431854	-3.7864566	6.2068996	0.0	21.125	-43.3125	1.5	-1.275349	-0.23871401	-0.12815519
1277309211159	3.718355	11.985906	-5.175732	3.7681904	0.0	21.875	-42.8125	2.6875	-1.2640773	-0.3911739	-0.30081302
1277309211199	1.2258313	14.015338	3.8273177	4.7734976	0.0	21.625	-42.8125	4.9375	-2.1199424	0.2656142	-0.08724154
1277309211239	-4.399372	14.750836	4.2086873	6.1512537	0.0	20.875	-43.0625	8.375	-2.782993	0.2668942	0.28984645
1277309211279	-3.9090397	14.669114	-1.9477097	5.498809	0.0	19.625	-42.5625	12.5625	-2.2591553	-0.12760188	0.26042902
1277309211319	2.7240696	10.61025	2.6832085	1.4715405	0.0	17.875	-42.5625	16.75	-2.301858	0.2402148	-0.2513115
1277309211349	4.2086873	7.3549876	1.7297841	-1.1578903	0.0	16.1875	-42.8125	20.1875	-2.1981344	0.20136172	-0.51974416
1277309211389	2.6014864	5.829509	3.173541	-2.6776767	0.0	14.6875	-42.5625	22.4375	-2.4167707	0.46135408	-0.4197408
1277309211429	-1.920469	3.336985	4.0180025	-4.241759	0.0	13.6875	-42.5625	23.375	2.947831	0.8067279	0.52221763
1277309211459	-4.440233	2.070293	3.405087	-3.8403778	0.0	13.4375	-42.5625	23.625	2.4096339	0.6073857	1.134505
1277309211499	-5.5571017	2.070293	1.4165162	-3.709601	0.0	12.9375	-43.0625	22.1875	2.2321332	0.23447065	1.2141762
1277309211539	-2.8738933	10.841797	-7.4639506	3.6660767	0.0	12.4375	-43.8125	19.1875	-0.08584953	-0.5871666	0.25911617
1277309211579	-0.19068487	19.422615	-17.774553	16.522215	0.0	12.4375	-44.8125	17.5	-0.6029996	-0.741097	0.009817357
1277309211619	-0.8036005	10.310603	-6.782933	2.5611506	0.0	12.1875	-45.3125	15.75	-0.6185484	-0.58049136	0.07778199
1277309211659	0.040861044	8.471856	-5.7477865	0.431077	0.0	12.6875	-45.3125	15.5	-0.7982396	-0.5961151	-0.0048231143
1277309211694	3.718355	8.281172	3.568531	-0.05275917	0.0	12.9375	-44.5625	17.25	-2.3381152	0.37455365	-0.42203295
1277309211739	-11.985906	6.1291566	-0.42223078	3.6620836	0.0	12.1875	-44.0625	18.5	2.0504847	-0.031354096	1.0980992
1277309211779	-1.7297841	11.563675	6.5513873	3.596014	0.0	12.4375	-44.5625	18.25	-2.9938893	0.5107278	0.14848673
1277309211819	3.445948	11.536434	3.214402	2.6551418	0.0	12.4375	-44.8125	17.25	-2.3965223	0.26089007	-0.2902649
1277309211849	5.284695	11.413852	-1.7297841	2.889656	0.0	13.1875	-45.8125	15.0	-1.8793976	-0.13666816	-0.4336179
1277309211879	1.1168685	9.343558	0.14982383	-0.3953848	0.0	14.6875	-46.3125	11.0625	-2.100794	0.015920298	-0.11896905
1277309211909	-2.3699405	7.6273947	-1.3075534	-1.7132292	0.0	15.1875	-46.0625	8.125	-1.7870438	-0.16226876	0.3012572
1277309211939	-1.4982382	8.008764	-1.1441092	-1.5790129	0.0	16.1875	-46.0625	5.1875	-1.3624872	-0.13950895	0.1849372
1277309211979	0.84446156	8.539958	0.27240697	-1.2207193	0.0	16.9375	-45.8125	2.1875	-1.7368282	0.031732455	-0.098563164
1277309212019	0.5720546	8.539958	-0.6946377	-1.2194118	0.0	17.6875	-45.5625	0.75	-1.4346789	-0.080980346	-0.066885725
1277309212059	0.9942854	11.264028	-1.334794	1.5796833	0.0	19.125	-45.0625	-1.75	-1.283373	-0.117497906	-0.08804267
1277309212099	5.243834	12.912089	-2.1383946	4.2927322	0.0	20.875	-43.8125	-3.1875	-1.3480226	-0.15225339	-0.38576952
1277309212139	2.7649305	12.299174	-1.879608	2.938837	0.0	22.625	-42.5625	-4.1875	-1.2760996	-0.14801228	-0.22112997
1277309212179	2.6014864	16.467001	-0.84446156	6.885952	0.0	24.375	-41.3125	-5.4375	-1.335966	-0.050610572	-0.15668683
1277309212219	2.7240696	14.246883	-4.8216033	5.4787064	0.0	25.0625	-40.8125	-4.4375	-1.1264019	-0.32091966	-0.18892431
1277309212259	1.1849703	11.34575	-1.6480621	1.7192478	0.0	24.875	-41.5625	-2.4375	-1.3036187	-0.14347953	-0.10406449
1277309212289	-1.9885708	14.7916975	7.7363577	7.004059	0.0	24.375	-42.3125	0.5	-2.424436	0.4782251	0.13363706
1277309212319	-3.173541	15.704261	3.990762	6.7045994	0.0	22.875	-43.5625	3.9375	-2.4058728	0.24411698	0.19939622
1277309212350	-2.8330324	15.28203	-3.0645783	6.0350084	0.0	21.375	-44.5625	7.375	-1.4173489	-0.19467796	0.1833023
1277309212389	-0.10896278	11.536434	1.8387469	1.8759089	0.0	19.625	-45.3125	10.5625	-2.312604	0.15804967	0.00944482
1277309212419	1.607201	6.973618	2.4925237	-2.228582	0.0	17.6875	-46.3125	13.3125	-2.3277776	0.3351521	-0.22651353
1277309212449	3.0645783	5.243834	2.8738933	-3.0873723	0.0	15.9375	-46.5	16.0	-2.2190526	0.4419563	-0.52888155
1277309212489	1.2666923	4.099725	3.405087	-4.3287973	0.0	14.4375	-46.3125	17.75	-2.5251155	0.6707961	-0.29966578
1277309212529	-3.486809	2.8738933	3.255263	-4.2376432	0.0	13.1875	-46.3125	18.75	2.5224411	0.62430316	0.8814613
1277309212569	-5.407278	1.7297841	2.2201166	-3.7107725	0.0	12.6875	-46.0625	18.25	2.1559916	0.37277332	1.2611848
1277309212609	-3.8681788	4.862464	-3.718355	-2.565619	0.0	11.9375	-47.0	16.5	1.1655161	-0.53927237	0.6720022
1277309212649	-0.08172209	18.428331	-18.305748	16.16854	0.0	10.9375	-47.75	14.3125	-0.42767516	-0.7820563	0.004434561
1277309212689	0.61291564	12.367276	-10.419566	6.376444	0.0	10.9375	-48.25	12.3125	-0.5594738	-0.6995259	-0.049518954
1277309212729	-0.84446156	7.3958488	-5.938472	-0.2841959	0.0	10.25	-48.0	11.8125	-0.21958117	-0.67337555	0.113688126
1277309212797	2.4108016	9.193735	3.8273177	0.4395733	0.0	10.5	-47.5	13.0625	-2.4760373	0.38281637	-0.25644842
1277309212839	-6.3607025	10.732834	4.903325	3.598381	0.0	11.4375	-47.5	13.5625	2.6907825	0.37447336	0.53498983
1277309212869	3.6774938	13.824653	6.0474343	5.724494	0.0	11.9375	-47.25	13.5625	-2.458078	0.3999526	-0.25998908
1277309212900	5.8976107	11.686258	-1.7978859	3.40633	0.0	12.9375	-48.0	12.3125	-1.7833613	-0.1364931	-0.46737027
1277309212939	2.4925237	10.119919	-0.08172209	0.61602306	0.0	13.9375	-48.0	9.125	-1.9085783	-0.007840879	-0.24149215
1277309212979	-1.4165162	7.082581	-1.2666923	-2.4735756	0.0	14.1875	-47.75	5.4375	-0.95570624	-0.17360763	0.19739555
1277309213019	-0.95342433	7.504812	-0.19068487	-2.2391152	0.0	15.1875	-47.25	1.0	-1.5455976	-0.02520042	0.12636481
1277309213059	0.19068487	8.008764	0.5720546	-1.775217	0.0	15.9375	-46.3125	-3.1875	-1.576158	0.071287334	-0.023805028
1277309213099	-1.56634	8.894087	-2.9556155	-0.30434132	0.0	17.4375	-45.3125	-6.625	-0.41539687	-0.31628904	0.17432272
1277309213139	3.2961242	12.789507	-0.84446156	3.4277391	0.0	20.125	-43.8125	-8.375	-1.2312903	-0.0638515	-0.25223216
1277309213179	6.0201936	11.645397	-2.5333846	3.5453548	0.0	22.375	-42.0625	-9.625	-1.2144212	-0.19089544	-0.4771226
1277309213219	2.8330324	14.669114	0.7627395	5.1529875	0.0	24.625	-40.8125	-10.125	-1.3161851	0.051008612	-0.19078025
1277309213259	0.08172209	16.3989	-4.7943625	7.2789135	0.0	25.5625	-39.5625	-10.375	-0.8862762	-0.28442854	-0.0049833474
1277309213299	2.9147544	12.53072	-5.5571017	4.207489	0.0	25.5625	-39.5625	-9.125	-1.0080193	-0.40773973	-0.22854461
1277309213329	-0.38136974	13.565866	2.4925237	3.9915695	0.0	25.0625	-40.8125	-6.625	-1.6117973	0.18163808	0.028105048
1277309213369	-3.2961242	16.88923	7.273266	8.875185	0.0	23.875	-42.0625	-3.4375	-2.333276	0.39989635	0.19273867
1277309213409	-5.7477865	16.821129	-2.4925237	8.143284	0.0	22.375	-44.0625	1.0	-0.8732733	-0.13930993	0.32926193
1277309213449	-1.2258313	11.34575	1.9885708	1.7770929	0.0	20.375	-45.5625	5.9375	-2.309866	0.17252368	0.10762572
1277309213489	1.9885708	6.66035	1.8387469	-2.6166806	0.0	18.375	-46.5	9.875	-2.135841	0.25861079	-0.290143
1277309213529	3.1463003	3.759216	3.486809	-3.7909417	0.0	16.6875	-47.75	13.0625	-2.104319	0.618259	-0.6968728
1277309213569	-0.95342433	1.6889231	4.0588636	-5.3082223	0.0	14.9375	-48.25	15.75	2.935857	1.1250402	0.5139197
1277309213609	-3.9499009	0.61291564	3.718355	-4.347388	0.0	13.4375	-48.5	16.25	2.0866213	0.7492767	1.4168516
1277309213649	-5.053149	2.6014864	1.1441092	-4.0091476	0.0	11.6875	-49.5	14.75	2.0680363	0.19864911	1.0953593
1277309213689	-1.1849703	16.821129	-16.548723	13.819918	0.0	10.5	-49.75	13.0625	-0.26265126	-0.77599776	0.07032917
1277309213729	-0.08172209	13.988097	-12.299174	8.819761	0.0	9.75	-50.25	11.5625	-0.3678855	-0.7212292	0.005842193
1277309213769	-2.7240696	5.829509	-5.202973	-1.5317087	0.0	9.25	-50.75	11.3125	0.5259615	-0.6799607	0.43713865
1277309213799	0.92618364	8.390134	0.42223078	-1.3549967	0.0	9.75	-50.25	13.3125	-2.3734171	0.04997917	-0.10994446
1277309213832	-3.173541	3.486809	9.084772	0.42869473	0.0	10.0	-50.25	15.5	2.6210468	1.0920829	0.7383981
1277309213869	-10.760075	9.343558	0.92618364	4.4740744	0.0	10.25	-50.5	15.75	2.0999088	0.06490106	0.85574263
1277309213909	1.7297841	15.28203	6.5513873	6.910206	0.0	10.6875	-50.75	14.3125	-2.6755333	0.40269923	-0.112711005
1277309213939	5.284695	9.888372	0.27240697	1.4086123	0.0	10.5	-51.5	11.3125	-1.9221387	0.024291342	-0.49081486
1277309213979	2.1792557	8.662541	-1.1849703	-0.7959385	0.0	11.1875	-51.5	7.375	-1.6178249	-0.13188887	-0.24645796
1277309214019	-0.5720546	8.662541	-1.1849703	-1.0447426	0.0	11.6875	-51.25	3.6875	-1.1848322	-0.13565683	0.065942
1277309214059	-1.2666923	7.8589406	-0.53119355	-1.828579	0.0	12.1875	-51.25	-1.0	-0.71164125	-0.06663099	0.15980414
1277309214089	-0.53119355	8.076866	0.313268	-1.7062759	0.0	14.1875	-50.25	-5.4375	-1.2624867	0.03868292	0.0656727
1277309214119	-0.0	8.240311	0.3405087	-1.5593071	0.0	15.6875	-49.25	-8.875	-1.1599512	0.041298818	0.0
1277309214159	0.08172209	8.812365	-0.9125633	-0.946785	0.0	17.875	-48.0	-11.8125	-0.8323114	-0.10318267	-0.009273305
1277309214199	2.070293	13.102775	-1.607201	3.5556822	0.0	19.875	-46.0625	-13.8125	-0.9591367	-0.1205704	-0.15670864
1277309214239	5.7477865	12.9529505	-2.9147544	4.660961	0.0	21.625	-44.5625	-14.75	-1.0664504	-0.20285597	-0.41763878
1277309214279	3.568531	14.7916975	0.23154591	5.4111795	0.0	22.875	-43.5625	-15.5	-1.1394821	0.015216023	-0.23672873
1277309214319	0.7627395	16.249075	-5.597963	7.3965874	0.0	23.625	-43.3125	-15.25	-0.7387845	-0.3314365	-0.046906054
1277309214349	2.2609777	12.980191	-5.597963	4.5088854	0.0	24.125	-44.5625	-12.5625	-0.85880077	-0.4017625	-0.1724565
1277309214379	0.23154591	14.2877445	3.759216	4.9691734	0.0	23.125	-46.0625	-8.875	-1.6974479	0.25724453	-0.016204491
1277309214409	-2.7513103	15.28203	8.117727	7.714983	0.0	21.625	-47.75	-4.6875	-2.5574148	0.4817124	0.17812747
1277309214439	-7.014479	17.924377	-1.920469	9.536938	0.0	20.125	-49.25	0.5	-0.16428109	-0.099445775	0.37301636
1277309214479	-3.9499009	14.9006605	-0.7218784	5.62554	0.0	18.375	-49.75	4.4375	-1.9439434	-0.04679452	0.2591226
1277309214519	0.6946377	7.6273947	3.2961242	-1.4685383	0.0	16.6875	-49.75	8.625	-2.4759104	0.4064034	-0.09082089
1277309214559	1.7570249	5.407278	2.3699405	-3.6469092	0.0	15.6875	-49.5	12.3125	-2.3111873	0.39493346	-0.31417495
1277309214601	1.2258313	2.7649305	3.8681788	-4.8964252	0.0	13.9375	-49.5	15.5	-2.463759	0.9071972	-0.41730982
1277309214639	-2.6423476	0.42223078	2.6014864	-6.074625	0.0	12.4375	-49.5	18.0	2.091579	0.7713043	1.4123421
1277309214679	-3.3642259	-0.19068487	2.2609777	-5.7487693	0.0	11.1875	-50.0	18.5	1.9476821	0.5909882	1.6274159
1277309214719	-4.4810944	7.9679036	-7.273266	1.8753061	0.0	9.75	-51.25	16.5	0.7491285	-0.67206955	0.5123083
1277309214759	0.88532263	19.381754	-16.970953	15.970266	0.0	9.25	-52.0	14.0625	-0.46174115	-0.7186616	-0.04564642
1277309214799	-3.3642259	2.4925237	-5.366417	-3.0001001	0.0	8.75	-52.5	13.0625	1.031096	-0.9082355	0.9331507
1277309214839	-7.43671	5.2165933	-6.851035	1.5711441	0.0	8.75	-52.5	13.0625	1.031096	-0.9082355	0.9331507
1277309214869	0.7627395	10.18802	3.990762	1.1616535	0.0	9.75	-51.25	15.25	-2.7469912	0.37239248	-0.0747269
1277309214909	-4.5219555	13.252599	3.1463003	4.545307	0.0	10.25	-50.25	16.75	2.9085283	0.22101954	0.32882518
1277309214949	-3.636633	9.152874	4.7535014	1.129344	0.0	10.5	-50.0	16.25	2.9076006	0.449667	0.37819514
1277309214989	2.6832085	11.917805	5.284695	3.503559	0.0	11.1875	-50.5	13.8125	-2.5282378	0.40829027	-0.2214504
1277309215029	3.405087	11.223166	-0.84446156	1.9520569	0.0	11.1875	-51.0	10.375	-1.8413734	-0.071877725	-0.29457134
1277309215069	1.7978859	9.084772	-0.6537767	-0.52263737	0.0	11.6875	-51.25	6.1875	-1.7004238	-0.070477955	-0.19537652
1277309215109	-2.2201166	7.205164	-0.5720546	-2.2455292	0.0	13.4375	-50.5	1.25	0.6436614	-0.07572975	0.29889736
1277309215149	-1.0760075	8.049625	1.4573772	-1.5556984	0.0	14.9375	-49.25	-2.0	-2.2728305	0.17756298	0.13288401
1277309215189	1.1849703	8.812365	-1.8387469	-0.7268419	0.0	17.6875	-48.0	-5.4375	-1.0265352	-0.20391977	-0.13366501
1277309215229	2.7649305	11.032481	-0.19068487	1.5686235	0.0	20.125	-46.3125	-8.625	-1.2775257	-0.016763888	-0.24555956
1277309215269	5.597963	13.375181	-2.2609777	4.867977	0.0	22.875	-44.5625	-10.375	-1.1925088	-0.15469013	-0.39638084
1277309215309	2.6014864	12.912089	-0.3405087	3.3693027	0.0	25.0625	-43.0625	-12.3125	-1.1892004	-0.025846072	-0.19881515
1277309215349	1.1168685	14.7916975	-1.2258313	5.077716	0.0	25.5625	-42.0625	-12.5625	-1.066499	-0.08245036	-0.07536344
1277309215389	0.42223078	15.091345	-5.597963	6.2950325	0.0	26.8125	-41.3125	-11.5625	-0.8424242	-0.3550777	-0.027971042
1277309215429	2.3018389	10.61025	-3.5957718	1.6303711	0.0	26.8125	-42.3125	-9.125	-1.0564578	-0.319822	-0.2136343
1277309215459	0.3405087	14.47843	7.668256	6.580633	0.0	26.0625	-43.3125	-5.1875	-2.0877151	0.48695773	-0.02351401
1277309215499	-5.202973	17.270601	0.8036005	8.248554	0.0	25.8125	-44.8125	-1.0	-1.675773	0.044522677	0.29261404
1277309215539	-5.6252036	14.9006605	-1.2258313	6.167556	0.0	23.875	-47.0	4.1875	-1.5976031	-0.07681368	0.36097264
1277309215579	0.27240697	8.580819	2.3699405	-0.9004011	0.0	21.875	-48.25	8.625	-2.3014028	0.26934347	-0.03173537
1277309215619	3.1463003	5.8567495	1.8387469	-2.9087005	0.0	20.125	-49.5	12.3125	-2.0417047	0.26982653	-0.4929701
1277309215659	2.6014864	3.990762	3.5276701	-3.8788877	0.0	17.4375	-49.75	15.5	-2.2182662	0.63740236	-0.5776937
1277309215699	-2.6014864	1.4165162	3.9090397	-4.9020767	0.0	15.9375	-49.75	17.5	2.416253	0.9223438	1.0721835
1277309215739	-4.5628166	-0.23154591	2.6832085	-4.5083	0.0	14.4375	-50.0	18.0	1.9727714	0.53103185	1.6214991
1277309215779	-3.214402	6.0201936	-4.2495484	-1.7671366	0.0	13.1875	-50.25	16.75	0.76663804	-0.5569301	0.4904269
1277309215819	-1.0760075	19.313654	-19.300034	17.518547	0.0	12.9375	-51.0	15.25	-0.37407917	-0.7842707	0.055654734
1277309215859	-1.0351465	9.384419	-7.7772183	2.425438	0.0	12.4375	-51.75	13.8125	-0.28405434	-0.6890505	0.109860666
1277309215899	-4.944186	10.460427	-8.049625	4.2881002	0.0	12.6875	-52.25	13.3125	0.5158291	-0.6078551	0.44153428
1277309215929	1.6480621	7.8861814	4.140586	-0.7483711	0.0	12.9375	-52.0	14.3125	-2.5514057	0.47473764	-0.20601603
1277309215969	-8.880466	4.399372	5.366417	1.4634695	0.0	12.9375	-51.75	15.5	2.2082431	0.49628642	1.1108365
1277309216009	-2.1111538	13.021052	7.014479	5.1334867	0.0	13.4375	-51.5	15.25	-3.0113552	0.48873082	0.16073519
1277309216049	5.407278	13.402422	1.7978859	4.7568645	0.0	13.1875	-51.0	13.3125	-2.1030378	0.123767115	-0.38348153
1277309216089	2.152015	8.894087	-1.3075534	-0.5629692	0.0	13.9375	-51.25	10.5625	-1.72098	-0.14192979	-0.23739758
1277309216119	-0.95342433	8.812365	-0.7627395	-0.91010284	0.0	15.6875	-51.25	6.1875	-1.7331474	-0.0858397	0.107772455
1277309216159	-1.3075534	7.5456724	-0.19068487	-2.146152	0.0	16.9375	-50.75	1.75	-1.6246786	-0.02489454	0.17158133
1277309216199	-0.10896278	7.9270425	0.9942854	-1.816752	0.0	18.625	-50.25	-1.75	-1.8191822	0.12476626	0.013744839
1277309216239	0.6946377	8.853226	-0.19068487	-0.92416763	0.0	19.875	-49.0	-5.1875	-1.3143138	-0.021469168	-0.078301124
1277309216279	0.38136974	9.765789	-1.9477097	0.15877247	0.0	21.625	-47.5	-7.875	-0.94839865	-0.19671299	-0.03903177
1277309216319	5.012288	13.484144	-0.95342433	4.6104984	0.0	23.875	-45.5625	-9.625	-1.2697289	-0.066179566	-0.3558895
1277309216349	3.9499009	12.4489975	-3.1054392	3.6180658	0.0	26.0625	-43.8125	-10.5625	-1.1269379	-0.23343687	-0.3072397
1277309216389	3.336985	14.206022	1.879608	4.9065905	0.0	28.0625	-42.8125	-11.0625	-1.3982512	0.12809949	-0.23071656
1277309216429	0.53119355	16.970953	-4.099725	7.660551	0.0	29.5625	-42.5625	-10.8125	-0.9897321	-0.2369201	-0.031289943
1277309216459	0.61291564	13.525005	-5.7886477	4.917815	0.0	30.0625	-43.0625	-9.625	-0.9029199	-0.40403458	-0.04528624
1277309216499	-0.6946377	11.604536	-0.5720546	1.8327236	0.0	30.0625	-44.0625	-7.625	-1.2249027	-0.04916804	0.059787814
1277309216539	-2.6832085	15.091345	7.273266	7.1594543	0.0	29.3125	-45.3125	-3.9375	-2.2747073	0.44304663	0.17595908
1277309216579	-5.7477865	17.052675	-2.6014864	8.375717	0.0	27.3125	-46.75	1.0	-1.0285544	-0.14357014	0.32510144
1277309216619	-2.7921712	11.686258	2.1792557	2.4045744	0.0	25.0625	-48.5	6.375	-2.4469743	0.17942448	0.23453087
1277309216659	2.5606253	6.4424243	1.2258313	-2.766459	0.0	22.625	-49.75	11.3125	-1.9937392	0.17501105	-0.3783174
1277309216699	3.336985	4.0588636	2.7240696	-3.888002	0.0	20.125	-50.25	15.25	-2.0642009	0.47827902	-0.68810046
1277309216739	-0.61291564	1.9885708	3.8273177	-5.450225	0.0	17.6875	-50.5	18.25	-3.1051896	1.0728085	0.29898015
1277309216779	-3.568531	0.88532263	3.336985	-4.841403	0.0	16.1875	-50.75	19.4375	2.2021363	0.73699844	1.3276145
1277309216819	-4.0180025	1.4165162	1.0760075	-5.412489	0.0	14.9375	-51.5	18.75	2.1054566	0.24738778	1.2318584
1277309216859	-2.4108016	15.050485	-14.628253	11.319513	0.0	13.9375	-52.75	16.75	-0.20933427	-0.7648427	0.15883173
1277309216899	0.27240697	16.467001	-14.47843	12.121899	0.0	13.4375	-53.4375	15.0	-0.54043293	-0.721158	-0.016541088
1277309216939	-4.5219555	3.718355	-5.5571017	-1.7347469	0.0	12.6875	-53.9375	14.3125	1.0350083	-0.75934976	0.88261145
1277309216979	-3.336985	8.281172	1.3756552	-0.7730627	0.0	13.1875	-53.6875	15.5	2.8217463	0.15287706	0.38305593
1277309217019	-5.597963	9.234595	3.336985	1.4960222	0.0	14.1875	-52.75	17.25	2.6974676	0.29970527	0.544962
1277309217059	-3.8273177	11.985906	5.134871	3.7829485	0.0	15.4375	-52.75	17.5	3.1053605	0.38747633	0.30908436
1277309217089	3.214402	13.0619135	5.243834	4.630931	0.0	16.6875	-53.0	16.0	-2.4099338	0.37170792	-0.241295
1277309217119	5.829509	11.495573	0.7218784	3.102744	0.0	17.4375	-53.4375	13.0625	-1.9377271	0.05594803	-0.46931866
1277309217159	2.982856	9.534244	-1.56634	0.30535507	0.0	17.875	-54.4375	9.875	-1.6467409	-0.15552527	-0.3032102
1277309217199	-1.4573772	8.008764	-1.4573772	-1.5369349	0.0	18.375	-54.4375	5.6875	-1.0830775	-0.17715584	0.18000315
1277309217239	-2.2201166	7.43671	0.19068487	-2.0432792	0.0	19.375	-53.9375	1.5	-2.3179955	0.024564592	0.29011202
1277309217279	-0.10896278	8.240311	1.3075534	-1.462534	0.0	20.625	-53.25	-2.0	-1.8821862	0.15735218	0.013222369
1277309217319	0.19068487	8.853226	-1.6889231	-0.79174995	0.0	22.375	-51.5	-4.6875	-1.0280892	-0.1884616	-0.021535134
1277309217359	2.7921712	11.34575	-1.56634	1.9821444	0.0	25.3125	-49.5	-6.875	-1.2426156	-0.1332609	-0.24130324
1277309217399	7.0553403	12.830367	-2.2201166	5.0029774	0.0	28.0625	-47.5	-7.875	-1.3232597	-0.1504776	-0.5027617
1277309217429	2.4516625	13.102775	-0.95342433	3.5575695	0.0	30.5625	-46.0625	-8.125	-1.2941847	-0.07140222	-0.18497135
1277309217469	0.53119355	14.601013	-0.08172209	4.8042517	0.0	32.5	-45.3125	-9.375	-1.295988	-0.005593256	-0.036364555
1277309217509	-0.42223078	15.5135765	-5.407278	6.6277027	0.0	33.25	-45.0625	-8.125	-0.9520819	-0.33526862	0.027210139
1277309217549	2.8738933	11.536434	-4.2495484	2.819007	0.0	33.5	-45.5625	-5.4375	-1.1929224	-0.34328306	-0.2441451
1277309217589	-0.50395286	14.750836	6.0882955	6.1592035	0.0	32.25	-46.5	-2.0	-2.0594685	0.39123708	0.034151074
1277309217619	-6.428804	16.930092	0.38136974	8.306963	0.0	31.3125	-48.25	2.9375	-1.897902	0.021055872	0.36290795
1277309217659	-4.4810944	14.859799	-1.7978859	5.817889	0.0	29.5625	-49.75	7.875	-1.6680295	-0.11532355	0.29288572
1277309217699	0.92618364	9.302697	3.336985	0.11975193	0.0	27.5625	-50.75	12.5625	-2.2806978	0.3428501	-0.09923375
1277309217739	2.6832085	5.8976107	2.152015	-2.979309	0.0	25.5625	-51.25	16.75	-2.1205611	0.3206731	-0.42697546
1277309217779	1.607201	4.2495484	3.445948	-4.1043425	0.0	23.875	-51.25	20.1875	-2.3498247	0.6488965	-0.3615777
1277309217819	-2.0294318	1.607201	4.0180025	-5.026898	0.0	22.125	-51.75	22.1875	2.6774962	0.99844515	0.90098554
1277309217859	-4.5219555	0.23154591	3.336985	-4.1819577	0.0	19.875	-52.5	21.9375	2.1137776	0.63512015	1.5196362
1277309217899	-4.5628166	4.8216033	-2.2609777	-2.7938633	0.0	18.125	-53.4375	19.9375	1.6698773	-0.3282721	0.75782895
1277309217939	-3.1463003	18.04696	-17.583868	15.585955	0.0	16.9375	-54.1875	17.25	-0.2712306	-0.7649209	0.17260483
1277309217979	-1.4573772	10.038197	-8.076866	3.1596556	0.0	16.4375	-54.6875	15.25	-0.34701928	-0.67245954	0.14417583
1277309218019	-3.1054392	7.8180795	-8.308413	2.016879	0.0	17.1875	-54.6875	15.0	0.14190763	-0.7791875	0.37810108
1277309218059	5.366417	7.6273947	1.1441092	-0.4106636	0.0	18.125	-54.4375	16.0	-1.9803375	0.122068666	-0.6131189
1277309218099	-8.853226	5.8567495	5.012288	1.9323511	0.0	17.875	-54.6875	18.0	2.3530686	0.4411475	0.9863524
1277309218139	-4.5219555	14.437569	7.6954966	7.1672173	0.0	17.6875	-54.4375	18.0	-3.127112	0.47054622	0.30352935
1277309218179	3.8273177	10.337844	3.445948	1.742979	0.0	17.875	-54.6875	16.25	-2.251641	0.302974	-0.35457692
1277309218219	3.173541	9.534244	-0.53119355	0.2559204	0.0	18.625	-54.6875	13.5625	-1.8787624	-0.0528136	-0.32132193
1277309218259	1.1849703	10.228881	-1.0760075	0.5467043	0.0	19.875	-54.6875	9.125	-1.7107357	-0.1041164	-0.115331456
1277309218299	-0.95342433	7.43671	0.50395286	-2.2921548	0.0	21.375	-54.9375	4.6875	-2.1104102	0.06711447	0.12750956
1277309218339	-1.2666923	7.7363577	0.7218784	-1.9341125	0.0	22.375	-54.1875	0.5	-1.9770839	0.091824755	0.16229236
1277309218379	-0.19068487	8.499097	-1.525479	-1.169631	0.0	24.125	-53.6875	-3.1875	-1.0642807	-0.17755242	0.022432134
1277309218419	-0.08172209	10.337844	-0.27240697	0.53510475	0.0	26.8125	-52.0	-6.375	-1.2853324	-0.026343543	0.007904974
1277309218449	5.9793324	14.137921	-1.4165162	5.608918	0.0	29.8125	-49.75	-8.375	-1.3303697	-0.09201848	-0.40011492
1277309218489	3.759216	13.0619135	-3.9090397	4.3364	0.0	32.5	-48.5	-8.875	-1.1698279	-0.28003883	-0.2802267
1277309218529	1.1441092	14.2877445	0.08172209	4.5270624	0.0	34.5	-47.25	-9.125	-1.3423676	0.005701421	-0.07990576
1277309218569	1.3075534	15.4046135	-4.7535014	6.3676376	0.0	35.25	-46.75	-7.875	-1.090856	-0.2982966	-0.08467767
1277309218609	0.9942854	12.4489975	-4.7126403	3.5415754	0.0	34.5	-47.25	-4.6875	-1.0870459	-0.360833	-0.07969953
1277309218649	-2.0294318	14.941522	6.932757	6.7894573	0.0	33.75	-48.0	-1.0	-2.228859	0.43094975	0.13499884
1277309218689	-6.3607025	17.079916	0.27240697	8.4212475	0.0	32.25	-48.75	3.4375	-1.8846977	0.014945064	0.35649657
1277309218729	-3.1463003	13.633968	-0.88532263	4.213624	0.0	30.3125	-50.0	9.125	-1.8678589	-0.06318793	0.22679885
1277309218769	1.7978859	8.281172	3.5276701	-0.6276169	0.0	28.0625	-50.75	14.0625	-2.232662	0.39446926	-0.21378753
1277309218809	1.8387469	5.7477865	2.3018389	-3.3478189	0.0	25.5625	-51.25	18.0	-2.2373757	0.36439738	-0.30961695
1277309218849	0.42223078	3.173541	4.2904096	-4.453403	0.0	23.375	-51.75	21.1875	-2.612604	0.92973125	-0.1322704
1277309218889	-2.9556155	0.38136974	3.718355	-5.0414357	0.0	21.875	-52.25	22.875	2.210193	0.89516485	1.442473
1277309218929	-4.399372	-0.19068487	3.1463003	-4.394623	0.0	20.625	-53.6875	22.1875	2.0549922	0.620391	1.6141129
1277309218969	-4.399372	6.932757	-5.134871	-0.122410774	0.0	19.375	-55.1875	19.6875	0.77383447	-0.55887145	0.5654569
1277309218999	-2.1792557	19.422615	-18.727978	17.26223	0.0	18.375	-56.1875	17.5	-0.412468	-0.7640672	0.11173466
1277309219039	-1.2666923	9.888372	-7.6954966	2.787201	0.0	17.6875	-56.6875	15.75	-0.4182901	-0.65738875	0.12740532
1277309219079	-1.9477097	2.4108016	-7.43671	-1.7499647	0.0	17.6875	-56.1875	16.25	0.45233262	-1.1759307	0.6795453
1277309219109	3.1463003	7.4639506	0.42223078	-1.6956673	0.0	18.375	-55.1875	18.0	-2.0564418	0.052080214	-0.39893025
1277309219149	-4.099725	7.5865335	7.6273947	1.7059689	0.0	18.625	-54.6875	19.4375	2.9598043	0.72418433	0.49543902
1277309219189	-11.9450445	14.246883	-2.5606253	8.96073	0.0	18.625	-54.4375	19.6875	2.1025472	-0.13686714	0.69773984
1277309219229	1.3075534	9.656827	7.5456724	2.5181694	0.0	18.875	-54.4375	17.75	-2.6224086	0.65888286	-0.13458349
1277309219269	4.5628166	10.991621	1.8387469	2.23561	0.0	18.875	-55.1875	15.25	-2.0839987	0.15329082	-0.39347062
1277309219309	2.4925237	11.876944	-2.2201166	2.5304232	0.0	20.125	-55.1875	12.0625	-1.6636578	-0.18094057	-0.20686038
1277309219339	-1.6480621	7.205164	-1.879608	-2.1801553	0.0	21.375	-55.4375	7.125	-0.8405742	-0.24902344	0.22486515
1277309219379	-2.5333846	6.8237944	0.46309182	-2.5130458	0.0	22.875	-55.1875	3.1875	-2.8310888	0.0635356	0.3554855
1277309219419	0.42223078	8.662541	1.56634	-0.9935169	0.0	24.375	-53.9375	-0.5	-1.8885782	0.17867714	-0.048703592
1277309219449	1.6889231	8.730643	-3.255263	-0.33704948	0.0	26.0625	-53.0	-4.6875	-1.047137	-0.35091722	-0.19108742
1277309219489	1.0760075	10.841797	-1.56634	1.200428	0.0	28.3125	-51.25	-6.625	-1.1871085	-0.14278768	-0.09892229
1277309219529	4.944186	13.143636	-2.0294318	4.3820324	0.0	30.8125	-49.25	-8.875	-1.279906	-0.14352398	-0.35979232
1277309219579	1.7570249	14.519291	1.0760075	4.858095	0.0	33.25	-47.75	-9.875	-1.4004883	0.07343976	-0.120427564
1277309219619	-0.08172209	16.276316	-4.4810944	7.075451	0.0	34.5	-46.75	-9.625	-1.0055281	-0.26865467	0.0050208787
1277309219659	2.7921712	12.871228	-4.903325	4.24708	0.0	35.0	-46.75	-8.375	-1.122821	-0.35639548	-0.21362133
1277309219699	-1.334794	13.375181	3.0237172	3.970868	0.0	34.25	-48.0	-4.6875	-1.7940549	0.22126861	0.099466994
1277309219739	-5.09401	16.507862	3.445948	7.809622	0.0	32.5	-49.75	-0.5	-2.148565	0.1968811	0.29931042
1277309219779	-5.6252036	16.126492	-1.920469	7.3804035	0.0	30.3125	-51.25	5.1875	-1.4548397	-0.111973114	0.33562106
1277309219819	-0.6537767	10.378705	2.982856	1.0119619	0.0	27.8125	-52.25	11.5625	-2.3859475	0.27933365	0.06290901
1277309219859	2.1111538	7.3958488	1.56634	-1.9575119	0.0	25.3125	-52.5	15.75	-2.1275694	0.20090443	-0.2780564
1277309219899	1.607201	3.8681788	4.0180025	-4.0023203	0.0	22.875	-52.25	19.1875	-2.3561993	0.7645916	-0.39379063
1277309219939	-2.3018389	0.3405087	4.5219555	-4.7211323	0.0	20.625	-52.5	20.9375	2.1857848	1.0955563	1.4239324
1277309219979	-3.8273177	-0.5720546	3.636633	-4.4962163	0.0	19.375	-52.75	20.6875	1.9644542	0.7543416	1.7191641
1277309220019	-3.9499009	3.336985	-1.1849703	-4.501809	0.0	18.375	-53.9375	19.4375	1.8380868	-0.22527586	0.8693128
1277309220059	-2.3699405	18.578154	-18.34661	16.410948	0.0	17.875	-55.6875	17.0	-0.36341494	-0.77509266	0.1268807
1277309220103	-1.3756552	11.304889	-11.141444	6.125227	0.0	17.6875	-56.6875	16.0	-0.34925225	-0.7744426	0.121091396
1277309220159	-4.944186	6.66035	-6.6331096	0.8142433	0.0	16.9375	-57.4375	16.25	0.74405307	-0.6745348	0.638575
1277309220189	-1.879608	5.7477865	7.3958488	-0.2531929	0.0	16.9375	-57.1875	17.5	3.112312	0.8853777	0.31605265
1277309220220	-10.651112	15.241169	-0.88532263	8.808483	0.0	17.4375	-56.4375	19.4375	2.3189669	-0.047577243	0.60994583
1277309220260	-1.4165162	11.727119	6.0474343	3.4637413	0.0	17.875	-55.9375	19.4375	-2.8935587	0.47316837	0.12020742
1277309220299	4.8216033	10.337844	4.671779	2.5199223	0.0	18.125	-55.9375	17.0	-2.245311	0.38871616	-0.43641075
1277309220339	2.6014864	10.310603	-0.88532263	0.8638735	0.0	18.625	-56.9375	13.8125	-1.8612742	-0.08306448	-0.24715325
1277309220379	0.23154591	9.888372	-1.3756552	0.17963791	0.0	19.625	-56.9375	9.375	-1.6426289	-0.13819385	-0.0234117
1277309220409	-2.3018389	6.510526	-0.7627395	-2.8591914	0.0	20.875	-56.9375	4.1875	-0.27417478	-0.11000859	0.33983967
1277309220439	-2.4108016	6.851035	1.334794	-2.4221854	0.0	22.625	-56.4375	-0.5	-2.897844	0.18175612	0.33835638
1277309220479	0.23154591	8.689782	1.7297841	-0.9433508	0.0	24.375	-55.1875	-4.1875	-1.8184665	0.1964232	-0.026639463
1277309220519	0.88532263	9.343558	-2.6832085	-0.04522133	0.0	26.5625	-53.9375	-7.125	-0.9849785	-0.27846348	-0.09447015
1277309220559	4.372132	13.593107	0.27240697	4.474887	0.0	29.0625	-52.0	-9.375	-1.3760256	0.019075222	-0.3111929
1277309220599	5.09401	13.143636	-3.759216	4.782243	0.0	31.8125	-50.0	-10.375	-1.1905975	-0.2606168	-0.36974058
1277309220639	1.2666923	14.437569	0.9942854	4.7204456	0.0	34.0	-47.75	-10.375	-1.3812548	0.068497054	-0.08751176
1277309220679	0.50395286	16.821129	-5.053149	7.764311	0.0	35.25	-47.25	-10.125	-1.010819	-0.29170462	-0.029950555
1277309220719	1.8387469	12.299174	-5.243834	3.6895885	0.0	35.75	-48.25	-7.375	-1.0695336	-0.39904702	-0.14840253
1277309220759	-1.6480621	14.410328	6.5922484	6.125437	0.0	35.25	-50.0	-3.4375	-2.1474397	0.4265933	0.11387198
1277309220799	-6.510526	17.434046	1.1441092	8.838507	0.0	33.25	-52.5	1.25	-1.9422628	0.061400853	0.3574001
1277309220859	-2.9147544	10.800936	2.7649305	1.7172747	0.0	30.5625	-53.9375	8.125	-2.5354173	0.2422933	0.26358256
1277309220899	1.1168685	7.246025	2.4925237	-2.0629463	0.0	28.0625	-54.9375	13.5625	-2.2465212	0.3277118	-0.15293181
1277309220939	2.8738933	4.903325	2.8330324	-3.4562225	0.0	25.3125	-55.6875	18.25	-2.1409364	0.46242172	-0.5301445
1277309220979	-0.6946377	1.2258313	3.718355	-5.830302	0.0	23.625	-55.9375	21.4375	3.0322812	1.2085919	0.515549
1277309221019	-3.568531	-0.14982383	3.636633	-4.7093997	0.0	22.125	-56.1875	22.4375	2.052208	0.7944095	1.6127564
1277309221059	-4.0180025	0.53119355	1.7978859	-5.3728137	0.0	20.375	-56.6875	21.9375	2.099311	0.4175172	1.4393551
1277309221099	-2.7513103	16.548723	-16.276316	13.567446	0.0	19.375	-57.4375	19.6875	-0.33844215	-0.7702851	0.16474825
1277309221139	-1.8387469	14.9006605	-12.680544	9.845495	0.0	18.625	-57.9375	18.75	-0.43907568	-0.7013503	0.12277965
1277309221179	-5.5571017	4.099725	-6.5922484	-0.25956345	0.0	18.125	-58.1875	18.25	1.0492461	-0.7621779	0.9351846
1277309221219	0.8036005	5.6660647	2.3699405	-3.6125655	0.0	18.375	-58.1875	19.6875	-2.5500627	0.3926234	-0.14088729
1277309221259	-7.3141265	9.997335	2.8330324	2.900405	0.0	18.375	-58.1875	21.9375	2.6237216	0.22483914	0.63162565
1277309221299	-4.2904096	14.410328	4.140586	5.7885284	0.0	18.625	-58.1875	21.9375	-3.1082432	0.26872686	0.28937435
1277309221330	3.568531	11.141444	5.284695	3.030569	0.0	19.125	-58.6875	20.4375	-2.397544	0.42428553	-0.30996907
1277309221369	4.140586	10.691973	1.3756552	1.7413006	0.0	19.125	-58.9375	17.0	-2.0947475	0.11940905	-0.36947665
1277309221409	1.5390993	9.915613	-1.1168685	0.28966618	0.0	19.625	-58.6875	12.5625	-1.7925923	-0.11084824	-0.15399092
1277309221449	-0.50395286	8.117727	-2.2201166	-1.3757315	0.0	20.625	-58.6875	7.375	-1.099072	-0.26647276	0.062000968
1277309221489	-1.9885708	6.5513873	1.7297841	-2.7449756	0.0	21.375	-58.6875	2.9375	-2.955743	0.24747206	0.29469612
1277309221529	-0.53119355	8.771504	1.2666923	-0.92825127	0.0	23.375	-58.1875	-1.0	-1.9325602	0.14315976	0.060485136
1277309221569	0.313268	9.193735	-1.7297841	-0.44635868	0.0	25.5625	-57.1875	-4.6875	-1.0711505	-0.18586859	-0.034060895
1277309221609	2.7921712	12.53072	-0.040861044	3.0314503	0.0	27.8125	-55.6875	-6.875	-1.3936359	-0.0031828005	-0.21924432
1277309221649	6.1291566	14.206022	-4.399372	6.2785015	0.0	30.8125	-53.4375	-8.875	-1.210786	-0.2770353	-0.40731928
1277309221689	1.7297841	13.6748295	1.2258313	4.0315495	0.0	32.75	-52.25	-9.875	-1.4281448	0.08869941	-0.12582575
1277309221729	-0.23154591	16.821129	-4.7943625	7.685917	0.0	34.25	-51.75	-9.125	-0.9678588	-0.27763292	0.013764313
1277309221769	0.6537767	12.912089	-5.6660647	4.3090773	0.0	34.75	-51.5	-7.125	-0.953815	-0.4130458	-0.05058971
1277309221809	-0.53119355	12.980191	5.434519	4.2753077	0.0	34.0	-53.0	-2.6875	-2.097493	0.39620563	0.040900577
1277309221849	-4.944186	17.24336	1.9885708	8.241421	0.0	33.0	-54.1875	2.6875	-2.0818348	0.11040607	0.27923834
1277309221889	-5.47538	15.894946	-1.56634	7.077736	0.0	31.3125	-54.9375	8.875	-1.8273059	-0.092902124	0.33174253
1277309221929	-1.6480621	9.384419	2.6832085	0.09198856	0.0	29.3125	-55.4375	15.5	-2.5865314	0.27450284	0.17384413
1277309221969	1.879608	5.597963	2.4108016	-3.4283996	0.0	27.3125	-55.4375	20.4375	-2.2548387	0.38760507	-0.32393876
1277309222009	2.0294318	2.8330324	3.3778462	-4.953351	0.0	25.3125	-54.6875	24.625	-2.2025526	0.76979727	-0.6216125
1277309222049	-1.334794	0.7218784	3.445948	-6.0413694	0.0	24.125	-54.4375	27.0625	2.5486245	1.1559795	1.0750313
1277309222089	-3.445948	-0.10896278	2.9147544	-5.2919827	0.0	23.625	-54.4375	27.3125	2.1361296	0.7018333	1.6024064
1277309222119	-3.405087	4.099725	-1.6889231	-4.216049	0.0	23.375	-54.6875	25.625	1.9726089	-0.3068953	0.6931021
1277309222149	-3.9499009	15.976667	-15.322891	12.679937	0.0	22.875	-55.6875	23.375	-0.36025152	-0.749706	0.24236926
1277309222189	-2.1111538	17.011814	-15.173067	13.086161	0.0	22.625	-56.4375	21.6875	-0.5985886	-0.7245351	0.12346803
1277309222229	-2.4108016	2.152015	-4.944186	-3.9000344	0.0	22.375	-57.1875	21.4375	0.6830026	-0.99188554	0.8420539
1277309222269	-0.8036005	6.0882955	-1.4165162	-3.5042987	0.0	22.875	-56.9375	23.125	-2.1129863	-0.22669666	0.13123246
1277309222309	-3.636633	7.3958488	5.829509	0.28824234	0.0	23.375	-55.9375	24.625	3.0743644	0.61562765	0.45699584
1277309222349	-9.425281	16.3989	-2.1111538	9.225344	0.0	23.375	-55.1875	25.375	2.770997	-0.11115533	0.52164704
1277309222389	2.2609777	9.084772	6.3198414	1.4887247	0.0	23.875	-54.9375	23.875	-2.4757998	0.5937909	-0.24392009
1277309222429	3.3778462	9.534244	1.6889231	0.44830513	0.0	23.375	-55.6875	20.9375	-2.1743844	0.16544713	-0.34048772
1277309222469	1.6889231	11.645397	-1.2666923	2.0285625	0.0	23.875	-56.4375	17.25	-1.9196326	-0.10723281	-0.14402507
1277309222509	-0.6946377	7.7363577	-1.7570249	-1.842927	0.0	24.375	-57.1875	12.0625	-1.5039799	-0.22245887	0.089548595
1277309222549	-2.3018389	6.66035	1.7297841	-2.550558	0.0	24.625	-57.4375	7.625	-2.9416208	0.24070835	0.3327526
